timestamp_s,timestamp_ms,imu1_accel_x,imu1_accel_y,imu1_accel_z,imu1_gyro_x,imu1_gyro_y,imu1_gyro_z,imu1_mag_x,imu1_mag_y,imu1_mag_z,imu2_accel_x,imu2_accel_y,imu2_accel_z,imu2_gyro_x,imu2_gyro_y,imu2_gyro_z,imu2_mag_x,imu2_mag_y,imu2_mag_z,high_g_accel_x,high_g_accel_y,high_g_accel_z,baro1_temp,baro1_pres,baro2_temp,baro2_pres,gps_lat,gps_long,gps_alt,battery_voltage,pyro_cont,pyro_status,heading,vtg,pos_x,pos_y,pos_z,vel_x,vel_y,vel_z,acc_x,acc_y,acc_z,q_x,q_y,q_z,q_w,state,gps_lat_mod,gps_long_mod,imu1_accel_x_real,imu1_accel_y_real,imu1_accel_z_real,imu2_accel_x_real,imu2_accel_y_real,imu2_accel_z_real,imu1_gyro_x_real,imu1_gyro_y_real,imu1_gyro_z_real,imu2_gyro_x_real,imu2_gyro_y_real,imu2_gyro_z_real,imu1_mag_x_real,imu1_mag_y_real,imu1_mag_z_real,imu2_mag_x_real,imu2_mag_y_real,imu2_mag_z_real,imu_accel_x_avg,imu_accel_y_avg,imu_accel_z_avg,imu_gyro_x_avg,imu_gyro_y_avg,imu_gyro_z_avg,imu_mag_x_avg,imu_mag_y_avg,imu_mag_z_avg,high_g_accel_x_real,high_g_accel_y_real,high_g_accel_z_real,baro_pres_avg,baro_temp_avg
180904,0,-1376,-110,87,-389,102,121,-902,-32765,-907,0,0,0,0,0,0,0,0,0,-80,384,128,0.0,0.0,22.56,1.0113298791019,4449.48779296875,-7309.84521484375,40.5,11.723750114440918,0,0,0.0,0.0,0.0,0.0,1.013712383938602,0.0,0.0,0.3625212877767031,-0.7896314579999999,0.6245266986,9.877571692799998,0.0,0.0,0.0,0.0,7,44.82479654947917,-73.1640869140625,-9.8775716928,-0.789631458,0.6245266986,0.0,0.0,0.0,-0.11881328840199999,0.031154127036,0.036957346778,0.0,0.0,0.0,-0.52316,-19.0037,-0.52606,0.0,0.0,0.0,-4.9387858464,-0.394815729,0.3122633493,-0.059406644200999996,0.015577063518,0.018478673389,-0.26158,-9.50185,-0.26303,-2.3536,11.29728,3.76576,1.0113298791019,0.0
181009,0,-1374,-68,63,408,65,166,-914,-32765,-905,0,0,0,0,0,0,0,0,0,-32,384,208,0.0,0.0,22.56,1.0113890944979027,4449.48779296875,-7309.84521484375,40.5,11.725000381469728,0,0,0.0,0.0,0.0,0.0,1.1169933064027249,0.0,0.0,0.4391167567876609,-0.4881358104,0.4522434714,9.8632147572,0.0,0.0,0.0,0.0,7,44.82479654947917,-73.1640869140625,-9.8632147572,-0.48813581040000004,0.45224347140000004,0.0,0.0,0.0,0.124616508144,0.01985312017,0.050701814587999994,0.0,0.0,0.0,-0.53012,-19.0037,-0.5249,0.0,0.0,0.0,-4.9316073786,-0.24406790520000002,0.22612173570000002,0.062308254072,0.009926560085,0.025350907293999997,-0.26506,-9.50185,-0.26245,-0.94144,11.29728,6.11936,1.0113890944979027,0.0
181114,0,-1369,-97,124,903,90,164,-914,-32765,-905,0,0,0,0,0,0,0,0,0,-16,336,128,0.0,0.0,22.57,1.011349617567234,4449.48779296875,-7309.84521484375,40.5,11.72624969482422,0,0,0.0,0.0,0.0,0.0,1.1347011311901034,0.0,0.0,0.4172253516517235,-0.6963113766,0.8901300071999999,9.8273224182,0.0,0.0,0.0,0.0,7,44.82479654947917,-73.1640869140625,-9.8273224182,-0.6963113766,0.8901300072,0.0,0.0,0.0,0.275805654054,0.02748893562,0.050090949351999994,0.0,0.0,0.0,-0.53012,-19.0037,-0.5249,0.0,0.0,0.0,-4.9136612091,-0.3481556883,0.4450650036,0.137902827027,0.01374446781,0.025045474675999997,-0.26506,-9.50185,-0.26245,-0.47072,9.88512,3.76576,1.011349617567234,0.0
181219,0,-1364,-158,6,-717,42,150,-896,-32765,-860,0,0,0,0,0,0,0,0,0,-48,400,128,0.0,0.0,22.56,1.0113890944979027,4449.48779296875,-7309.84521484375,40.5,11.723750114440918,0,0,0.0,0.0,0.0,0.0,1.098425406179413,0.0,0.0,0.3395598428350429,-1.1341979124,0.0430708068,9.7914300792,0.0,0.0,0.0,0.0,7,44.82479654947917,-73.1640869140625,-9.7914300792,-1.1341979124000001,0.0430708068,0.0,0.0,0.0,-0.218995187106,0.012828169956,0.0458148927,0.0,0.0,0.0,-0.51968,-19.0037,-0.4988,0.0,0.0,0.0,-4.8957150396,-0.5670989562000001,0.0215354034,-0.109497593553,0.006414084978,0.02290744635,-0.25984,-9.50185,-0.2494,-1.41216,11.768,3.76576,1.0113890944979027,0.0
181324,0,-1369,-110,89,-174,101,96,-896,-32765,-860,0,0,0,0,0,0,0,0,0,-80,384,176,0.0,0.0,22.57,1.0114088329632371,4449.48779296875,-7309.84521484375,40.5,11.725000381469728,0,0,0.0,0.0,0.0,0.0,1.0302340330445043,0.0,0.0,0.234492132921498,-0.7896314579999999,0.6388836341999999,9.8273224182,0.0,0.0,0.0,0.0,7,44.82479654947917,-73.1640869140625,-9.8273224182,-0.789631458,0.6388836342,0.0,0.0,0.0,-0.053145275532,0.030848694418,0.029321531328,0.0,0.0,0.0,-0.51968,-19.0037,-0.4988,0.0,0.0,0.0,-4.9136612091,-0.394815729,0.3194418171,-0.026572637766,0.015424347209,0.014660765664,-0.25984,-9.50185,-0.2494,-2.3536,11.29728,5.17792,1.0114088329632371,0.0
181429,0,-1376,-139,7,-3,114,76,-902,-32765,-858,0,0,0,0,0,0,0,0,0,-64,352,160,0.0,0.0,22.57,1.01146804835924,4449.48779296875,-7309.84521484375,40.5,11.725000381469728,0,0,0.0,0.0,0.0,0.0,1.0172468706374564,0.0,0.0,0.2010322867955593,-0.9978070242,0.0502492746,9.877571692799998,0.0,0.0,0.0,0.0,7,44.82479654947917,-73.1640869140625,-9.8775716928,-0.9978070242,0.050249274600000005,0.0,0.0,0.0,-0.000916297854,0.034819318451999995,0.023212878968,0.0,0.0,0.0,-0.52316,-19.0037,-0.49764,0.0,0.0,0.0,-4.9387858464,-0.4989035121,0.025124637300000002,-0.000458148927,0.017409659225999997,0.011606439484,-0.26158,-9.50185,-0.24882,-1.88288,10.35584,4.7072,1.01146804835924,0.0
181534,0,-1377,-111,60,-231,107,84,-895,-32765,-875,0,0,0,0,0,0,0,0,0,-80,304,176,0.0,0.0,22.57,1.0112410560078955,4449.48779296875,-7309.84521484375,40.5,11.723750114440918,0,0,0.0,0.0,0.0,0.0,1.0447427250857384,0.0,0.0,0.2164533115168422,-0.7968099258,0.4307080679999999,9.8847501606,0.0,0.0,0.0,0.0,7,44.82479654947917,-73.1640869140625,-9.884750160600001,-0.7968099258,0.430708068,0.0,0.0,0.0,-0.070554934758,0.032681290126,0.025656339912,0.0,0.0,0.0,-0.5191,-19.0037,-0.5075,0.0,0.0,0.0,-4.942375080300001,-0.3984049629,0.215354034,-0.035277467379,0.016340645063,0.012828169956,-0.25955,-9.50185,-0.25375,-2.3536,8.94368,5.17792,1.0112410560078955,0.0
181640,0,-1372,-110,70,-416,106,106,-895,-32765,-875,0,0,0,0,0,0,0,0,0,-64,368,144,0.0,0.0,22.57,1.0114088329632371,4449.48779296875,-7309.84521484375,40.5,11.734999656677246,0,0,0.0,0.0,0.0,0.0,0.9524574953527069,0.0,0.0,0.1070503464425864,-0.7896314579999999,0.5024927459999999,9.8488578216,0.0,0.0,0.0,0.0,7,44.82479654947917,-73.1640869140625,-9.848857821600001,-0.789631458,0.502492746,0.0,0.0,0.0,-0.127059969088,0.032375857508,0.032375857508,0.0,0.0,0.0,-0.5191,-19.0037,-0.5075,0.0,0.0,0.0,-4.924428910800001,-0.394815729,0.251246373,-0.063529984544,0.016187928754,0.016187928754,-0.25955,-9.50185,-0.25375,-1.88288,10.82656,4.23648,1.0114088329632371,0.0
181744,0,-1374,-105,76,-425,95,107,-902,-32765,-913,0,0,0,0,0,0,0,0,0,-32,400,160,0.0,0.0,22.57,1.0113594867999014,4449.48779296875,-7309.84521484375,40.5,11.72249984741211,0,0,0.0,0.0,0.0,0.0,0.9211678942390978,0.0,0.0,0.0710763472117553,-0.7537391189999999,0.5455635527999999,9.8632147572,0.0,0.0,0.0,0.0,7,44.82479654947917,-73.1640869140625,-9.8632147572,-0.753739119,0.5455635528,0.0,0.0,0.0,-0.12980886265,0.029016098709999997,0.032681290126,0.0,0.0,0.0,-0.52316,-19.0037,-0.52954,0.0,0.0,0.0,-4.9316073786,-0.3768695595,0.2727817764,-0.064904431325,0.014508049354999998,0.016340645063,-0.26158,-9.50185,-0.26477,-0.94144,11.768,4.7072,1.0113594867999014,0.0
181849,0,-1380,-95,58,-125,74,145,-902,-32765,-913,0,0,0,0,0,0,0,0,0,-16,352,224,0.0,0.0,22.58,1.0113693560325685,4449.48779296875,-7309.84521484375,40.5,11.725000381469728,0,0,0.0,0.0,0.0,0.0,0.932597173445334,0.0,0.0,0.0814864171824307,-0.6819544409999999,0.4163511324,9.906285564,0.0,0.0,0.0,0.0,7,44.82479654947917,-73.1640869140625,-9.906285564000001,-0.681954441,0.4163511324,0.0,0.0,0.0,-0.03817907725,0.022602013732,0.04428772961,0.0,0.0,0.0,-0.52316,-19.0037,-0.52954,0.0,0.0,0.0,-4.9531427820000005,-0.3409772205,0.2081755662,-0.019089538625,0.011301006866,0.022143864805,-0.26158,-9.50185,-0.26477,-0.47072,10.35584,6.59008,1.0113693560325685,0.0
181954,0,-1379,-112,35,787,120,123,-894,-32765,-891,0,0,0,0,0,0,0,0,0,-80,368,112,0.0,0.0,22.58,1.0113200098692328,4449.48779296875,-7309.84521484375,40.5,11.72624969482422,0,0,0.0,0.0,0.0,0.0,0.9024927633048756,0.0,0.0,0.049643105109653,-0.8039883936,0.2512463729999999,9.8991070962,0.0,0.0,0.0,0.0,7,44.82479654947917,-73.1640869140625,-9.8991070962,-0.8039883936000001,0.251246373,0.0,0.0,0.0,0.240375470366,0.03665191416,0.037568212014,0.0,0.0,0.0,-0.51852,-19.0037,-0.51678,0.0,0.0,0.0,-4.9495535481,-0.40199419680000004,0.1256231865,0.120187735183,0.01832595708,0.018784106007,-0.25926,-9.50185,-0.25839,-2.3536,10.82656,3.29504,1.0113200098692328,0.0
182059,0,-1376,-96,-14,807,126,88,-894,-32765,-891,0,0,0,0,0,0,0,0,0,-32,384,192,0.0,0.0,22.58,1.0113298791019,4449.48779296875,-7309.84521484375,40.5,11.725000381469728,0,0,0.0,0.0,0.0,0.0,0.9304617151491372,0.0,0.0,0.0796451225515467,-0.6891329088,-0.1004985492,9.877571692799998,0.0,0.0,0.0,0.0,7,44.82479654947917,-73.1640869140625,-9.8775716928,-0.6891329088,-0.10049854920000001,0.0,0.0,0.0,0.24648412272599998,0.038484509868,0.026878070384,0.0,0.0,0.0,-0.51852,-19.0037,-0.51678,0.0,0.0,0.0,-4.9387858464,-0.3445664544,-0.050249274600000005,0.12324206136299999,0.019242254934,0.013439035192,-0.25926,-9.50185,-0.25839,-0.94144,11.29728,5.64864,1.0113298791019,0.0
182164,0,-1366,-110,101,-366,116,90,-921,-32765,-869,0,0,0,0,0,0,0,0,0,-32,384,144,0.0,0.0,22.59,1.011280532938564,4449.48779296875,-7309.84521484375,40.5,11.725000381469728,0,0,0.0,0.0,0.0,0.0,0.9624761883524728,0.0,0.0,0.1100534484930598,-0.7896314579999999,0.7250252478,9.8057870148,0.0,0.0,0.0,0.0,7,44.82479654947917,-73.1640869140625,-9.8057870148,-0.789631458,0.7250252478,0.0,0.0,0.0,-0.11178833818799999,0.035430183688,0.02748893562,0.0,0.0,0.0,-0.53418,-19.0037,-0.50402,0.0,0.0,0.0,-4.9028935074,-0.394815729,0.3625126239,-0.055894169093999996,0.017715091844,0.01374446781,-0.26709,-9.50185,-0.25201,-0.94144,11.29728,4.23648,1.011280532938564,0.0
182269,0,-1380,-157,6,-290,96,113,-921,-32765,-869,0,0,0,0,0,0,0,0,0,-48,352,208,0.0,0.0,22.59,1.011339748334567,4449.48779296875,-7309.84521484375,40.5,11.725000381469728,0,0,0.0,0.0,0.0,0.0,0.9821784989388558,0.0,0.0,0.125183601031828,-1.1270194446,0.0430708068,9.906285564,0.0,0.0,0.0,0.0,7,44.82479654947917,-73.1640869140625,-9.906285564000001,-1.1270194446000001,0.0430708068,0.0,0.0,0.0,-0.08857545922,0.029321531328,0.034513885833999995,0.0,0.0,0.0,-0.53418,-19.0037,-0.50402,0.0,0.0,0.0,-4.9531427820000005,-0.5635097223000001,0.0215354034,-0.04428772961,0.014660765664,0.017256942916999998,-0.26709,-9.50185,-0.25201,-1.41216,10.35584,6.11936,1.011339748334567,0.0
182374,0,-1376,-107,78,-18,114,92,-905,-32765,-877,0,0,0,0,0,0,0,0,0,-32,384,160,0.0,0.0,22.59,1.01139896373057,4449.48779296875,-7309.84521484375,40.5,11.72624969482422,0,0,0.0,0.0,0.0,0.0,1.0002806753174287,0.0,0.0,0.138316289843472,-0.7680960546,0.5599204884,9.877571692799998,0.0,0.0,0.0,0.0,7,44.82479654947917,-73.1640869140625,-9.8775716928,-0.7680960546000001,0.5599204884,0.0,0.0,0.0,-0.005497787124,0.034819318451999995,0.028099800855999998,0.0,0.0,0.0,-0.5249,-19.0037,-0.50866,0.0,0.0,0.0,-4.9387858464,-0.38404802730000004,0.2799602442,-0.002748893562,0.017409659225999997,0.014049900427999999,-0.26245,-9.50185,-0.25433,-0.94144,11.29728,4.7072,1.01139896373057,0.0
182479,0,-1363,-115,46,177,101,110,-905,-32765,-877,0,0,0,0,0,0,0,0,0,-16,384,192,0.0,0.0,22.59,1.0114088329632371,4449.48779296875,-7309.84521484375,40.5,11.723750114440918,0,0,0.0,0.0,0.0,0.0,0.8758313000540352,0.0,0.0,0.0032450888872155,-0.8255237969999999,0.3302095188,9.784251611399998,0.0,0.0,0.0,0.0,7,44.82479654947917,-73.1640869140625,-9.7842516114,-0.825523797,0.3302095188,0.0,0.0,0.0,0.054061573386,0.030848694418,0.033597587979999996,0.0,0.0,0.0,-0.5249,-19.0037,-0.50866,0.0,0.0,0.0,-4.8921258057,-0.4127618985,0.1651047594,0.027030786693,0.015424347209,0.016798793989999998,-0.26245,-9.50185,-0.25433,-0.47072,11.29728,5.64864,1.0114088329632371,0.0
182584,0,-1370,-111,13,103,108,105,-895,-32765,-858,0,0,0,0,0,0,0,0,0,-112,368,176,0.0,0.0,22.6,1.0114187021959042,4449.48779296875,-7309.84521484375,40.5,11.71875,0,0,0.0,0.0,0.0,0.0,0.9247029996214684,0.0,0.0,0.0584865373311565,-0.7968099258,0.0933200813999999,9.834500886,0.0,0.0,0.0,0.0,7,44.82479654947917,-73.1640869140625,-9.834500886,-0.7968099258,0.0933200814,0.0,0.0,0.0,0.031459559654,0.032986722744,0.03207042489,0.0,0.0,0.0,-0.5191,-19.0037,-0.49764,0.0,0.0,0.0,-4.917250443,-0.3984049629,0.0466600407,0.015729779827,0.016493361372,0.016035212445,-0.25955,-9.50185,-0.24882,-3.29504,10.82656,5.17792,1.0114187021959042,0.0
182690,0,-1372,-111,82,175,116,106,-895,-32765,-858,0,0,0,0,0,0,0,0,0,-32,368,144,0.0,0.0,22.59,1.01139896373057,4449.48779296875,-7309.84521484375,40.5,11.729999542236328,0,0,0.0,0.0,0.0,0.0,0.909726461461371,0.0,0.0,0.0463293907438463,-0.7968099258,0.5886343596,9.8488578216,0.0,0.0,0.0,0.0,7,44.82479654947917,-73.1640869140625,-9.848857821600001,-0.7968099258,0.5886343596,0.0,0.0,0.0,0.05345070815,0.035430183688,0.032375857508,0.0,0.0,0.0,-0.5191,-19.0037,-0.49764,0.0,0.0,0.0,-4.924428910800001,-0.3984049629,0.2943171798,0.026725354075,0.017715091844,0.016187928754,-0.25955,-9.50185,-0.24882,-0.94144,10.82656,4.23648,1.01139896373057,0.0
182794,0,-1380,-111,98,29,104,127,-904,-32765,-879,0,0,0,0,0,0,0,0,0,-64,336,176,0.0,0.0,22.6,1.0114877868245744,4449.48779296875,-7309.84521484375,40.5,11.72249984741211,0,0,0.0,0.0,0.0,0.0,0.8263889263724425,0.0,0.0,-0.0384413932131467,-0.7968099258,0.7034898444,9.906285564,0.0,0.0,0.0,0.0,7,44.82479654947917,-73.1640869140625,-9.906285564000001,-0.7968099258,0.7034898444000001,0.0,0.0,0.0,0.008857545922,0.031764992272,0.038789942486,0.0,0.0,0.0,-0.52432,-19.0037,-0.50982,0.0,0.0,0.0,-4.9531427820000005,-0.3984049629,0.35174492220000003,0.004428772961,0.015882496136,0.019394971243,-0.26216,-9.50185,-0.25491,-1.88288,9.88512,5.17792,1.0114877868245744,0.0
182900,0,-1374,-130,55,-89,112,108,-904,-32765,-879,0,0,0,0,0,0,0,0,0,-32,384,128,0.0,0.0,22.6,1.0114285714285711,4449.48779296875,-7309.84521484375,40.5,11.723750114440918,0,0,0.0,0.0,0.0,0.0,0.809665715075035,0.0,0.0,-0.0460544794085967,-0.933200814,0.3948157289999999,9.8632147572,0.0,0.0,0.0,0.0,7,44.82479654947917,-73.1640869140625,-9.8632147572,-0.933200814,0.394815729,0.0,0.0,0.0,-0.027183503002,0.034208453215999995,0.032986722744,0.0,0.0,0.0,-0.52432,-19.0037,-0.50982,0.0,0.0,0.0,-4.9316073786,-0.466600407,0.1974078645,-0.013591751501,0.017104226607999998,0.016493361372,-0.26216,-9.50185,-0.25491,-0.94144,11.29728,3.76576,1.0114285714285711,0.0
183004,0,-1375,-113,64,-65,127,87,-904,-32765,-871,0,0,0,0,0,0,0,0,0,-16,352,224,0.0,0.0,22.61,1.0113200098692328,4449.48779296875,-7309.84521484375,40.29999923706055,11.725000381469728,0,0,0.0,0.0,0.0,0.0,0.779994536820365,0.0,0.0,-0.0659788731041062,-0.8111668613999999,0.4594219391999999,9.870393225,0.0,0.0,0.0,0.0,7,44.82479654947917,-73.1640869140625,-9.870393225,-0.8111668614,0.4594219392,0.0,0.0,0.0,-0.01985312017,0.038789942486,0.026572637766,0.0,0.0,0.0,-0.52432,-19.0037,-0.50518,0.0,0.0,0.0,-4.9351966125,-0.4055834307,0.2297109696,-0.009926560085,0.019394971243,0.013286318883,-0.26216,-9.50185,-0.25259,-0.47072,10.35584,6.59008,1.0113200098692328,0.0
183109,0,-1377,-113,66,-150,119,89,-904,-32765,-871,0,0,0,0,0,0,0,0,0,-80,352,96,0.0,0.0,22.6,1.0113200098692328,4449.48779296875,-7309.84521484375,40.29999923706055,11.725000381469728,0,0,0.0,0.0,0.0,0.0,0.7058491692166301,0.0,0.0,-0.1278971857793452,-0.8111668613999999,0.4737788747999999,9.8847501606,0.0,0.0,0.0,0.0,7,44.82479654947917,-73.1640869140625,-9.884750160600001,-0.8111668614,0.4737788748,0.0,0.0,0.0,-0.0458148927,0.036346481542,0.027183503002,0.0,0.0,0.0,-0.52432,-19.0037,-0.50518,0.0,0.0,0.0,-4.942375080300001,-0.4055834307,0.2368894374,-0.02290744635,0.018173240771,0.013591751501,-0.26216,-9.50185,-0.25259,-2.3536,10.35584,2.82432,1.0113200098692328,0.0
183214,0,-1379,-108,67,-144,108,105,-895,-32765,-853,0,0,0,0,0,0,0,0,0,-48,368,96,0.0,0.0,22.62,1.011339748334567,4449.48779296875,-7309.84521484375,40.29999923706055,11.725000381469728,0,0,0.0,0.0,0.0,0.0,0.7169303689422206,0.0,0.0,-0.0976210420343402,-0.7752745223999999,0.4809573425999999,9.8991070962,0.0,0.0,0.0,0.0,7,44.82479654947917,-73.1640869140625,-9.8991070962,-0.7752745224,0.4809573426,0.0,0.0,0.0,-0.043982296992,0.032986722744,0.03207042489,0.0,0.0,0.0,-0.5191,-19.0037,-0.49474,0.0,0.0,0.0,-4.9495535481,-0.3876372612,0.2404786713,-0.021991148496,0.016493361372,0.016035212445,-0.25955,-9.50185,-0.24737,-1.41216,10.82656,2.82432,1.011339748334567,0.0
183319,0,-1376,-104,128,-98,93,129,-895,-32765,-853,0,0,0,0,0,0,0,0,0,-16,336,192,0.0,0.0,22.62,1.0114581791265729,4449.48779296875,-7309.84521484375,40.29999923706055,11.725000381469728,0,0,0.0,0.0,0.0,0.0,0.7660078051536586,0.0,0.0,-0.032535517629744,-0.7465606511999999,0.9188438784,9.877571692799998,0.0,0.0,0.0,0.0,7,44.82479654947917,-73.1640869140625,-9.8775716928,-0.7465606512,0.9188438784,0.0,0.0,0.0,-0.029932396564,0.028405233473999997,0.039400807722,0.0,0.0,0.0,-0.5191,-19.0037,-0.49474,0.0,0.0,0.0,-4.9387858464,-0.3732803256,0.4594219392,-0.014966198282,0.014202616736999999,0.019700403861,-0.25955,-9.50185,-0.24737,-0.47072,9.88512,5.64864,1.0114581791265729,0.0
183424,0,-1372,-103,83,21,101,116,-909,-32765,-857,0,0,0,0,0,0,0,0,0,-32,384,160,0.0,0.0,22.61,1.0113890944979027,4449.48779296875,-7309.84521484375,40.29999923706055,11.723750114440918,0,0,0.0,0.0,0.0,0.0,0.723341767433157,0.0,0.0,-0.0681946653715482,-0.7393821834,0.5958128274,9.8488578216,0.0,0.0,0.0,0.0,7,44.82479654947917,-73.1640869140625,-9.848857821600001,-0.7393821834000001,0.5958128274000001,0.0,0.0,0.0,0.006414084978,0.030848694418,0.035430183688,0.0,0.0,0.0,-0.52722,-19.0037,-0.49706,0.0,0.0,0.0,-4.924428910800001,-0.36969109170000003,0.29790641370000004,0.003207042489,0.015424347209,0.017715091844,-0.26361,-9.50185,-0.24853,-0.94144,11.29728,4.7072,1.0113890944979027,0.0
183529,0,-1371,-116,75,185,108,106,-909,-32765,-857,0,0,0,0,0,0,0,0,0,-64,336,112,0.0,0.0,22.62,1.01139896373057,4449.48779296875,-7309.84521484375,40.29999923706055,11.72249984741211,0,0,0.0,0.0,0.0,0.0,0.7685574240073424,0.0,0.0,-0.0086355219631114,-0.8327022648,0.5383850849999999,9.8416793538,0.0,0.0,0.0,0.0,7,44.82479654947917,-73.1640869140625,-9.8416793538,-0.8327022648,0.538385085,0.0,0.0,0.0,0.056505034329999995,0.032986722744,0.032375857508,0.0,0.0,0.0,-0.52722,-19.0037,-0.49706,0.0,0.0,0.0,-4.9208396769,-0.4163511324,0.2691925425,0.028252517164999998,0.016493361372,0.016187928754,-0.26361,-9.50185,-0.24853,-1.88288,9.88512,3.29504,1.01139896373057,0.0
183634,0,-1376,-120,58,-172,115,103,-901,-32765,-894,0,0,0,0,0,0,0,0,0,-16,352,144,0.0,0.0,22.62,1.0114187021959042,4449.48779296875,-7309.84521484375,40.29999923706055,11.7212495803833,0,0,0.0,0.0,0.0,0.0,0.739275580377663,0.0,0.0,-0.0348148649027609,-0.8614161359999999,0.4163511324,9.877571692799998,0.0,0.0,0.0,0.0,7,44.82479654947917,-73.1640869140625,-9.8775716928,-0.861416136,0.4163511324,0.0,0.0,0.0,-0.052534410296,0.035124751069999995,0.031459559654,0.0,0.0,0.0,-0.52258,-19.0037,-0.51852,0.0,0.0,0.0,-4.9387858464,-0.430708068,0.2081755662,-0.026267205148,0.017562375534999997,0.015729779827,-0.26129,-9.50185,-0.25926,-0.47072,10.35584,4.23648,1.0114187021959042,0.0
183740,0,-1372,-114,70,-97,109,100,-901,-32765,-894,0,0,0,0,0,0,0,0,0,-32,320,144,0.0,0.0,22.63,1.0114779175919073,4449.48779296875,-7309.84521484375,40.29999923706055,11.731249809265137,0,0,0.0,0.0,0.0,0.0,0.6791228547279863,0.0,0.0,-0.0866631921117704,-0.8183453291999999,0.5024927459999999,9.8488578216,0.0,0.0,0.0,0.0,7,44.82479654947917,-73.1640869140625,-9.848857821600001,-0.8183453292,0.502492746,0.0,0.0,0.0,-0.029626963946,0.033292155361999996,0.0305432618,0.0,0.0,0.0,-0.52258,-19.0037,-0.51852,0.0,0.0,0.0,-4.924428910800001,-0.4091726646,0.251246373,-0.014813481973,0.016646077680999998,0.0152716309,-0.26129,-9.50185,-0.25926,-0.94144,9.4144,4.23648,1.0114779175919073,0.0
183844,0,-1373,-113,59,-39,97,101,-899,-32765,-869,0,0,0,0,0,0,0,0,0,-80,352,144,0.0,0.0,22.62,1.01146804835924,4449.48779296875,-7309.84521484375,40.29999923706055,11.72249984741211,0,0,0.0,0.0,0.0,0.0,0.6819823204741683,0.0,0.0,-0.0702404316578656,-0.8111668613999999,0.4235296001999999,9.8560362894,0.0,0.0,0.0,0.0,7,44.82479654947917,-73.1640869140625,-9.8560362894,-0.8111668614,0.4235296002,0.0,0.0,0.0,-0.011911872102,0.029626963946,0.030848694418,0.0,0.0,0.0,-0.52142,-19.0037,-0.50402,0.0,0.0,0.0,-4.9280181447,-0.4055834307,0.2117648001,-0.005955936051,0.014813481973,0.015424347209,-0.26071,-9.50185,-0.25201,-2.3536,10.35584,4.23648,1.01146804835924,0.0
183949,0,-1377,-108,66,-32,99,93,-899,-32765,-869,0,0,0,0,0,0,0,0,0,-96,384,176,0.0,0.0,22.62,1.01146804835924,4449.48779296875,-7309.84521484375,40.29999923706055,11.7212495803833,0,0,0.0,0.0,0.0,0.0,0.63747879653926,0.0,0.0,-0.1031429411268696,-0.7752745223999999,0.4737788747999999,9.8847501606,0.0,0.0,0.0,0.0,7,44.82479654947917,-73.1640869140625,-9.884750160600001,-0.7752745224,0.4737788748,0.0,0.0,0.0,-0.009773843776,0.030237829182,0.028405233473999997,0.0,0.0,0.0,-0.52142,-19.0037,-0.50402,0.0,0.0,0.0,-4.942375080300001,-0.3876372612,0.2368894374,-0.004886921888,0.015118914591,0.014202616736999999,-0.26071,-9.50185,-0.25201,-2.82432,11.29728,5.17792,1.01146804835924,0.0
184054,0,-1376,-112,66,-69,101,114,-902,-32765,-874,0,0,0,0,0,0,0,0,0,-32,384,144,0.0,0.0,22.63,1.0114285714285711,4449.48779296875,-7309.84521484375,40.29999923706055,11.723750114440918,0,0,0.0,0.0,0.0,0.0,0.5941270078317613,0.0,0.0,-0.13160548824846,-0.8039883936,0.4737788747999999,9.877571692799998,0.0,0.0,0.0,0.0,7,44.82479654947917,-73.1640869140625,-9.8775716928,-0.8039883936000001,0.4737788748,0.0,0.0,0.0,-0.021074850641999997,0.030848694418,0.034819318451999995,0.0,0.0,0.0,-0.52316,-19.0037,-0.50692,0.0,0.0,0.0,-4.9387858464,-0.40199419680000004,0.2368894374,-0.010537425320999999,0.015424347209,0.017409659225999997,-0.26158,-9.50185,-0.25346,-0.94144,11.29728,4.23648,1.0114285714285711,0.0
184159,0,-1377,-113,73,-12,106,113,-902,-32765,-874,0,0,0,0,0,0,0,0,0,-80,304,176,0.0,0.0,22.63,1.011438440661239,4449.48779296875,-7309.84521484375,40.29999923706055,11.725000381469728,0,0,0.0,0.0,0.0,0.0,0.6212006731708763,0.0,0.0,-0.0812454129015768,-0.8111668613999999,0.5240281494,9.8847501606,0.0,0.0,0.0,0.0,7,44.82479654947917,-73.1640869140625,-9.884750160600001,-0.8111668614,0.5240281494,0.0,0.0,0.0,-0.003665191416,0.032375857508,0.034513885833999995,0.0,0.0,0.0,-0.52316,-19.0037,-0.50692,0.0,0.0,0.0,-4.942375080300001,-0.4055834307,0.2620140747,-0.001832595708,0.016187928754,0.017256942916999998,-0.26158,-9.50185,-0.25346,-2.3536,8.94368,5.17792,1.011438440661239,0.0
184264,0,-1379,-118,60,4,97,119,-902,-32765,-877,0,0,0,0,0,0,0,0,0,-48,336,192,0.0,0.0,22.63,1.0113792252652356,4449.48779296875,-7309.84521484375,40.29999923706055,11.723750114440918,0,0,0.0,0.0,0.0,0.0,0.6440859148270265,0.0,0.0,-0.0413337663615759,-0.8470592003999999,0.4307080679999999,9.8991070962,0.0,0.0,0.0,0.0,7,44.82479654947917,-73.1640869140625,-9.8991070962,-0.8470592004,0.430708068,0.0,0.0,0.0,0.001221730472,0.029626963946,0.036346481542,0.0,0.0,0.0,-0.52316,-19.0037,-0.50866,0.0,0.0,0.0,-4.9495535481,-0.4235296002,0.215354034,0.000610865236,0.014813481973,0.018173240771,-0.26158,-9.50185,-0.25433,-1.41216,9.88512,5.64864,1.0113792252652356,0.0
184369,0,-1376,-120,67,-28,102,119,-902,-32765,-877,0,0,0,0,0,0,0,0,0,-64,384,192,0.0,0.0,22.64,1.0113298791019,4449.48779296875,-7309.84521484375,40.29999923706055,11.723750114440918,0,0,0.0,0.0,0.0,0.0,0.7307635276484652,0.0,0.0,0.0596404184441337,-0.8614161359999999,0.4809573425999999,9.877571692799998,0.0,0.0,0.0,0.0,7,44.82479654947917,-73.1640869140625,-9.8775716928,-0.861416136,0.4809573426,0.0,0.0,0.0,-0.008552113303999999,0.031154127036,0.036346481542,0.0,0.0,0.0,-0.52316,-19.0037,-0.50866,0.0,0.0,0.0,-4.9387858464,-0.430708068,0.2404786713,-0.004276056651999999,0.015577063518,0.018173240771,-0.26158,-9.50185,-0.25433,-1.88288,11.29728,5.64864,1.0113298791019,0.0
184474,0,-1377,-115,61,-67,108,106,-908,-32765,-832,0,0,0,0,0,0,0,0,0,-32,432,96,0.0,0.0,22.64,1.0113298791019,4449.48779296875,-7309.84521484375,40.29999923706055,11.723750114440918,0,0,0.0,0.0,0.0,0.0,0.7493339254507166,0.0,0.0,0.07864920343971,-0.8255237969999999,0.4378865358,9.8847501606,0.0,0.0,0.0,0.0,7,44.82479654947917,-73.1640869140625,-9.884750160600001,-0.825523797,0.43788653580000003,0.0,0.0,0.0,-0.020463985405999998,0.032986722744,0.032375857508,0.0,0.0,0.0,-0.52664,-19.0037,-0.48256,0.0,0.0,0.0,-4.942375080300001,-0.4127618985,0.21894326790000002,-0.010231992702999999,0.016493361372,0.016187928754,-0.26332,-9.50185,-0.24128,-0.94144,12.70944,2.82432,1.0113298791019,0.0
184579,0,-1378,-111,64,-86,114,98,-908,-32765,-832,0,0,0,0,0,0,0,0,0,-16,384,128,0.0,0.0,22.64,1.01139896373057,4449.48779296875,-7309.84521484375,40.29999923706055,11.7212495803833,0,0,0.0,0.0,0.0,0.0,0.7226318569292265,0.0,0.0,0.0470872469708787,-0.7968099258,0.4594219391999999,9.8919286284,0.0,0.0,0.0,0.0,7,44.82479654947917,-73.1640869140625,-9.8919286284,-0.7968099258,0.4594219392,0.0,0.0,0.0,-0.026267205148,0.034819318451999995,0.029932396564,0.0,0.0,0.0,-0.52664,-19.0037,-0.48256,0.0,0.0,0.0,-4.9459643142,-0.3984049629,0.2297109696,-0.013133602574,0.017409659225999997,0.014966198282,-0.26332,-9.50185,-0.24128,-0.47072,11.29728,3.76576,1.01139896373057,0.0
184685,0,-1370,-112,67,-49,106,106,-882,-32765,-890,0,0,0,0,0,0,0,0,0,32,304,144,0.0,0.0,22.64,1.011339748334567,4449.48779296875,-7309.84521484375,40.29999923706055,11.732500076293944,0,0,0.0,0.0,0.0,0.0,0.7395262249941648,0.0,0.0,0.0664435926996792,-0.8039883936,0.4809573425999999,9.834500886,0.0,0.0,0.0,0.0,7,44.82479654947917,-73.1640869140625,-9.834500886,-0.8039883936000001,0.4809573426,0.0,0.0,0.0,-0.014966198282,0.032375857508,0.032375857508,0.0,0.0,0.0,-0.51156,-19.0037,-0.5162,0.0,0.0,0.0,-4.917250443,-0.40199419680000004,0.2404786713,-0.007483099141,0.016187928754,0.016187928754,-0.25578,-9.50185,-0.2581,0.94144,8.94368,4.23648,1.011339748334567,0.0
184789,0,-1372,-105,71,-46,97,115,-882,-32765,-890,0,0,0,0,0,0,0,0,0,-64,368,128,0.0,0.0,22.65,1.0114187021959042,4449.48779296875,-7309.84521484375,40.29999923706055,11.7212495803833,0,0,0.0,0.0,0.0,0.0,0.6673365461431636,0.0,0.0,-0.0097505882909591,-0.7537391189999999,0.5096712137999999,9.8488578216,0.0,0.0,0.0,0.0,7,44.82479654947917,-73.1640869140625,-9.848857821600001,-0.753739119,0.5096712138,0.0,0.0,0.0,-0.014049900427999999,0.029626963946,0.035124751069999995,0.0,0.0,0.0,-0.51156,-19.0037,-0.5162,0.0,0.0,0.0,-4.924428910800001,-0.3768695595,0.2548356069,-0.0070249502139999994,0.014813481973,0.017562375534999997,-0.25578,-9.50185,-0.2581,-1.88288,10.82656,3.76576,1.0114187021959042,0.0
184894,0,-1376,-111,61,-86,105,120,-882,-32765,-828,0,0,0,0,0,0,0,0,0,-16,384,160,0.0,0.0,22.65,1.0113594867999014,4449.48779296875,-7309.84521484375,40.29999923706055,11.72249984741211,0,0,0.0,0.0,0.0,0.0,0.6097197540924931,0.0,0.0,-0.0610805373243312,-0.7968099258,0.4378865358,9.877571692799998,0.0,0.0,0.0,0.0,7,44.82479654947917,-73.1640869140625,-9.8775716928,-0.7968099258,0.43788653580000003,0.0,0.0,0.0,-0.026267205148,0.03207042489,0.03665191416,0.0,0.0,0.0,-0.51156,-19.0037,-0.48024,0.0,0.0,0.0,-4.9387858464,-0.3984049629,0.21894326790000002,-0.013133602574,0.016035212445,0.01832595708,-0.25578,-9.50185,-0.24012,-0.47072,11.29728,4.7072,1.0113594867999014,0.0
184999,0,-1377,-118,71,-30,109,116,-882,-32765,-828,0,0,0,0,0,0,0,0,0,-80,304,224,0.0,0.0,22.65,1.0113594867999014,4449.48779296875,-7309.84521484375,40.29999923706055,11.723750114440918,0,0,0.0,0.0,0.0,0.0,0.6445363511734947,0.0,0.0,-0.0127472279223707,-0.8470592003999999,0.5096712137999999,9.8847501606,0.0,0.0,0.0,0.0,7,44.82479654947917,-73.1640869140625,-9.884750160600001,-0.8470592004,0.5096712138,0.0,0.0,0.0,-0.00916297854,0.033292155361999996,0.035430183688,0.0,0.0,0.0,-0.51156,-19.0037,-0.48024,0.0,0.0,0.0,-4.942375080300001,-0.4235296002,0.2548356069,-0.00458148927,0.016646077680999998,0.017715091844,-0.25578,-9.50185,-0.24012,-2.3536,8.94368,6.59008,1.0113594867999014,0.0
185104,0,-1376,-117,62,-4,103,114,-902,-32765,-908,0,0,0,0,0,0,0,0,0,-32,336,144,0.0,0.0,22.66,1.011438440661239,4449.48779296875,-7309.84521484375,40.29999923706055,11.723750114440918,0,0,0.0,0.0,0.0,0.0,0.6617020629338783,0.0,0.0,0.0139766905601699,-0.8398807326,0.4450650035999999,9.877571692799998,0.0,0.0,0.0,0.0,7,44.82479654947917,-73.1640869140625,-9.8775716928,-0.8398807326000001,0.4450650036,0.0,0.0,0.0,-0.001221730472,0.031459559654,0.034819318451999995,0.0,0.0,0.0,-0.52316,-19.0037,-0.52664,0.0,0.0,0.0,-4.9387858464,-0.41994036630000003,0.2225325018,-0.000610865236,0.015729779827,0.017409659225999997,-0.26158,-9.50185,-0.26332,-0.94144,9.88512,4.23648,1.011438440661239,0.0
185209,0,-1379,-116,64,-30,106,104,-902,-32765,-908,0,0,0,0,0,0,0,0,0,-32,416,112,0.0,0.0,22.66,1.0114285714285711,4449.48779296875,-7309.84521484375,40.29999923706055,11.723750114440918,0,0,0.0,0.0,0.0,0.0,0.6950805848236252,0.0,0.0,0.0494803905732078,-0.8327022648,0.4594219391999999,9.8991070962,0.0,0.0,0.0,0.0,7,44.82479654947917,-73.1640869140625,-9.8991070962,-0.8327022648,0.4594219392,0.0,0.0,0.0,-0.00916297854,0.032375857508,0.031764992272,0.0,0.0,0.0,-0.52316,-19.0037,-0.52664,0.0,0.0,0.0,-4.9495535481,-0.4163511324,0.2297109696,-0.00458148927,0.016187928754,0.015882496136,-0.26158,-9.50185,-0.26332,-0.94144,12.23872,3.29504,1.0114285714285711,0.0
185314,0,-1376,-114,67,-121,102,102,-899,-32765,-860,0,0,0,0,0,0,0,0,0,-80,336,144,0.0,0.0,22.66,1.0114877868245744,4449.48779296875,-7309.84521484375,40.29999923706055,11.725000381469728,0,0,0.0,0.0,0.0,0.0,0.6709967681154725,0.0,0.0,0.0262024298517484,-0.8183453291999999,0.4809573425999999,9.877571692799998,0.0,0.0,0.0,0.0,7,44.82479654947917,-73.1640869140625,-9.8775716928,-0.8183453292,0.4809573426,0.0,0.0,0.0,-0.036957346778,0.031154127036,0.031154127036,0.0,0.0,0.0,-0.52142,-19.0037,-0.4988,0.0,0.0,0.0,-4.9387858464,-0.4091726646,0.2404786713,-0.018478673389,0.015577063518,0.015577063518,-0.26071,-9.50185,-0.2494,-2.3536,9.88512,4.23648,1.0114877868245744,0.0
185419,0,-1377,-117,66,-128,108,102,-916,-32765,-856,0,0,0,0,0,0,0,0,0,-80,272,192,0.0,0.0,22.66,1.0113792252652356,4449.48779296875,-7309.84521484375,40.29999923706055,11.723750114440918,0,0,0.0,0.0,0.0,0.0,0.6517090755808471,0.0,0.0,0.0081005329430354,-0.8398807326,0.4737788747999999,9.8847501606,0.0,0.0,0.0,0.0,7,44.82479654947917,-73.1640869140625,-9.884750160600001,-0.8398807326000001,0.4737788748,0.0,0.0,0.0,-0.039095375104,0.032986722744,0.031154127036,0.0,0.0,0.0,-0.53128,-19.0037,-0.49648,0.0,0.0,0.0,-4.942375080300001,-0.41994036630000003,0.2368894374,-0.019547687552,0.016493361372,0.015577063518,-0.26564,-9.50185,-0.24824,-2.3536,8.00224,5.64864,1.0113792252652356,0.0
185525,0,-1377,-109,72,-105,104,110,-916,-32765,-856,0,0,0,0,0,0,0,0,0,-16,320,176,0.0,0.0,22.66,1.0113890944979027,4449.48779296875,-7309.84521484375,40.29999923706055,11.733750343322754,0,0,0.0,0.0,0.0,0.0,0.6287571032566638,0.0,0.0,-0.0079093681196086,-0.7824529901999999,0.5168496816,9.8847501606,0.0,0.0,0.0,0.0,7,44.82479654947917,-73.1640869140625,-9.884750160600001,-0.7824529902,0.5168496816,0.0,0.0,0.0,-0.03207042489,0.031764992272,0.033597587979999996,0.0,0.0,0.0,-0.53128,-19.0037,-0.49648,0.0,0.0,0.0,-4.942375080300001,-0.3912264951,0.2584248408,-0.016035212445,0.015882496136,0.016798793989999998,-0.26564,-9.50185,-0.24824,-0.47072,9.4144,5.17792,1.0113890944979027,0.0
185629,0,-1376,-107,80,-71,110,117,-907,-32765,-851,0,0,0,0,0,0,0,0,0,-32,384,160,0.0,0.0,22.67,1.011339748334567,4449.48779296875,-7309.84521484375,40.29999923706055,11.7212495803833,0,0,0.0,0.0,0.0,0.0,0.6045966451757387,0.0,0.0,-0.0231500122147308,-0.7680960546,0.5742774239999999,9.877571692799998,0.0,0.0,0.0,0.0,7,44.82479654947917,-73.1640869140625,-9.8775716928,-0.7680960546000001,0.574277424,0.0,0.0,0.0,-0.021685715878,0.033597587979999996,0.035735616306,0.0,0.0,0.0,-0.52606,-19.0037,-0.49358,0.0,0.0,0.0,-4.9387858464,-0.38404802730000004,0.287138712,-0.010842857939,0.016798793989999998,0.017867808153,-0.26303,-9.50185,-0.24679,-0.94144,11.29728,4.7072,1.011339748334567,0.0
185734,0,-1376,-109,70,14,121,118,-907,-32765,-851,0,0,0,0,0,0,0,0,0,-96,304,128,0.0,0.0,22.67,1.0113594867999014,4449.48779296875,-7309.84521484375,40.29999923706055,11.72249984741211,0,0,0.0,0.0,0.0,0.0,0.5983118121306328,0.0,0.0,-0.0205237893031732,-0.7824529901999999,0.5024927459999999,9.877571692799998,0.0,0.0,0.0,0.0,7,44.82479654947917,-73.1640869140625,-9.8775716928,-0.7824529902,0.502492746,0.0,0.0,0.0,0.004276056651999999,0.036957346778,0.036041048924,0.0,0.0,0.0,-0.52606,-19.0037,-0.49358,0.0,0.0,0.0,-4.9387858464,-0.3912264951,0.251246373,0.0021380283259999997,0.018478673389,0.018020524462,-0.26303,-9.50185,-0.24679,-2.82432,8.94368,3.76576,1.0113594867999014,0.0
185839,0,-1367,-126,64,-22,107,124,-914,-32765,-825,0,0,0,0,0,0,0,0,0,-64,352,160,0.0,0.0,22.67,1.01139896373057,4449.48779296875,-7309.84521484375,40.400001525878906,11.7212495803833,0,0,0.0,0.0,0.0,0.0,0.6364738884974032,0.0,0.0,0.0274866145228439,-0.9044869428,0.4594219391999999,9.8129654826,0.0,0.0,0.0,0.0,7,44.82479654947917,-73.1640869140625,-9.812965482600001,-0.9044869428000001,0.4594219392,0.0,0.0,0.0,-0.006719517596,0.032681290126,0.037873644632,0.0,0.0,0.0,-0.53012,-19.0037,-0.4785,0.0,0.0,0.0,-4.9064827413000005,-0.45224347140000004,0.2297109696,-0.003359758798,0.016340645063,0.018936822316,-0.26506,-9.50185,-0.23925,-1.88288,10.35584,4.7072,1.01139896373057,0.0
185944,0,-1375,-109,61,-83,104,115,-914,-32765,-825,0,0,0,0,0,0,0,0,0,-32,368,208,0.0,0.0,22.68,1.0114187021959042,4449.48779296875,-7309.84521484375,40.400001525878906,11.72249984741211,0,0,0.0,0.0,0.0,0.0,0.6183082551706096,0.0,0.0,0.012074541474227,-0.7824529901999999,0.4378865358,9.870393225,0.0,0.0,0.0,0.0,7,44.82479654947917,-73.1640869140625,-9.870393225,-0.7824529902,0.43788653580000003,0.0,0.0,0.0,-0.025350907293999997,0.031764992272,0.035124751069999995,0.0,0.0,0.0,-0.53012,-19.0037,-0.4785,0.0,0.0,0.0,-4.9351966125,-0.3912264951,0.21894326790000002,-0.012675453646999998,0.015882496136,0.017562375534999997,-0.26506,-9.50185,-0.23925,-0.94144,10.82656,6.11936,1.0114187021959042,0.0
186049,0,-1373,-119,76,-69,104,107,-894,-32765,-879,0,0,0,0,0,0,0,0,0,-32,384,160,0.0,0.0,22.68,1.0114187021959042,4449.48779296875,-7309.84521484375,40.400001525878906,11.72249984741211,0,0,0.0,0.0,0.0,0.0,0.652156769909518,0.0,0.0,0.0519635079361969,-0.8542376681999999,0.5455635527999999,9.8560362894,0.0,0.0,0.0,0.0,7,44.82479654947917,-73.1640869140625,-9.8560362894,-0.8542376682,0.5455635528,0.0,0.0,0.0,-0.021074850641999997,0.031764992272,0.032681290126,0.0,0.0,0.0,-0.51852,-19.0037,-0.50982,0.0,0.0,0.0,-4.9280181447,-0.4271188341,0.2727817764,-0.010537425320999999,0.015882496136,0.016340645063,-0.25926,-9.50185,-0.25491,-0.94144,11.29728,4.7072,1.0114187021959042,0.0
186154,0,-1378,-114,68,-55,105,102,-894,-32765,-879,0,0,0,0,0,0,0,0,0,-32,416,256,0.0,0.0,22.67,1.01146804835924,4449.48779296875,-7309.84521484375,40.400001525878906,11.72249984741211,0,0,0.0,0.0,0.0,0.0,0.6350249466213623,0.0,0.0,0.0310260726673725,-0.8183453291999999,0.4881358104,9.8919286284,0.0,0.0,0.0,0.0,7,44.82479654947917,-73.1640869140625,-9.8919286284,-0.8183453292,0.48813581040000004,0.0,0.0,0.0,-0.016798793989999998,0.03207042489,0.031154127036,0.0,0.0,0.0,-0.51852,-19.0037,-0.50982,0.0,0.0,0.0,-4.9459643142,-0.4091726646,0.24406790520000002,-0.008399396994999999,0.016035212445,0.015577063518,-0.25926,-9.50185,-0.25491,-0.94144,12.23872,7.53152,1.01146804835924,0.0
186259,0,-1376,-112,63,-66,107,104,-917,-32765,-837,0,0,0,0,0,0,0,0,0,-80,384,192,0.0,0.0,22.68,1.01153713298791,4449.48779296875,-7309.84521484375,40.400001525878906,11.72249984741211,0,0,0.0,0.0,0.0,0.0,0.6142603383113835,0.0,0.0,0.0083065132197996,-0.8039883936,0.4522434714,9.877571692799998,0.0,0.0,0.0,0.0,7,44.82479654947917,-73.1640869140625,-9.8775716928,-0.8039883936000001,0.45224347140000004,0.0,0.0,0.0,-0.020158552788,0.032681290126,0.031764992272,0.0,0.0,0.0,-0.53186,-19.0037,-0.48546,0.0,0.0,0.0,-4.9387858464,-0.40199419680000004,0.22612173570000002,-0.010079276394,0.016340645063,0.015882496136,-0.26593,-9.50185,-0.24273,-2.3536,11.29728,5.64864,1.01153713298791,0.0
186364,0,-1374,-102,67,-78,112,111,-917,-32765,-837,0,0,0,0,0,0,0,0,0,-16,368,192,0.0,0.0,22.68,1.0114285714285711,4449.48779296875,-7309.84521484375,40.400001525878906,11.72249984741211,0,0,0.0,0.0,0.0,0.0,0.6209705317687282,0.0,0.0,0.0215838405291921,-0.7322037156,0.4809573425999999,9.8632147572,0.0,0.0,0.0,0.0,7,44.82479654947917,-73.1640869140625,-9.8632147572,-0.7322037156000001,0.4809573426,0.0,0.0,0.0,-0.023823744204,0.034208453215999995,0.033903020597999996,0.0,0.0,0.0,-0.53186,-19.0037,-0.48546,0.0,0.0,0.0,-4.9316073786,-0.36610185780000004,0.2404786713,-0.011911872102,0.017104226607999998,0.016951510298999998,-0.26593,-9.50185,-0.24273,-0.47072,10.82656,5.64864,1.0114285714285711,0.0
186469,0,-1375,-106,61,-93,102,117,-923,-32765,-833,0,0,0,0,0,0,0,0,0,-64,416,80,0.0,0.0,22.69,1.0113890944979027,4449.48779296875,-7309.84521484375,40.400001525878906,11.72249984741211,0,0,0.0,0.0,0.0,0.0,0.5468520137529035,0.0,0.0,-0.0495409745461727,-0.7609175868,0.4378865358,9.870393225,0.0,0.0,0.0,0.0,7,44.82479654947917,-73.1640869140625,-9.870393225,-0.7609175868,0.43788653580000003,0.0,0.0,0.0,-0.028405233473999997,0.031154127036,0.035735616306,0.0,0.0,0.0,-0.53534,-19.0037,-0.48314,0.0,0.0,0.0,-4.9351966125,-0.3804587934,0.21894326790000002,-0.014202616736999999,0.015577063518,0.017867808153,-0.26767,-9.50185,-0.24157,-1.88288,12.23872,2.3536,1.0113890944979027,0.0
186574,0,-1377,-110,64,-67,107,111,-923,-32765,-833,0,0,0,0,0,0,0,0,0,-80,416,144,0.0,0.0,22.69,1.011339748334567,4449.48779296875,-7309.84521484375,40.400001525878906,11.720000267028809,0,0,0.0,0.0,0.0,0.0,0.5404672958142869,0.0,0.0,-0.0413977146569818,-0.7896314579999999,0.4594219391999999,9.8847501606,0.0,0.0,0.0,0.0,7,44.82479654947917,-73.1640869140625,-9.884750160600001,-0.789631458,0.4594219392,0.0,0.0,0.0,-0.020463985405999998,0.032681290126,0.033903020597999996,0.0,0.0,0.0,-0.53534,-19.0037,-0.48314,0.0,0.0,0.0,-4.942375080300001,-0.394815729,0.2297109696,-0.010231992702999999,0.016340645063,0.016951510298999998,-0.26767,-9.50185,-0.24157,-2.3536,12.23872,4.23648,1.011339748334567,0.0
186681,0,-1375,-115,68,-9,109,111,-913,-32765,-886,0,0,0,0,0,0,0,0,0,-48,368,160,0.0,0.0,22.69,1.0113298791019,4449.48779296875,-7309.84521484375,40.400001525878906,11.72249984741211,0,0,0.0,0.0,0.0,0.0,0.5854966428763817,0.0,0.0,0.0187503866008495,-0.8255237969999999,0.4881358104,9.870393225,0.0,0.0,0.0,0.0,7,44.82479654947917,-73.1640869140625,-9.870393225,-0.825523797,0.48813581040000004,0.0,0.0,0.0,-0.002748893562,0.033292155361999996,0.033903020597999996,0.0,0.0,0.0,-0.52954,-19.0037,-0.51388,0.0,0.0,0.0,-4.9351966125,-0.4127618985,0.24406790520000002,-0.001374446781,0.016646077680999998,0.016951510298999998,-0.26477,-9.50185,-0.25694,-1.41216,10.82656,4.7072,1.0113298791019,0.0
186784,0,-1371,-112,70,-26,103,109,-913,-32765,-886,0,0,0,0,0,0,0,0,0,-32,368,160,0.0,0.0,22.7,1.01139896373057,4449.48779296875,-7309.84521484375,40.400001525878906,11.720000267028809,0,0,0.0,0.0,0.0,0.0,0.5408789071238356,0.0,0.0,-0.0243636037189688,-0.8039883936,0.5024927459999999,9.8416793538,0.0,0.0,0.0,0.0,7,44.82479654947917,-73.1640869140625,-9.8416793538,-0.8039883936000001,0.502492746,0.0,0.0,0.0,-0.007941248068,0.031459559654,0.033292155361999996,0.0,0.0,0.0,-0.52954,-19.0037,-0.51388,0.0,0.0,0.0,-4.9208396769,-0.40199419680000004,0.251246373,-0.003970624034,0.015729779827,0.016646077680999998,-0.26477,-9.50185,-0.25694,-0.94144,10.82656,4.7072,1.01139896373057,0.0
186889,0,-1377,-104,74,-64,104,103,-911,-32765,-859,0,0,0,0,0,0,0,0,0,0,368,224,0.0,0.0,22.7,1.0112904021712312,4449.48779296875,-7309.84521484375,40.400001525878906,11.72249984741211,0,0,0.0,0.0,0.0,0.0,0.5631279709541382,0.0,0.0,0.0100103286903492,-0.7465606511999999,0.5312066172,9.8847501606,0.0,0.0,0.0,0.0,7,44.82479654947917,-73.1640869140625,-9.884750160600001,-0.7465606512,0.5312066172000001,0.0,0.0,0.0,-0.019547687552,0.031764992272,0.031459559654,0.0,0.0,0.0,-0.52838,-19.0037,-0.49822,0.0,0.0,0.0,-4.942375080300001,-0.3732803256,0.26560330860000003,-0.009773843776,0.015882496136,0.015729779827,-0.26419,-9.50185,-0.24911,0.0,10.82656,6.59008,1.0112904021712312,0.0
186994,0,-1377,-113,70,-31,106,98,-911,-32765,-859,0,0,0,0,0,0,0,0,0,16,352,160,0.0,0.0,22.7,1.0114088329632371,4449.48779296875,-7309.84521484375,40.400001525878906,11.723750114440918,0,0,0.0,0.0,0.0,0.0,0.5397252472226921,0.0,0.0,-0.0090138780734472,-0.8111668613999999,0.5024927459999999,9.8847501606,0.0,0.0,0.0,0.0,7,44.82479654947917,-73.1640869140625,-9.884750160600001,-0.8111668614,0.502492746,0.0,0.0,0.0,-0.009468411158,0.032375857508,0.029932396564,0.0,0.0,0.0,-0.52838,-19.0037,-0.49822,0.0,0.0,0.0,-4.942375080300001,-0.4055834307,0.251246373,-0.004734205579,0.016187928754,0.014966198282,-0.26419,-9.50185,-0.24911,0.47072,10.35584,4.7072,1.0114088329632371,0.0
187099,0,-1376,-119,62,-37,113,102,-902,-32765,-865,0,0,0,0,0,0,0,0,0,-16,304,192,0.0,0.0,22.7,1.0113594867999014,4449.48779296875,-7309.84521484375,40.400001525878906,11.723750114440918,0,0,0.0,0.0,0.0,0.0,0.6499922255274294,0.0,0.0,0.1120752960821957,-0.8542376681999999,0.4450650035999999,9.877571692799998,0.0,0.0,0.0,0.0,7,44.82479654947917,-73.1640869140625,-9.8775716928,-0.8542376682,0.4450650036,0.0,0.0,0.0,-0.011301006866,0.034513885833999995,0.031154127036,0.0,0.0,0.0,-0.52316,-19.0037,-0.5017,0.0,0.0,0.0,-4.9387858464,-0.4271188341,0.2225325018,-0.005650503433,0.017256942916999998,0.015577063518,-0.26158,-9.50185,-0.25085,-0.47072,8.94368,5.64864,1.0113594867999014,0.0
187204,0,-1378,-122,88,-273,115,100,-902,-32765,-865,0,0,0,0,0,0,0,0,0,-48,352,144,0.0,0.0,22.7,1.0114187021959042,4449.48779296875,-7309.84521484375,40.400001525878906,11.72249984741211,0,0,0.0,0.0,0.0,0.0,0.6741840132529369,0.0,0.0,0.1302665563371864,-0.8757730716,0.6317051664,9.8919286284,0.0,0.0,0.0,0.0,7,44.82479654947917,-73.1640869140625,-9.8919286284,-0.8757730716000001,0.6317051664000001,0.0,0.0,0.0,-0.083383104714,0.035124751069999995,0.0305432618,0.0,0.0,0.0,-0.52316,-19.0037,-0.5017,0.0,0.0,0.0,-4.9459643142,-0.43788653580000003,0.31585258320000004,-0.041691552357,0.017562375534999997,0.0152716309,-0.26158,-9.50185,-0.25085,-1.41216,10.35584,4.23648,1.0114187021959042,0.0
187309,0,-1380,-116,58,-350,103,102,-913,-32765,-913,0,0,0,0,0,0,0,0,0,-32,416,160,0.0,0.0,22.71,1.0113693560325685,4449.48779296875,-7309.84521484375,40.400001525878906,11.7212495803833,0,0,0.0,0.0,0.0,0.0,0.6403161524564368,0.0,0.0,0.0888955231877755,-0.8327022648,0.4163511324,9.906285564,0.0,0.0,0.0,0.0,7,44.82479654947917,-73.1640869140625,-9.906285564000001,-0.8327022648,0.4163511324,0.0,0.0,0.0,-0.1069014163,0.031459559654,0.031154127036,0.0,0.0,0.0,-0.52954,-19.0037,-0.52954,0.0,0.0,0.0,-4.9531427820000005,-0.4163511324,0.2081755662,-0.05345070815,0.015729779827,0.015577063518,-0.26477,-9.50185,-0.26477,-0.94144,12.23872,4.7072,1.0113693560325685,0.0
187414,0,-1377,-111,68,-344,122,106,-913,-32765,-913,0,0,0,0,0,0,0,0,0,-64,368,208,0.0,0.0,22.71,1.0114877868245744,4449.48779296875,-7309.84521484375,40.400001525878906,11.72249984741211,0,0,0.0,0.0,0.0,0.0,0.6177844236750023,0.0,0.0,0.0619621215426461,-0.7968099258,0.4881358104,9.8847501606,0.0,0.0,0.0,0.0,7,44.82479654947917,-73.1640869140625,-9.884750160600001,-0.7968099258,0.48813581040000004,0.0,0.0,0.0,-0.105068820592,0.037262779396,0.032375857508,0.0,0.0,0.0,-0.52954,-19.0037,-0.52954,0.0,0.0,0.0,-4.942375080300001,-0.3984049629,0.24406790520000002,-0.052534410296,0.018631389698,0.016187928754,-0.26477,-9.50185,-0.26477,-1.88288,10.82656,6.11936,1.0114877868245744,0.0
187519,0,-1380,-108,85,-306,107,106,-909,-32765,-920,0,0,0,0,0,0,0,0,0,-32,384,256,0.0,0.0,22.72,1.0113890944979027,4449.48779296875,-7309.84521484375,40.400001525878906,11.72249984741211,0,0,0.0,0.0,0.0,0.0,0.6694694221675197,0.0,0.0,0.1142754706103383,-0.7752745223999999,0.6101697629999999,9.906285564,0.0,0.0,0.0,0.0,7,44.82479654947917,-73.1640869140625,-9.906285564000001,-0.7752745224,0.610169763,0.0,0.0,0.0,-0.093462381108,0.032681290126,0.032375857508,0.0,0.0,0.0,-0.52722,-19.0037,-0.5336,0.0,0.0,0.0,-4.9531427820000005,-0.3876372612,0.3050848815,-0.046731190554,0.016340645063,0.016187928754,-0.26361,-9.50185,-0.2668,-0.94144,11.29728,7.53152,1.0113890944979027,0.0
187625,0,-1378,-100,74,136,95,113,-909,-32765,-920,0,0,0,0,0,0,0,0,0,-48,416,176,0.0,0.0,22.71,1.0113792252652356,4449.48779296875,-7309.84521484375,40.400001525878906,11.731249809265137,0,0,0.0,0.0,0.0,0.0,0.6616748988379063,0.0,0.0,0.1008053872379783,-0.7178467799999999,0.5312066172,9.8919286284,0.0,0.0,0.0,0.0,7,44.82479654947917,-73.1640869140625,-9.8919286284,-0.71784678,0.5312066172000001,0.0,0.0,0.0,0.041538836047999995,0.029016098709999997,0.034513885833999995,0.0,0.0,0.0,-0.52722,-19.0037,-0.5336,0.0,0.0,0.0,-4.9459643142,-0.35892339,0.26560330860000003,0.020769418023999998,0.014508049354999998,0.017256942916999998,-0.26361,-9.50185,-0.2668,-1.41216,12.23872,5.17792,1.0113792252652356,0.0
187729,0,-1376,-101,45,15,101,106,-905,-32765,-893,0,0,0,0,0,0,0,0,0,-96,352,176,0.0,0.0,22.72,1.0115075252899086,4449.48779296875,-7309.84521484375,40.400001525878906,11.720000267028809,0,0,0.0,0.0,0.0,0.0,0.6742303728819159,0.0,0.0,0.1068877680736569,-0.7250252478,0.3230310509999999,9.877571692799998,0.0,0.0,0.0,0.0,7,44.82479654947917,-73.1640869140625,-9.8775716928,-0.7250252478,0.323031051,0.0,0.0,0.0,0.00458148927,0.030848694418,0.032375857508,0.0,0.0,0.0,-0.5249,-19.0037,-0.51794,0.0,0.0,0.0,-4.9387858464,-0.3625126239,0.1615155255,0.002290744635,0.015424347209,0.016187928754,-0.26245,-9.50185,-0.25897,-2.82432,10.35584,5.17792,1.0115075252899086,0.0
187834,0,-1376,-115,63,-119,104,109,-905,-32765,-893,0,0,0,0,0,0,0,0,0,-48,352,160,0.0,0.0,22.72,1.01139896373057,4449.48779296875,-7309.84521484375,40.400001525878906,11.7212495803833,0,0,0.0,0.0,0.0,0.0,0.6451938704145963,0.0,0.0,0.0715592336761349,-0.8255237969999999,0.4522434714,9.877571692799998,0.0,0.0,0.0,0.0,7,44.82479654947917,-73.1640869140625,-9.8775716928,-0.825523797,0.45224347140000004,0.0,0.0,0.0,-0.036346481542,0.031764992272,0.033292155361999996,0.0,0.0,0.0,-0.5249,-19.0037,-0.51794,0.0,0.0,0.0,-4.9387858464,-0.4127618985,0.22612173570000002,-0.018173240771,0.015882496136,0.016646077680999998,-0.26245,-9.50185,-0.25897,-1.41216,10.35584,4.7072,1.01139896373057,0.0
187940,0,-1380,-115,57,-132,107,111,-912,-32765,-913,0,0,0,0,0,0,0,0,0,-80,384,160,0.0,0.0,22.72,1.0114088329632371,4449.48779296875,-7309.84521484375,40.400001525878906,11.72249984741211,0,0,0.0,0.0,0.0,0.0,0.6292673750647406,0.0,0.0,0.055249353537859,-0.8255237969999999,0.4091726645999999,9.906285564,0.0,0.0,0.0,0.0,7,44.82479654947917,-73.1640869140625,-9.906285564000001,-0.825523797,0.4091726646,0.0,0.0,0.0,-0.040317105576,0.032681290126,0.033903020597999996,0.0,0.0,0.0,-0.52896,-19.0037,-0.52954,0.0,0.0,0.0,-4.9531427820000005,-0.4127618985,0.2045863323,-0.020158552788,0.016340645063,0.016951510298999998,-0.26448,-9.50185,-0.26477,-2.3536,11.29728,4.7072,1.0114088329632371,0.0
188044,0,-1377,-109,79,41,116,107,-912,-32765,-913,0,0,0,0,0,0,0,0,0,-80,336,176,0.0,0.0,22.72,1.0114088329632371,4449.48779296875,-7309.84521484375,40.400001525878906,11.723750114440918,0,0,0.0,0.0,0.0,0.0,0.5810899119119316,0.0,0.0,0.0092484527897364,-0.7824529901999999,0.5670989562,9.8847501606,0.0,0.0,0.0,0.0,7,44.82479654947917,-73.1640869140625,-9.884750160600001,-0.7824529902,0.5670989562000001,0.0,0.0,0.0,0.012522737337999999,0.035430183688,0.032681290126,0.0,0.0,0.0,-0.52896,-19.0037,-0.52954,0.0,0.0,0.0,-4.942375080300001,-0.3912264951,0.28354947810000003,0.006261368668999999,0.017715091844,0.016340645063,-0.26448,-9.50185,-0.26477,-2.3536,9.88512,5.17792,1.0114088329632371,0.0
188149,0,-1374,-110,67,80,110,104,-928,-32765,-927,0,0,0,0,0,0,0,0,0,-32,384,144,0.0,0.0,22.72,1.01146804835924,4449.48779296875,-7309.84521484375,40.400001525878906,11.723750114440918,0,0,0.0,0.0,0.0,0.0,0.6058723980266907,0.0,0.0,0.0426524123278267,-0.7896314579999999,0.4809573425999999,9.8632147572,0.0,0.0,0.0,0.0,7,44.82479654947917,-73.1640869140625,-9.8632147572,-0.789631458,0.4809573426,0.0,0.0,0.0,0.024434609439999998,0.033597587979999996,0.031764992272,0.0,0.0,0.0,-0.53824,-19.0037,-0.53766,0.0,0.0,0.0,-4.9316073786,-0.394815729,0.2404786713,0.012217304719999999,0.016798793989999998,0.015882496136,-0.26912,-9.50185,-0.26883,-0.94144,11.29728,4.23648,1.01146804835924,0.0
188254,0,-1374,-117,77,-20,103,104,-928,-32765,-927,0,0,0,0,0,0,0,0,0,-48,384,176,0.0,0.0,22.73,1.0114779175919073,4449.48779296875,-7309.84521484375,40.400001525878906,11.723750114440918,0,0,0.0,0.0,0.0,0.0,0.5769791654819622,0.0,0.0,0.012745511487625,-0.8398807326,0.5527420206,9.8632147572,0.0,0.0,0.0,0.0,7,44.82479654947917,-73.1640869140625,-9.8632147572,-0.8398807326000001,0.5527420206,0.0,0.0,0.0,-0.0061086523599999994,0.031459559654,0.031764992272,0.0,0.0,0.0,-0.53824,-19.0037,-0.53766,0.0,0.0,0.0,-4.9316073786,-0.41994036630000003,0.2763710103,-0.0030543261799999997,0.015729779827,0.015882496136,-0.26912,-9.50185,-0.26883,-1.41216,11.29728,5.17792,1.0114779175919073,0.0
188366,0,-1375,-105,71,-53,93,114,-907,-32765,-924,0,0,0,0,0,0,0,0,0,-16,336,160,0.0,0.0,22.73,1.0113200098692328,4449.48779296875,-7309.84521484375,40.59999847412109,11.72249984741211,0,0,0.0,0.0,0.0,0.0,0.6684547520206031,0.0,0.0,0.11245114796218,-0.7537391189999999,0.5096712137999999,9.870393225,0.0,0.0,0.0,0.0,7,44.82479654947917,-73.1640869140625,-9.870393225,-0.753739119,0.5096712138,0.0,0.0,0.0,-0.016187928754,0.028405233473999997,0.034819318451999995,0.0,0.0,0.0,-0.52606,-19.0037,-0.53592,0.0,0.0,0.0,-4.9351966125,-0.3768695595,0.2548356069,-0.008093964377,0.014202616736999999,0.017409659225999997,-0.26303,-9.50185,-0.26796,-0.47072,9.88512,4.7072,1.0113200098692328,0.0
188465,0,-1372,-108,73,-24,96,110,-907,-32765,-924,0,0,0,0,0,0,0,0,0,-48,384,192,0.0,0.0,22.73,1.0113594867999014,4449.48779296875,-7309.84521484375,40.59999847412109,11.723750114440918,0,0,0.0,0.0,0.0,0.0,0.607269376835562,0.0,0.0,0.0472387822328322,-0.7752745223999999,0.5240281494,9.8488578216,0.0,0.0,0.0,0.0,7,44.82479654947917,-73.1640869140625,-9.848857821600001,-0.7752745224,0.5240281494,0.0,0.0,0.0,-0.007330382832,0.029321531328,0.033597587979999996,0.0,0.0,0.0,-0.52606,-19.0037,-0.53592,0.0,0.0,0.0,-4.924428910800001,-0.3876372612,0.2620140747,-0.003665191416,0.014660765664,0.016798793989999998,-0.26303,-9.50185,-0.26796,-1.41216,11.29728,5.64864,1.0113594867999014,0.0
188570,0,-1375,-108,77,15,92,124,-903,-32765,-903,0,0,0,0,0,0,0,0,0,-16,320,176,0.0,0.0,22.74,1.0113792252652356,4449.48779296875,-7309.84521484375,40.59999847412109,11.720000267028809,0,0,0.0,0.0,0.0,0.0,0.6144313454986386,0.0,0.0,0.0542840827747269,-0.7752745223999999,0.5527420206,9.870393225,0.0,0.0,0.0,0.0,7,44.82479654947917,-73.1640869140625,-9.870393225,-0.7752745224,0.5527420206,0.0,0.0,0.0,0.00458148927,0.028099800855999998,0.037873644632,0.0,0.0,0.0,-0.52374,-19.0037,-0.52374,0.0,0.0,0.0,-4.9351966125,-0.3876372612,0.2763710103,0.002290744635,0.014049900427999999,0.018936822316,-0.26187,-9.50185,-0.26187,-0.47072,9.4144,5.17792,1.0113792252652356,0.0
188676,0,-1375,-110,88,182,112,114,-903,-32765,-903,0,0,0,0,0,0,0,0,0,-64,336,208,0.0,0.0,22.73,1.01153713298791,4449.48779296875,-7309.84521484375,40.59999847412109,11.729999542236328,0,0,0.0,0.0,0.0,0.0,0.6431724211266542,0.0,0.0,0.0829586539784221,-0.7896314579999999,0.6317051664,9.870393225,0.0,0.0,0.0,0.0,7,44.82479654947917,-73.1640869140625,-9.870393225,-0.789631458,0.6317051664000001,0.0,0.0,0.0,0.055588736475999996,0.034208453215999995,0.034819318451999995,0.0,0.0,0.0,-0.52374,-19.0037,-0.52374,0.0,0.0,0.0,-4.9351966125,-0.394815729,0.31585258320000004,0.027794368237999998,0.017104226607999998,0.017409659225999997,-0.26187,-9.50185,-0.26187,-1.88288,9.88512,6.11936,1.01153713298791,0.0
188780,0,-1380,-109,99,66,113,120,-904,-32765,-907,0,0,0,0,0,0,0,0,0,-32,320,160,0.0,0.0,22.75,1.01139896373057,4449.48779296875,-7309.84521484375,40.59999847412109,11.720000267028809,0,0,0.0,0.0,0.0,0.0,0.6553204391846593,0.0,0.0,0.0928034725312455,-0.7824529901999999,0.7106683121999999,9.906285564,0.0,0.0,0.0,0.0,7,44.82479654947917,-73.1640869140625,-9.906285564000001,-0.7824529902,0.7106683122,0.0,0.0,0.0,0.020158552788,0.034513885833999995,0.03665191416,0.0,0.0,0.0,-0.52432,-19.0037,-0.52606,0.0,0.0,0.0,-4.9531427820000005,-0.3912264951,0.3553341561,0.010079276394,0.017256942916999998,0.01832595708,-0.26216,-9.50185,-0.26303,-0.94144,9.4144,4.7072,1.01139896373057,0.0
188885,0,-1374,-98,83,-100,113,115,-904,-32765,-907,0,0,0,0,0,0,0,0,0,-48,400,192,0.0,0.0,22.75,1.0115766099185788,4449.48779296875,-7309.84521484375,40.59999847412109,11.7212495803833,0,0,0.0,0.0,0.0,0.0,0.5454132013421046,0.0,0.0,-0.0264096506713676,-0.7034898444,0.5958128274,9.8632147572,0.0,0.0,0.0,0.0,7,44.82479654947917,-73.1640869140625,-9.8632147572,-0.7034898444000001,0.5958128274000001,0.0,0.0,0.0,-0.0305432618,0.034513885833999995,0.035124751069999995,0.0,0.0,0.0,-0.52432,-19.0037,-0.52606,0.0,0.0,0.0,-4.9316073786,-0.35174492220000003,0.29790641370000004,-0.0152716309,0.017256942916999998,0.017562375534999997,-0.26216,-9.50185,-0.26303,-1.41216,11.768,5.64864,1.0115766099185788,0.0
188990,0,-1384,-110,73,-130,97,110,-921,-32765,-903,0,0,0,0,0,0,0,0,0,0,304,144,0.0,0.0,22.75,1.0115075252899086,4449.48779296875,-7309.84521484375,40.59999847412109,11.72249984741211,0,0,0.0,0.0,0.0,0.0,0.5348837182743912,0.0,0.0,-0.0295019566907532,-0.7896314579999999,0.5240281494,9.9349994352,0.0,0.0,0.0,0.0,7,44.82479654947917,-73.1640869140625,-9.9349994352,-0.789631458,0.5240281494,0.0,0.0,0.0,-0.03970624034,0.029626963946,0.033597587979999996,0.0,0.0,0.0,-0.53418,-19.0037,-0.52374,0.0,0.0,0.0,-4.9674997176,-0.394815729,0.2620140747,-0.01985312017,0.014813481973,0.016798793989999998,-0.26709,-9.50185,-0.26187,0.0,8.94368,4.23648,1.0115075252899086,0.0
189095,0,-1376,-113,84,-125,109,108,-908,-32765,-879,0,0,0,0,0,0,0,0,0,-48,352,208,0.0,0.0,22.75,1.01146804835924,4449.48779296875,-7309.84521484375,40.59999847412109,11.72249984741211,0,0,0.0,0.0,0.0,0.0,0.534735164666353,0.0,0.0,-0.0197075920370164,-0.8111668613999999,0.6029912951999999,9.877571692799998,0.0,0.0,0.0,0.0,7,44.82479654947917,-73.1640869140625,-9.8775716928,-0.8111668614,0.6029912952,0.0,0.0,0.0,-0.03817907725,0.033292155361999996,0.032986722744,0.0,0.0,0.0,-0.52664,-19.0037,-0.50982,0.0,0.0,0.0,-4.9387858464,-0.4055834307,0.3014956476,-0.019089538625,0.016646077680999998,0.016493361372,-0.26332,-9.50185,-0.25491,-1.41216,10.35584,6.11936,1.01146804835924,0.0
189200,0,-1369,-107,78,-132,118,111,-908,-32765,-879,0,0,0,0,0,0,0,0,0,-48,368,160,0.0,0.0,22.76,1.0114285714285711,4449.48779296875,-7309.84521484375,40.59999847412109,11.72249984741211,0,0,0.0,0.0,0.0,0.0,0.5569512527841826,0.0,0.0,0.0116276970691547,-0.7680960546,0.5599204884,9.8273224182,0.0,0.0,0.0,0.0,7,44.82479654947917,-73.1640869140625,-9.8273224182,-0.7680960546000001,0.5599204884,0.0,0.0,0.0,-0.040317105576,0.036041048924,0.033903020597999996,0.0,0.0,0.0,-0.52664,-19.0037,-0.50982,0.0,0.0,0.0,-4.9136612091,-0.38404802730000004,0.2799602442,-0.020158552788,0.018020524462,0.016951510298999998,-0.26332,-9.50185,-0.25491,-1.41216,10.82656,4.7072,1.0114285714285711,0.0
189305,0,-1378,-108,71,-90,98,108,-890,-32765,-884,0,0,0,0,0,0,0,0,0,-16,384,144,0.0,0.0,22.75,1.0113594867999014,4449.48779296875,-7309.84521484375,40.59999847412109,11.72249984741211,0,0,0.0,0.0,0.0,0.0,0.5925148636679937,0.0,0.0,0.0522433127275124,-0.7752745223999999,0.5096712137999999,9.8919286284,0.0,0.0,0.0,0.0,7,44.82479654947917,-73.1640869140625,-9.8919286284,-0.7752745224,0.5096712138,0.0,0.0,0.0,-0.02748893562,0.029932396564,0.032986722744,0.0,0.0,0.0,-0.5162,-19.0037,-0.51272,0.0,0.0,0.0,-4.9459643142,-0.3876372612,0.2548356069,-0.01374446781,0.014966198282,0.016493361372,-0.2581,-9.50185,-0.25636,-0.47072,11.29728,4.23648,1.0113594867999014,0.0
189410,0,-1375,-109,72,63,104,117,-890,-32765,-884,0,0,0,0,0,0,0,0,0,-16,384,192,0.0,0.0,22.75,1.0114187021959042,4449.48779296875,-7309.84521484375,40.59999847412109,11.72249984741211,0,0,0.0,0.0,0.0,0.0,0.4967641149882098,0.0,0.0,-0.0446325235056373,-0.7824529901999999,0.5168496816,9.870393225,0.0,0.0,0.0,0.0,7,44.82479654947917,-73.1640869140625,-9.870393225,-0.7824529902,0.5168496816,0.0,0.0,0.0,0.019242254934,0.031764992272,0.035735616306,0.0,0.0,0.0,-0.5162,-19.0037,-0.51272,0.0,0.0,0.0,-4.9351966125,-0.3912264951,0.2584248408,0.009621127467,0.015882496136,0.017867808153,-0.2581,-9.50185,-0.25636,-0.47072,11.29728,5.64864,1.0114187021959042,0.0
189515,0,-1377,-109,63,191,97,114,-897,-32765,-909,0,0,0,0,0,0,0,0,0,-48,432,192,0.0,0.0,22.76,1.0114285714285711,4449.48779296875,-7309.84521484375,40.59999847412109,11.72249984741211,0,0,0.0,0.0,0.0,0.0,0.4476907133730071,0.0,0.0,-0.0835678706579588,-0.7824529901999999,0.4522434714,9.8847501606,0.0,0.0,0.0,0.0,7,44.82479654947917,-73.1640869140625,-9.884750160600001,-0.7824529902,0.45224347140000004,0.0,0.0,0.0,0.058337630037999993,0.029626963946,0.034819318451999995,0.0,0.0,0.0,-0.5202600000000001,-19.0037,-0.52722,0.0,0.0,0.0,-4.942375080300001,-0.3912264951,0.22612173570000002,0.029168815018999997,0.014813481973,0.017409659225999997,-0.26013000000000003,-9.50185,-0.26361,-1.41216,12.70944,5.64864,1.0114285714285711,0.0
189620,0,-1375,-117,59,202,117,105,-897,-32765,-909,0,0,0,0,0,0,0,0,0,-32,352,144,0.0,0.0,22.76,1.0114779175919073,4449.48779296875,-7309.84521484375,40.59999847412109,11.720000267028809,0,0,0.0,0.0,0.0,0.0,0.4613192405946381,0.0,0.0,-0.0558671302279611,-0.8398807326,0.4235296001999999,9.870393225,0.0,0.0,0.0,0.0,7,44.82479654947917,-73.1640869140625,-9.870393225,-0.8398807326000001,0.4235296002,0.0,0.0,0.0,0.061697388836,0.035735616306,0.03207042489,0.0,0.0,0.0,-0.5202600000000001,-19.0037,-0.52722,0.0,0.0,0.0,-4.9351966125,-0.41994036630000003,0.2117648001,0.030848694418,0.017867808153,0.016035212445,-0.26013000000000003,-9.50185,-0.26361,-0.94144,10.35584,4.23648,1.0114779175919073,0.0
189726,0,-1376,-109,58,79,112,112,-897,-32765,-907,0,0,0,0,0,0,0,0,0,-64,416,176,0.0,0.0,22.76,1.011438440661239,4449.48779296875,-7309.84521484375,40.59999847412109,11.731249809265137,0,0,0.0,0.0,0.0,0.0,0.4259811246547838,0.0,0.0,-0.0804699864158998,-0.7824529901999999,0.4163511324,9.877571692799998,0.0,0.0,0.0,0.0,7,44.82479654947917,-73.1640869140625,-9.8775716928,-0.7824529902,0.4163511324,0.0,0.0,0.0,0.024129176821999998,0.034208453215999995,0.034208453215999995,0.0,0.0,0.0,-0.5202600000000001,-19.0037,-0.52606,0.0,0.0,0.0,-4.9387858464,-0.3912264951,0.2081755662,0.012064588410999999,0.017104226607999998,0.017104226607999998,-0.26013000000000003,-9.50185,-0.26303,-1.88288,12.23872,5.17792,1.011438440661239,0.0
189830,0,-1372,-111,63,-149,106,105,-897,-32765,-907,0,0,0,0,0,0,0,0,0,-16,304,128,0.0,0.0,22.76,1.0112706637058968,4449.48779296875,-7309.84521484375,40.59999847412109,11.720000267028809,0,0,0.0,0.0,0.0,0.0,0.4496561687442849,0.0,0.0,-0.0387703833627766,-0.7968099258,0.4522434714,9.8488578216,0.0,0.0,0.0,0.0,7,44.82479654947917,-73.1640869140625,-9.848857821600001,-0.7968099258,0.45224347140000004,0.0,0.0,0.0,-0.045509460082,0.032375857508,0.03207042489,0.0,0.0,0.0,-0.5202600000000001,-19.0037,-0.52606,0.0,0.0,0.0,-4.924428910800001,-0.3984049629,0.22612173570000002,-0.022754730041,0.016187928754,0.016035212445,-0.26013000000000003,-9.50185,-0.26303,-0.47072,8.94368,3.76576,1.0112706637058968,0.0
189935,0,-1373,-109,65,-235,108,105,-900,-32765,-883,0,0,0,0,0,0,0,0,0,-48,304,192,0.0,0.0,22.76,1.0115470022205773,4449.48779296875,-7309.84521484375,40.59999847412109,11.720000267028809,0,0,0.0,0.0,0.0,0.0,0.4691203918233641,0.0,0.0,-0.011191074950227,-0.7824529901999999,0.4666004069999999,9.8560362894,0.0,0.0,0.0,0.0,7,44.82479654947917,-73.1640869140625,-9.8560362894,-0.7824529902,0.466600407,0.0,0.0,0.0,-0.07177666523,0.032986722744,0.03207042489,0.0,0.0,0.0,-0.522,-19.0037,-0.51214,0.0,0.0,0.0,-4.9280181447,-0.3912264951,0.2333002035,-0.035888332615,0.016493361372,0.016035212445,-0.261,-9.50185,-0.25607,-1.41216,8.94368,5.64864,1.0115470022205773,0.0
190040,0,-1368,-111,72,-129,117,107,-900,-32765,-883,0,0,0,0,0,0,0,0,0,-16,368,176,0.0,0.0,22.77,1.0114483098939058,4449.48779296875,-7309.84521484375,40.59999847412109,11.72249984741211,0,0,0.0,0.0,0.0,0.0,0.3793658393282315,0.0,0.0,-0.0963689992884664,-0.7968099258,0.5168496816,9.8201439504,0.0,0.0,0.0,0.0,7,44.82479654947917,-73.1640869140625,-9.8201439504,-0.7968099258,0.5168496816,0.0,0.0,0.0,-0.039400807722,0.035735616306,0.032681290126,0.0,0.0,0.0,-0.522,-19.0037,-0.51214,0.0,0.0,0.0,-4.9100719752,-0.3984049629,0.2584248408,-0.019700403861,0.017867808153,0.016340645063,-0.261,-9.50185,-0.25607,-0.47072,10.82656,5.17792,1.0114483098939058,0.0
190145,0,-1373,-114,77,19,103,114,-884,-32765,-844,0,0,0,0,0,0,0,0,0,-16,368,240,0.0,0.0,22.77,1.01139896373057,4449.48779296875,-7309.84521484375,40.59999847412109,11.72249984741211,0,0,0.0,0.0,0.0,0.0,0.4105848220625634,0.0,0.0,-0.04897234090781,-0.8183453291999999,0.5527420206,9.8560362894,0.0,0.0,0.0,0.0,7,44.82479654947917,-73.1640869140625,-9.8560362894,-0.8183453292,0.5527420206,0.0,0.0,0.0,0.005803219742,0.031459559654,0.034819318451999995,0.0,0.0,0.0,-0.51272,-19.0037,-0.48952,0.0,0.0,0.0,-4.9280181447,-0.4091726646,0.2763710103,0.002901609871,0.015729779827,0.017409659225999997,-0.25636,-9.50185,-0.24476,-0.47072,10.82656,7.0608,1.01139896373057,0.0
190250,0,-1374,-114,72,76,95,116,-884,-32765,-844,0,0,0,0,0,0,0,0,0,-16,384,208,0.0,0.0,22.77,1.0114088329632371,4449.48779296875,-7309.84521484375,40.59999847412109,11.72249984741211,0,0,0.0,0.0,0.0,0.0,0.4531257296709063,0.0,0.0,0.0084781416075691,-0.8183453291999999,0.5168496816,9.8632147572,0.0,0.0,0.0,0.0,7,44.82479654947917,-73.1640869140625,-9.8632147572,-0.8183453292,0.5168496816,0.0,0.0,0.0,0.023212878968,0.029016098709999997,0.035430183688,0.0,0.0,0.0,-0.51272,-19.0037,-0.48952,0.0,0.0,0.0,-4.9316073786,-0.4091726646,0.2584248408,0.011606439484,0.014508049354999998,0.017715091844,-0.25636,-9.50185,-0.24476,-0.47072,11.29728,6.11936,1.0114088329632371,0.0
190355,0,-1375,-113,75,13,112,114,-895,-32765,-910,0,0,0,0,0,0,0,0,0,-64,416,160,0.0,0.0,22.77,1.011349617567234,4449.48779296875,-7309.84521484375,40.59999847412109,11.7212495803833,0,0,0.0,0.0,0.0,0.0,0.5660477058351716,0.0,0.0,0.1272253046923351,-0.8111668613999999,0.5383850849999999,9.870393225,0.0,0.0,0.0,0.0,7,44.82479654947917,-73.1640869140625,-9.870393225,-0.8111668614,0.538385085,0.0,0.0,0.0,0.003970624034,0.034208453215999995,0.034819318451999995,0.0,0.0,0.0,-0.5191,-19.0037,-0.5278,0.0,0.0,0.0,-4.9351966125,-0.4055834307,0.2691925425,0.001985312017,0.017104226607999998,0.017409659225999997,-0.25955,-9.50185,-0.2639,-1.88288,12.23872,4.7072,1.011349617567234,0.0
190460,0,-1379,-117,58,1,101,112,-895,-32765,-910,0,0,0,0,0,0,0,0,0,-16,304,192,0.0,0.0,22.77,1.011349617567234,4449.48779296875,-7309.84521484375,40.59999847412109,11.7212495803833,0,0,0.0,0.0,0.0,0.0,0.5749048084508244,0.0,0.0,0.1329887013027005,-0.8398807326,0.4163511324,9.8991070962,0.0,0.0,0.0,0.0,7,44.82479654947917,-73.1640869140625,-9.8991070962,-0.8398807326000001,0.4163511324,0.0,0.0,0.0,0.000305432618,0.030848694418,0.034208453215999995,0.0,0.0,0.0,-0.5191,-19.0037,-0.5278,0.0,0.0,0.0,-4.9495535481,-0.41994036630000003,0.2081755662,0.000152716309,0.015424347209,0.017104226607999998,-0.25955,-9.50185,-0.2639,-0.47072,8.94368,5.64864,1.011349617567234,0.0
190565,0,-1376,-116,64,65,93,113,-919,-32765,-920,0,0,0,0,0,0,0,0,0,-32,352,176,0.0,0.0,22.78,1.0114285714285711,4449.48779296875,-7309.84521484375,40.59999847412109,11.71875,0,0,0.0,0.0,0.0,0.0,0.6326829223034895,0.0,0.0,0.1865986702596434,-0.8327022648,0.4594219391999999,9.877571692799998,0.0,0.0,0.0,0.0,7,44.82479654947917,-73.1640869140625,-9.8775716928,-0.8327022648,0.4594219392,0.0,0.0,0.0,0.01985312017,0.028405233473999997,0.034513885833999995,0.0,0.0,0.0,-0.53302,-19.0037,-0.5336,0.0,0.0,0.0,-4.9387858464,-0.4163511324,0.2297109696,0.009926560085,0.014202616736999999,0.017256942916999998,-0.26651,-9.50185,-0.2668,-0.94144,10.35584,5.17792,1.0114285714285711,0.0
190670,0,-1373,-116,62,-51,109,112,-919,-32765,-920,0,0,0,0,0,0,0,0,0,-48,416,176,0.0,0.0,22.79,1.0113792252652356,4449.48779296875,-7309.84521484375,40.59999847412109,11.71875,0,0,0.0,0.0,0.0,0.0,0.5961324716884916,0.0,0.0,0.1374681004524815,-0.8327022648,0.4450650035999999,9.8560362894,0.0,0.0,0.0,0.0,7,44.82479654947917,-73.1640869140625,-9.8560362894,-0.8327022648,0.4450650036,0.0,0.0,0.0,-0.015577063518,0.033292155361999996,0.034208453215999995,0.0,0.0,0.0,-0.53302,-19.0037,-0.5336,0.0,0.0,0.0,-4.9280181447,-0.4163511324,0.2225325018,-0.007788531759,0.016646077680999998,0.017104226607999998,-0.26651,-9.50185,-0.2668,-1.41216,12.23872,5.17792,1.0113792252652356,0.0
190776,0,-1376,-114,66,-153,104,108,-916,-32765,-862,0,0,0,0,0,0,0,0,0,-32,384,144,0.0,0.0,22.78,1.0113693560325685,4449.48779296875,-7309.84521484375,40.59999847412109,11.729999542236328,0,0,0.0,0.0,0.0,0.0,0.5820051651063404,0.0,0.0,0.1144689925824326,-0.8183453291999999,0.4737788747999999,9.877571692799998,0.0,0.0,0.0,0.0,7,44.82479654947917,-73.1640869140625,-9.8775716928,-0.8183453292,0.4737788748,0.0,0.0,0.0,-0.046731190554,0.031764992272,0.032986722744,0.0,0.0,0.0,-0.53128,-19.0037,-0.49996,0.0,0.0,0.0,-4.9387858464,-0.4091726646,0.2368894374,-0.023365595277,0.015882496136,0.016493361372,-0.26564,-9.50185,-0.24998,-0.94144,11.29728,4.23648,1.0113693560325685,0.0
190881,0,-1376,-122,69,-136,111,99,-916,-32765,-862,0,0,0,0,0,0,0,0,0,-32,368,160,0.0,0.0,22.78,1.0113693560325685,4449.48779296875,-7309.84521484375,40.59999847412109,11.7212495803833,0,0,0.0,0.0,0.0,0.0,0.5945145106509814,0.0,0.0,0.1195206343004879,-0.8757730716,0.4953142781999999,9.877571692799998,0.0,0.0,0.0,0.0,7,44.82479654947917,-73.1640869140625,-9.8775716928,-0.8757730716000001,0.4953142782,0.0,0.0,0.0,-0.041538836047999995,0.033903020597999996,0.030237829182,0.0,0.0,0.0,-0.53128,-19.0037,-0.49996,0.0,0.0,0.0,-4.9387858464,-0.43788653580000003,0.2476571391,-0.020769418023999998,0.016951510298999998,0.015118914591,-0.26564,-9.50185,-0.24998,-0.94144,10.82656,4.7072,1.0113693560325685,0.0
190985,0,-1376,-117,81,-153,107,102,-908,-32765,-892,0,0,0,0,0,0,0,0,0,-32,416,144,0.0,0.0,22.79,1.0113890944979027,4449.48779296875,-7309.84521484375,40.59999847412109,11.720000267028809,0,0,0.0,0.0,0.0,0.0,0.619451469027563,0.0,0.0,0.1384740420542261,-0.8398807326,0.5814558917999999,9.877571692799998,0.0,0.0,0.0,0.0,7,44.82479654947917,-73.1640869140625,-9.8775716928,-0.8398807326000001,0.5814558918,0.0,0.0,0.0,-0.046731190554,0.032681290126,0.031154127036,0.0,0.0,0.0,-0.52664,-19.0037,-0.51736,0.0,0.0,0.0,-4.9387858464,-0.41994036630000003,0.2907279459,-0.023365595277,0.016340645063,0.015577063518,-0.26332,-9.50185,-0.25868,-0.94144,12.23872,4.23648,1.0113890944979027,0.0
191090,0,-1374,-116,76,-142,95,111,-908,-32765,-892,0,0,0,0,0,0,0,0,0,-64,336,112,0.0,0.0,22.8,1.0114483098939058,4449.48779296875,-7309.84521484375,40.59999847412109,11.7212495803833,0,0,0.0,0.0,0.0,0.0,0.6070185549400953,0.0,0.0,0.1140690238288358,-0.8327022648,0.5455635527999999,9.8632147572,0.0,0.0,0.0,0.0,7,44.82479654947917,-73.1640869140625,-9.8632147572,-0.8327022648,0.5455635528,0.0,0.0,0.0,-0.043371431756,0.029016098709999997,0.033903020597999996,0.0,0.0,0.0,-0.52664,-19.0037,-0.51736,0.0,0.0,0.0,-4.9316073786,-0.4163511324,0.2727817764,-0.021685715878,0.014508049354999998,0.016951510298999998,-0.26332,-9.50185,-0.25868,-1.88288,9.88512,3.29504,1.0114483098939058,0.0
191196,0,-1372,-109,68,-46,91,113,-901,-32765,-901,0,0,0,0,0,0,0,0,0,-32,352,176,0.0,0.0,22.8,1.01139896373057,4449.48779296875,-7309.84423828125,40.79999923706055,11.7212495803833,0,0,0.0,0.0,0.0,0.0,0.5801547451157735,0.0,0.0,0.082270240771968,-0.7824529901999999,0.4881358104,9.8488578216,0.0,0.0,0.0,0.0,7,44.82479654947917,-73.16407063802083,-9.848857821600001,-0.7824529902,0.48813581040000004,0.0,0.0,0.0,-0.014049900427999999,0.027794368237999998,0.034513885833999995,0.0,0.0,0.0,-0.52258,-19.0037,-0.52258,0.0,0.0,0.0,-4.924428910800001,-0.3912264951,0.24406790520000002,-0.0070249502139999994,0.013897184118999999,0.017256942916999998,-0.26129,-9.50185,-0.26129,-0.94144,10.35584,5.17792,1.01139896373057,0.0
191300,0,-1369,-108,72,66,100,112,-901,-32765,-901,0,0,0,0,0,0,0,0,0,-32,400,144,0.0,0.0,22.8,1.0114581791265729,4449.48779296875,-7309.84423828125,40.79999923706055,11.723750114440918,0,0,0.0,0.0,0.0,0.0,0.5600351653015428,0.0,0.0,0.0603306029008746,-0.7752745223999999,0.5168496816,9.8273224182,0.0,0.0,0.0,0.0,7,44.82479654947917,-73.16407063802083,-9.8273224182,-0.7752745224,0.5168496816,0.0,0.0,0.0,0.020158552788,0.0305432618,0.034208453215999995,0.0,0.0,0.0,-0.52258,-19.0037,-0.52258,0.0,0.0,0.0,-4.9136612091,-0.3876372612,0.2584248408,0.010079276394,0.0152716309,0.017104226607999998,-0.26129,-9.50185,-0.26129,-0.94144,11.768,4.23648,1.0114581791265729,0.0
191405,0,-1378,-110,84,110,99,115,-947,-32765,-865,0,0,0,0,0,0,0,0,0,-64,384,80,0.0,0.0,22.81,1.0114187021959042,4449.48779296875,-7309.84423828125,40.79999923706055,11.7212495803833,0,0,0.0,0.0,0.0,0.0,0.546643283031565,0.0,0.0,0.0442545692485725,-0.7896314579999999,0.6029912951999999,9.8919286284,0.0,0.0,0.0,0.0,7,44.82479654947917,-73.16407063802083,-9.8919286284,-0.789631458,0.6029912952,0.0,0.0,0.0,0.033597587979999996,0.030237829182,0.035124751069999995,0.0,0.0,0.0,-0.54926,-19.0037,-0.5017,0.0,0.0,0.0,-4.9459643142,-0.394815729,0.3014956476,0.016798793989999998,0.015118914591,0.017562375534999997,-0.27463,-9.50185,-0.25085,-1.88288,11.29728,2.3536,1.0114187021959042,0.0
191510,0,-1377,-119,63,-43,114,104,-947,-32765,-865,0,0,0,0,0,0,0,0,0,-32,400,176,0.0,0.0,22.8,1.01146804835924,4449.48779296875,-7309.84423828125,40.79999923706055,11.7212495803833,0,0,0.0,0.0,0.0,0.0,0.5481537494603269,0.0,0.0,0.0501700331974729,-0.8542376681999999,0.4522434714,9.8847501606,0.0,0.0,0.0,0.0,7,44.82479654947917,-73.16407063802083,-9.884750160600001,-0.8542376682,0.45224347140000004,0.0,0.0,0.0,-0.013133602574,0.034819318451999995,0.031764992272,0.0,0.0,0.0,-0.54926,-19.0037,-0.5017,0.0,0.0,0.0,-4.942375080300001,-0.4271188341,0.22612173570000002,-0.006566801287,0.017409659225999997,0.015882496136,-0.27463,-9.50185,-0.25085,-0.94144,11.768,5.17792,1.01146804835924,0.0
191615,0,-1376,-116,75,-215,113,106,-918,-32765,-893,0,0,0,0,0,0,0,0,0,-80,336,208,0.0,0.0,22.81,1.01153713298791,4449.48779296875,-7309.84423828125,40.79999923706055,11.720000267028809,0,0,0.0,0.0,0.0,0.0,0.5066574543753364,0.0,0.0,0.0068931775681523,-0.8327022648,0.5383850849999999,9.877571692799998,0.0,0.0,0.0,0.0,7,44.82479654947917,-73.16407063802083,-9.8775716928,-0.8327022648,0.538385085,0.0,0.0,0.0,-0.06566801287,0.034513885833999995,0.032375857508,0.0,0.0,0.0,-0.53244,-19.0037,-0.51794,0.0,0.0,0.0,-4.9387858464,-0.4163511324,0.2691925425,-0.032834006435,0.017256942916999998,0.016187928754,-0.26622,-9.50185,-0.25897,-2.3536,9.88512,6.11936,1.01153713298791,0.0
191721,0,-1375,-114,68,-185,109,101,-918,-32765,-893,0,0,0,0,0,0,0,0,0,-80,352,208,0.0,0.0,22.81,1.0114779175919073,4449.48779296875,-7309.84423828125,40.79999923706055,11.729999542236328,0,0,0.0,0.0,0.0,0.0,0.5205642245274902,0.0,0.0,0.0235995940950612,-0.8183453291999999,0.4881358104,9.870393225,0.0,0.0,0.0,0.0,7,44.82479654947917,-73.16407063802083,-9.870393225,-0.8183453292,0.48813581040000004,0.0,0.0,0.0,-0.056505034329999995,0.033292155361999996,0.030848694418,0.0,0.0,0.0,-0.53244,-19.0037,-0.51794,0.0,0.0,0.0,-4.9351966125,-0.4091726646,0.24406790520000002,-0.028252517164999998,0.016646077680999998,0.015424347209,-0.26622,-9.50185,-0.25897,-2.3536,10.35584,6.11936,1.0114779175919073,0.0
191825,0,-1370,-111,76,-80,98,108,-920,-32765,-884,0,0,0,0,0,0,0,0,0,-80,384,208,0.0,0.0,22.81,1.0114877868245744,4449.48779296875,-7309.84423828125,40.79999923706055,11.71875,0,0,0.0,0.0,0.0,0.0,0.5691994591401062,0.0,0.0,0.0752711718143432,-0.7968099258,0.5455635527999999,9.834500886,0.0,0.0,0.0,0.0,7,44.82479654947917,-73.16407063802083,-9.834500886,-0.7968099258,0.5455635528,0.0,0.0,0.0,-0.024434609439999998,0.029932396564,0.032986722744,0.0,0.0,0.0,-0.5336,-19.0037,-0.51272,0.0,0.0,0.0,-4.917250443,-0.3984049629,0.2727817764,-0.012217304719999999,0.014966198282,0.016493361372,-0.2668,-9.50185,-0.25636,-2.3536,11.29728,6.11936,1.0114877868245744,0.0
191930,0,-1376,-107,77,59,97,114,-920,-32765,-884,0,0,0,0,0,0,0,0,0,-16,416,160,0.0,0.0,22.81,1.0113693560325685,4449.48779296875,-7309.84423828125,40.79999923706055,11.720000267028809,0,0,0.0,0.0,0.0,0.0,0.6201388146447087,0.0,0.0,0.1234405334658737,-0.7680960546,0.5527420206,9.877571692799998,0.0,0.0,0.0,0.0,7,44.82479654947917,-73.16407063802083,-9.8775716928,-0.7680960546000001,0.5527420206,0.0,0.0,0.0,0.018020524462,0.029626963946,0.034819318451999995,0.0,0.0,0.0,-0.5336,-19.0037,-0.51272,0.0,0.0,0.0,-4.9387858464,-0.38404802730000004,0.2763710103,0.009010262231,0.014813481973,0.017409659225999997,-0.2668,-9.50185,-0.25636,-0.47072,12.23872,4.7072,1.0113693560325685,0.0
192035,0,-1376,-108,68,195,92,108,-896,-32765,-889,0,0,0,0,0,0,0,0,0,-64,400,128,0.0,0.0,22.81,1.0113200098692328,4449.48779296875,-7309.84423828125,40.79999923706055,11.720000267028809,0,0,0.0,0.0,0.0,0.0,0.6041671583464473,0.0,0.0,0.1018366236277757,-0.7752745223999999,0.4881358104,9.877571692799998,0.0,0.0,0.0,0.0,7,44.82479654947917,-73.16407063802083,-9.8775716928,-0.7752745224,0.48813581040000004,0.0,0.0,0.0,0.05955936051,0.028099800855999998,0.032986722744,0.0,0.0,0.0,-0.51968,-19.0037,-0.51562,0.0,0.0,0.0,-4.9387858464,-0.3876372612,0.24406790520000002,0.029779680255,0.014049900427999999,0.016493361372,-0.25984,-9.50185,-0.25781,-1.88288,11.768,3.76576,1.0113200098692328,0.0
192141,0,-1379,-121,66,162,98,120,-896,-32765,-889,0,0,0,0,0,0,0,0,0,-48,368,192,0.0,0.0,22.82,1.0113792252652356,4449.48779296875,-7309.84423828125,40.79999923706055,11.728750228881836,0,0,0.0,0.0,0.0,0.0,0.6582017770008585,0.0,0.0,0.1516232037399053,-0.8685946038,0.4737788747999999,9.8991070962,0.0,0.0,0.0,0.0,7,44.82479654947917,-73.16407063802083,-9.8991070962,-0.8685946038000001,0.4737788748,0.0,0.0,0.0,0.049480084115999995,0.029932396564,0.03665191416,0.0,0.0,0.0,-0.51968,-19.0037,-0.51562,0.0,0.0,0.0,-4.9495535481,-0.43429730190000004,0.2368894374,0.024740042057999997,0.014966198282,0.01832595708,-0.25984,-9.50185,-0.25781,-1.41216,10.82656,5.64864,1.0113792252652356,0.0
192245,0,-1368,-120,51,128,116,117,-903,-32765,-865,0,0,0,0,0,0,0,0,0,-32,416,128,0.0,0.0,22.82,1.0115075252899086,4449.48779296875,-7309.84423828125,40.79999923706055,11.7212495803833,0,0,0.0,0.0,0.0,0.0,0.5526918618867404,0.0,0.0,0.031206374434986,-0.8614161359999999,0.3661018578,9.8201439504,0.0,0.0,0.0,0.0,7,44.82479654947917,-73.16407063802083,-9.8201439504,-0.861416136,0.36610185780000004,0.0,0.0,0.0,0.039095375104,0.035430183688,0.035735616306,0.0,0.0,0.0,-0.52374,-19.0037,-0.5017,0.0,0.0,0.0,-4.9100719752,-0.430708068,0.18305092890000002,0.019547687552,0.017715091844,0.017867808153,-0.26187,-9.50185,-0.25085,-0.94144,12.23872,3.76576,1.0115075252899086,0.0
192350,0,-1381,-113,57,-127,104,108,-903,-32765,-865,0,0,0,0,0,0,0,0,0,-48,368,176,0.0,0.0,22.83,1.0114581791265729,4449.48779296875,-7309.84423828125,40.79999923706055,11.7212495803833,0,0,0.0,0.0,0.0,0.0,0.5599442600635046,0.0,0.0,0.040721099266254,-0.8111668613999999,0.4091726645999999,9.913464031799998,0.0,0.0,0.0,0.0,7,44.82479654947917,-73.16407063802083,-9.9134640318,-0.8111668614,0.4091726646,0.0,0.0,0.0,-0.038789942486,0.031764992272,0.032986722744,0.0,0.0,0.0,-0.52374,-19.0037,-0.5017,0.0,0.0,0.0,-4.9567320159,-0.4055834307,0.2045863323,-0.019394971243,0.015882496136,0.016493361372,-0.26187,-9.50185,-0.25085,-1.41216,10.82656,5.17792,1.0114581791265729,0.0
192455,0,-1375,-116,66,-75,122,107,-899,-32765,-888,0,0,0,0,0,0,0,0,0,-48,384,176,0.0,0.0,22.83,1.011349617567234,4449.48779296875,-7309.84423828125,40.79999923706055,11.7212495803833,0,0,0.0,0.0,0.0,0.0,0.6324965883063162,0.0,0.0,0.1207275421589228,-0.8327022648,0.4737788747999999,9.870393225,0.0,0.0,0.0,0.0,7,44.82479654947917,-73.16407063802083,-9.870393225,-0.8327022648,0.4737788748,0.0,0.0,0.0,-0.02290744635,0.037262779396,0.032681290126,0.0,0.0,0.0,-0.52142,-19.0037,-0.51504,0.0,0.0,0.0,-4.9351966125,-0.4163511324,0.2368894374,-0.011453723175,0.018631389698,0.016340645063,-0.26071,-9.50185,-0.25752,-1.41216,11.29728,5.17792,1.011349617567234,0.0
192561,0,-1374,-120,69,-39,115,103,-899,-32765,-888,0,0,0,0,0,0,0,0,0,-16,384,224,0.0,0.0,22.83,1.0114581791265729,4449.48779296875,-7309.84423828125,40.79999923706055,11.731249809265137,0,0,0.0,0.0,0.0,0.0,0.5805445169371369,0.0,0.0,0.0611777264754134,-0.8614161359999999,0.4953142781999999,9.8632147572,0.0,0.0,0.0,0.0,7,44.82479654947917,-73.16407063802083,-9.8632147572,-0.861416136,0.4953142782,0.0,0.0,0.0,-0.011911872102,0.035124751069999995,0.031459559654,0.0,0.0,0.0,-0.52142,-19.0037,-0.51504,0.0,0.0,0.0,-4.9316073786,-0.430708068,0.2476571391,-0.005955936051,0.017562375534999997,0.015729779827,-0.26071,-9.50185,-0.25752,-0.47072,11.29728,6.59008,1.0114581791265729,0.0
192665,0,-1378,-113,77,-78,106,103,-902,-32765,-871,0,0,0,0,0,0,0,0,0,-64,368,160,0.0,0.0,22.83,1.01146804835924,4449.48779296875,-7309.84423828125,40.79999923706055,11.720000267028809,0,0,0.0,0.0,0.0,0.0,0.4927156869328952,0.0,0.0,-0.0291166842911039,-0.8111668613999999,0.5527420206,9.8919286284,0.0,0.0,0.0,0.0,7,44.82479654947917,-73.16407063802083,-9.8919286284,-0.8111668614,0.5527420206,0.0,0.0,0.0,-0.023823744204,0.032375857508,0.031459559654,0.0,0.0,0.0,-0.52316,-19.0037,-0.50518,0.0,0.0,0.0,-4.9459643142,-0.4055834307,0.2763710103,-0.011911872102,0.016187928754,0.015729779827,-0.26158,-9.50185,-0.25259,-1.88288,10.82656,4.7072,1.01146804835924,0.0
192770,0,-1378,-108,74,-100,97,106,-905,-32765,-850,0,0,0,0,0,0,0,0,0,-64,368,192,0.0,0.0,22.83,1.011586479151246,4449.48779296875,-7309.84423828125,40.79999923706055,11.717499732971191,0,0,0.0,0.0,0.0,0.0,0.47063508311273,0.0,0.0,-0.0440578042794997,-0.7752745223999999,0.5312066172,9.8919286284,0.0,0.0,0.0,0.0,7,44.82479654947917,-73.16407063802083,-9.8919286284,-0.7752745224,0.5312066172000001,0.0,0.0,0.0,-0.0305432618,0.029626963946,0.032375857508,0.0,0.0,0.0,-0.5249,-19.0037,-0.493,0.0,0.0,0.0,-4.9459643142,-0.3876372612,0.26560330860000003,-0.0152716309,0.014813481973,0.016187928754,-0.26245,-9.50185,-0.2465,-1.88288,10.82656,5.64864,1.011586479151246,0.0
192875,0,-1377,-112,71,-47,96,117,-905,-32765,-850,0,0,0,0,0,0,0,0,0,-48,336,192,0.0,0.0,22.83,1.0114088329632371,4449.48779296875,-7309.84423828125,40.79999923706055,11.7212495803833,0,0,0.0,0.0,0.0,0.0,0.4478516901016241,0.0,0.0,-0.0558740359869054,-0.8039883936,0.5096712137999999,9.8847501606,0.0,0.0,0.0,0.0,7,44.82479654947917,-73.16407063802083,-9.884750160600001,-0.8039883936000001,0.5096712138,0.0,0.0,0.0,-0.014355333045999999,0.029321531328,0.035735616306,0.0,0.0,0.0,-0.5249,-19.0037,-0.493,0.0,0.0,0.0,-4.942375080300001,-0.40199419680000004,0.2548356069,-0.007177666522999999,0.014660765664,0.017867808153,-0.26245,-9.50185,-0.2465,-1.41216,9.88512,5.64864,1.0114088329632371,0.0
192980,0,-1372,-119,57,45,97,123,-899,-32765,-872,0,0,0,0,0,0,0,0,0,0,336,112,0.0,0.0,22.84,1.0114877868245744,4449.48779296875,-7309.84423828125,40.79999923706055,11.7212495803833,0,0,0.0,0.0,0.0,0.0,0.3788833255018989,0.0,0.0,-0.1144044326278351,-0.8542376681999999,0.4091726645999999,9.8488578216,0.0,0.0,0.0,0.0,7,44.82479654947917,-73.16407063802083,-9.848857821600001,-0.8542376682,0.4091726646,0.0,0.0,0.0,0.01374446781,0.029626963946,0.037568212014,0.0,0.0,0.0,-0.52142,-19.0037,-0.50576,0.0,0.0,0.0,-4.924428910800001,-0.4271188341,0.2045863323,0.006872233905,0.014813481973,0.018784106007,-0.26071,-9.50185,-0.25288,0.0,9.88512,3.29504,1.0114877868245744,0.0
193085,0,-1375,-123,63,44,107,111,-899,-32765,-872,0,0,0,0,0,0,0,0,0,0,336,144,0.0,0.0,22.84,1.0115470022205773,4449.48779296875,-7309.84423828125,40.79999923706055,11.7212495803833,0,0,0.0,0.0,0.0,0.0,0.3731513566883179,0.0,0.0,-0.1034662673713383,-0.8829515393999999,0.4522434714,9.870393225,0.0,0.0,0.0,0.0,7,44.82479654947917,-73.16407063802083,-9.870393225,-0.8829515394,0.45224347140000004,0.0,0.0,0.0,0.013439035192,0.032681290126,0.033903020597999996,0.0,0.0,0.0,-0.52142,-19.0037,-0.50576,0.0,0.0,0.0,-4.9351966125,-0.4414757697,0.22612173570000002,0.006719517596,0.016340645063,0.016951510298999998,-0.26071,-9.50185,-0.25288,0.0,9.88512,4.23648,1.0115470022205773,0.0
193190,0,-1379,-119,75,-100,120,110,-901,-32765,-834,0,0,0,0,0,0,0,0,0,-48,384,208,0.0,0.0,22.83,1.0113101406365654,4449.48779296875,-7309.84423828125,40.79999923706055,11.720000267028809,0,0,0.0,0.0,0.0,0.0,0.4163400039300771,0.0,0.0,-0.0389015167987933,-0.8542376681999999,0.5383850849999999,9.8991070962,0.0,0.0,0.0,0.0,7,44.82479654947917,-73.16407063802083,-9.8991070962,-0.8542376682,0.538385085,0.0,0.0,0.0,-0.0305432618,0.03665191416,0.033597587979999996,0.0,0.0,0.0,-0.52258,-19.0037,-0.48372,0.0,0.0,0.0,-4.9495535481,-0.4271188341,0.2691925425,-0.0152716309,0.01832595708,0.016798793989999998,-0.26129,-9.50185,-0.24186,-1.41216,11.29728,6.11936,1.0113101406365654,0.0
193295,0,-1373,-122,67,-49,116,111,-901,-32765,-834,0,0,0,0,0,0,0,0,0,-32,368,144,0.0,0.0,22.84,1.011438440661239,4449.48779296875,-7309.84423828125,40.79999923706055,11.7212495803833,0,0,0.0,0.0,0.0,0.0,0.3290811082968894,0.0,0.0,-0.1154264700883976,-0.8757730716,0.4809573425999999,9.8560362894,0.0,0.0,0.0,0.0,7,44.82479654947917,-73.16407063802083,-9.8560362894,-0.8757730716000001,0.4809573426,0.0,0.0,0.0,-0.014966198282,0.035430183688,0.033903020597999996,0.0,0.0,0.0,-0.52258,-19.0037,-0.48372,0.0,0.0,0.0,-4.9280181447,-0.43788653580000003,0.2404786713,-0.007483099141,0.017715091844,0.016951510298999998,-0.26129,-9.50185,-0.24186,-0.94144,10.82656,4.23648,1.011438440661239,0.0
193401,0,-1372,-121,71,-83,111,106,-892,-32765,-830,0,0,0,0,0,0,0,0,0,-16,400,144,0.0,0.0,22.85,1.0113890944979027,4449.48779296875,-7309.84423828125,40.79999923706055,11.7212495803833,0,0,0.0,0.0,0.0,0.0,0.3652500678894719,0.0,0.0,-0.058664682257622,-0.8685946038,0.5096712137999999,9.8488578216,0.0,0.0,0.0,0.0,7,44.82479654947917,-73.16407063802083,-9.848857821600001,-0.8685946038000001,0.5096712138,0.0,0.0,0.0,-0.025350907293999997,0.033903020597999996,0.032375857508,0.0,0.0,0.0,-0.51736,-19.0037,-0.4814,0.0,0.0,0.0,-4.924428910800001,-0.43429730190000004,0.2548356069,-0.012675453646999998,0.016951510298999998,0.016187928754,-0.25868,-9.50185,-0.2407,-0.47072,11.768,4.23648,1.0113890944979027,0.0
193505,0,-1377,-119,75,-195,102,100,-892,-32765,-830,0,0,0,0,0,0,0,0,0,-48,304,192,0.0,0.0,22.85,1.0114088329632371,4449.48779296875,-7309.84423828125,40.79999923706055,11.7212495803833,0,0,0.0,0.0,0.0,0.0,0.2912001810793057,0.0,0.0,-0.1218818403613056,-0.8542376681999999,0.5383850849999999,9.8847501606,0.0,0.0,0.0,0.0,7,44.82479654947917,-73.16407063802083,-9.884750160600001,-0.8542376682,0.538385085,0.0,0.0,0.0,-0.05955936051,0.031154127036,0.0305432618,0.0,0.0,0.0,-0.51736,-19.0037,-0.4814,0.0,0.0,0.0,-4.942375080300001,-0.4271188341,0.2691925425,-0.029779680255,0.015577063518,0.0152716309,-0.25868,-9.50185,-0.2407,-1.41216,8.94368,5.64864,1.0114088329632371,0.0
193610,0,-1381,-110,70,-114,101,104,-908,-32765,-867,0,0,0,0,0,0,0,0,0,-16,384,128,0.0,0.0,22.85,1.0112904021712312,4449.48779296875,-7309.84423828125,40.79999923706055,11.717499732971191,0,0,0.0,0.0,0.0,0.0,0.2599218704085488,0.0,0.0,-0.1317227800736931,-0.7896314579999999,0.5024927459999999,9.913464031799998,0.0,0.0,0.0,0.0,7,44.82479654947917,-73.16407063802083,-9.9134640318,-0.789631458,0.502492746,0.0,0.0,0.0,-0.034819318451999995,0.030848694418,0.031764992272,0.0,0.0,0.0,-0.52664,-19.0037,-0.50286,0.0,0.0,0.0,-4.9567320159,-0.394815729,0.251246373,-0.017409659225999997,0.015424347209,0.015882496136,-0.26332,-9.50185,-0.25143,-0.47072,11.29728,3.76576,1.0112904021712312,0.0
193716,0,-1371,-113,66,37,94,106,-908,-32765,-867,0,0,0,0,0,0,0,0,0,-16,400,176,0.0,0.0,22.85,1.0114088329632371,4449.48779296875,-7309.84423828125,40.79999923706055,11.728750228881836,0,0,0.0,0.0,0.0,0.0,0.2894905888075128,0.0,0.0,-0.0809717791792404,-0.8111668613999999,0.4737788747999999,9.8416793538,0.0,0.0,0.0,0.0,7,44.82479654947917,-73.16407063802083,-9.8416793538,-0.8111668614,0.4737788748,0.0,0.0,0.0,0.011301006866,0.028710666091999997,0.032375857508,0.0,0.0,0.0,-0.52664,-19.0037,-0.50286,0.0,0.0,0.0,-4.9208396769,-0.4055834307,0.2368894374,0.005650503433,0.014355333045999999,0.016187928754,-0.26332,-9.50185,-0.25143,-0.47072,11.768,5.17792,1.0114088329632371,0.0
193820,0,-1370,-115,66,116,96,112,-897,-32765,-854,0,0,0,0,0,0,0,0,0,-64,320,128,0.0,0.0,22.85,1.0114581791265729,4449.48779296875,-7309.84423828125,40.79999923706055,11.71875,0,0,0.0,0.0,0.0,0.0,0.2983430911049317,0.0,0.0,-0.0547297553916032,-0.8255237969999999,0.4737788747999999,9.834500886,0.0,0.0,0.0,0.0,7,44.82479654947917,-73.16407063802083,-9.834500886,-0.825523797,0.4737788748,0.0,0.0,0.0,0.035430183688,0.029321531328,0.034208453215999995,0.0,0.0,0.0,-0.5202600000000001,-19.0037,-0.49532,0.0,0.0,0.0,-4.917250443,-0.4127618985,0.2368894374,0.017715091844,0.014660765664,0.017104226607999998,-0.26013000000000003,-9.50185,-0.24766,-1.88288,9.4144,3.76576,1.0114581791265729,0.0
193925,0,-1375,-119,61,-4,108,112,-897,-32765,-854,0,0,0,0,0,0,0,0,0,-64,416,112,0.0,0.0,22.86,1.0114877868245744,4449.48779296875,-7309.84423828125,40.79999923706055,11.720000267028809,0,0,0.0,0.0,0.0,0.0,0.2266263392485026,0.0,0.0,-0.1168424026491318,-0.8542376681999999,0.4378865358,9.870393225,0.0,0.0,0.0,0.0,7,44.82479654947917,-73.16407063802083,-9.870393225,-0.8542376682,0.43788653580000003,0.0,0.0,0.0,-0.001221730472,0.032986722744,0.034208453215999995,0.0,0.0,0.0,-0.5202600000000001,-19.0037,-0.49532,0.0,0.0,0.0,-4.9351966125,-0.4271188341,0.21894326790000002,-0.000610865236,0.016493361372,0.017104226607999998,-0.26013000000000003,-9.50185,-0.24766,-1.88288,12.23872,3.29504,1.0114877868245744,0.0
194037,0,-1376,-113,67,-82,104,121,-914,-32765,-853,0,0,0,0,0,0,0,0,0,-48,448,160,0.0,0.0,22.86,1.0113693560325685,4449.48779296875,-7309.84423828125,41.0,11.720000267028809,0,0,0.0,0.0,0.0,0.0,0.2215086910015281,0.0,0.0,-0.1024494109140943,-0.8111668613999999,0.4809573425999999,9.877571692799998,0.0,0.0,0.0,0.0,7,44.82479654947917,-73.16407063802083,-9.8775716928,-0.8111668614,0.4809573426,0.0,0.0,0.0,-0.025045474675999997,0.031764992272,0.036957346778,0.0,0.0,0.0,-0.53012,-19.0037,-0.49474,0.0,0.0,0.0,-4.9387858464,-0.4055834307,0.2404786713,-0.012522737337999999,0.015882496136,0.018478673389,-0.26506,-9.50185,-0.24737,-1.41216,13.18016,4.7072,1.0113693560325685,0.0
194137,0,-1373,-121,62,-38,109,102,-914,-32765,-853,0,0,0,0,0,0,0,0,0,-80,384,208,0.0,0.0,22.86,1.0114779175919073,4449.48779296875,-7309.84423828125,41.0,11.72249984741211,0,0,0.0,0.0,0.0,0.0,0.165082641020117,0.0,0.0,-0.1435874015387496,-0.8685946038,0.4450650035999999,9.8560362894,0.0,0.0,0.0,0.0,7,44.82479654947917,-73.16407063802083,-9.8560362894,-0.8685946038000001,0.4450650036,0.0,0.0,0.0,-0.011606439484,0.033292155361999996,0.031154127036,0.0,0.0,0.0,-0.53012,-19.0037,-0.49474,0.0,0.0,0.0,-4.9280181447,-0.43429730190000004,0.2225325018,-0.005803219742,0.016646077680999998,0.015577063518,-0.26506,-9.50185,-0.24737,-2.3536,11.29728,6.11936,1.0114779175919073,0.0
194242,0,-1377,-119,64,-70,102,103,-889,-32765,-875,0,0,0,0,0,0,0,0,0,-16,400,160,0.0,0.0,22.87,1.011438440661239,4449.48779296875,-7309.84423828125,41.0,11.720000267028809,0,0,0.0,0.0,0.0,0.0,0.1363790621349015,0.0,0.0,-0.1514962343048453,-0.8542376681999999,0.4594219391999999,9.8847501606,0.0,0.0,0.0,0.0,7,44.82479654947917,-73.16407063802083,-9.884750160600001,-0.8542376682,0.4594219392,0.0,0.0,0.0,-0.021380283259999997,0.031154127036,0.031459559654,0.0,0.0,0.0,-0.51562,-19.0037,-0.5075,0.0,0.0,0.0,-4.942375080300001,-0.4271188341,0.2297109696,-0.010690141629999999,0.015577063518,0.015729779827,-0.25781,-9.50185,-0.25375,-0.47072,11.768,4.7072,1.011438440661239,0.0
194347,0,-1373,-113,69,-130,109,105,-889,-32765,-875,0,0,0,0,0,0,0,0,0,-32,384,128,0.0,0.0,22.87,1.0113298791019,4449.48779296875,-7309.84423828125,41.0,11.72249984741211,0,0,0.0,0.0,0.0,0.0,0.1869940533326999,0.0,0.0,-0.0750997442909509,-0.8111668613999999,0.4953142781999999,9.8560362894,0.0,0.0,0.0,0.0,7,44.82479654947917,-73.16407063802083,-9.8560362894,-0.8111668614,0.4953142782,0.0,0.0,0.0,-0.03970624034,0.033292155361999996,0.03207042489,0.0,0.0,0.0,-0.51562,-19.0037,-0.5075,0.0,0.0,0.0,-4.9280181447,-0.4055834307,0.2476571391,-0.01985312017,0.016646077680999998,0.016035212445,-0.25781,-9.50185,-0.25375,-0.94144,11.29728,3.76576,1.0113298791019,0.0
194452,0,-1375,-111,67,-165,96,106,-892,-32765,-876,0,0,0,0,0,0,0,0,0,16,384,208,0.0,0.0,22.87,1.0114483098939058,4449.48779296875,-7309.84423828125,41.0,11.720000267028809,0,0,0.0,0.0,0.0,0.0,0.2710640980268162,0.0,0.0,0.0259091715614388,-0.7968099258,0.4809573425999999,9.870393225,0.0,0.0,0.0,0.0,7,44.82479654947917,-73.16407063802083,-9.870393225,-0.7968099258,0.4809573426,0.0,0.0,0.0,-0.050396381969999994,0.029321531328,0.032375857508,0.0,0.0,0.0,-0.51736,-19.0037,-0.50808,0.0,0.0,0.0,-4.9351966125,-0.3984049629,0.2404786713,-0.025198190984999997,0.014660765664,0.016187928754,-0.25868,-9.50185,-0.25404,0.47072,11.29728,6.11936,1.0114483098939058,0.0
194557,0,-1376,-109,68,-127,99,112,-892,-32765,-876,0,0,0,0,0,0,0,0,0,-32,432,176,0.0,0.0,22.88,1.01139896373057,4449.48779296875,-7309.84423828125,41.0,11.720000267028809,0,0,0.0,0.0,0.0,0.0,0.2259485853812813,0.0,0.0,-0.0156642610311307,-0.7824529901999999,0.4881358104,9.877571692799998,0.0,0.0,0.0,0.0,7,44.82479654947917,-73.16407063802083,-9.8775716928,-0.7824529902,0.48813581040000004,0.0,0.0,0.0,-0.038789942486,0.030237829182,0.034208453215999995,0.0,0.0,0.0,-0.51736,-19.0037,-0.50808,0.0,0.0,0.0,-4.9387858464,-0.3912264951,0.24406790520000002,-0.019394971243,0.015118914591,0.017104226607999998,-0.25868,-9.50185,-0.25404,-0.94144,12.70944,5.17792,1.01139896373057,0.0
194663,0,-1375,-114,65,24,102,113,-912,-32765,-873,0,0,0,0,0,0,0,0,0,32,400,256,0.0,0.0,22.88,1.011339748334567,4449.48779296875,-7309.84423828125,41.0,11.729999542236328,0,0,0.0,0.0,0.0,0.0,0.2379753123867817,0.0,0.0,0.0073809674798256,-0.8183453291999999,0.4666004069999999,9.870393225,0.0,0.0,0.0,0.0,7,44.82479654947917,-73.16407063802083,-9.870393225,-0.8183453292,0.466600407,0.0,0.0,0.0,0.007330382832,0.031154127036,0.034513885833999995,0.0,0.0,0.0,-0.52896,-19.0037,-0.50634,0.0,0.0,0.0,-4.9351966125,-0.4091726646,0.2333002035,0.003665191416,0.015577063518,0.017256942916999998,-0.26448,-9.50185,-0.25317,0.94144,11.768,7.53152,1.011339748334567,0.0
194767,0,-1377,-113,63,112,97,116,-912,-32765,-873,0,0,0,0,0,0,0,0,0,-48,368,144,0.0,0.0,22.88,1.0114581791265729,4449.48779296875,-7309.84423828125,41.0,11.717499732971191,0,0,0.0,0.0,0.0,0.0,0.2819948402696627,0.0,0.0,0.0586622802041926,-0.8111668613999999,0.4522434714,9.8847501606,0.0,0.0,0.0,0.0,7,44.82479654947917,-73.16407063802083,-9.884750160600001,-0.8111668614,0.45224347140000004,0.0,0.0,0.0,0.034208453215999995,0.029626963946,0.035430183688,0.0,0.0,0.0,-0.52896,-19.0037,-0.50634,0.0,0.0,0.0,-4.942375080300001,-0.4055834307,0.22612173570000002,0.017104226607999998,0.014813481973,0.017715091844,-0.26448,-9.50185,-0.25317,-1.41216,10.82656,4.23648,1.0114581791265729,0.0
194872,0,-1379,-124,65,82,104,108,-897,-32765,-875,0,0,0,0,0,0,0,0,0,-32,384,160,0.0,0.0,22.88,1.01139896373057,4449.48779296875,-7309.84423828125,41.0,11.7162504196167,0,0,0.0,0.0,0.0,0.0,0.3062796246323482,0.0,0.0,0.0826513411094588,-0.8901300071999999,0.4666004069999999,9.8991070962,0.0,0.0,0.0,0.0,7,44.82479654947917,-73.16407063802083,-9.8991070962,-0.8901300072,0.466600407,0.0,0.0,0.0,0.025045474675999997,0.031764992272,0.032986722744,0.0,0.0,0.0,-0.5202600000000001,-19.0037,-0.5075,0.0,0.0,0.0,-4.9495535481,-0.4450650036,0.2333002035,0.012522737337999999,0.015882496136,0.016493361372,-0.26013000000000003,-9.50185,-0.25375,-0.94144,11.29728,4.7072,1.01139896373057,0.0
194977,0,-1378,-116,67,-140,98,107,-897,-32765,-875,0,0,0,0,0,0,0,0,0,-16,368,176,0.0,0.0,22.88,1.0114088329632371,4449.48779296875,-7309.84423828125,41.0,11.720000267028809,0,0,0.0,0.0,0.0,0.0,0.3075574734543867,0.0,0.0,0.083007482929804,-0.8327022648,0.4809573425999999,9.8919286284,0.0,0.0,0.0,0.0,7,44.82479654947917,-73.16407063802083,-9.8919286284,-0.8327022648,0.4809573426,0.0,0.0,0.0,-0.042760566519999994,0.029932396564,0.032681290126,0.0,0.0,0.0,-0.5202600000000001,-19.0037,-0.5075,0.0,0.0,0.0,-4.9459643142,-0.4163511324,0.2404786713,-0.021380283259999997,0.014966198282,0.016340645063,-0.26013000000000003,-9.50185,-0.25375,-0.47072,10.82656,5.17792,1.0114088329632371,0.0
195082,0,-1374,-119,69,-151,105,105,-912,-32765,-936,0,0,0,0,0,0,0,0,0,-16,288,192,0.0,0.0,22.89,1.0113693560325685,4449.48779296875,-7309.84423828125,41.0,11.7212495803833,0,0,0.0,0.0,0.0,0.0,0.3605728373975359,0.0,0.0,0.1346248663167196,-0.8542376681999999,0.4953142781999999,9.8632147572,0.0,0.0,0.0,0.0,7,44.82479654947917,-73.16407063802083,-9.8632147572,-0.8542376682,0.4953142782,0.0,0.0,0.0,-0.046120325318,0.03207042489,0.03207042489,0.0,0.0,0.0,-0.52896,-19.0037,-0.54288,0.0,0.0,0.0,-4.9316073786,-0.4271188341,0.2476571391,-0.023060162659,0.016035212445,0.016035212445,-0.26448,-9.50185,-0.27144,-0.47072,8.47296,5.64864,1.0113693560325685,0.0
195187,0,-1380,-118,70,-30,99,104,-912,-32765,-936,0,0,0,0,0,0,0,0,0,-80,336,160,0.0,0.0,22.88,1.0114187021959042,4449.48779296875,-7309.84423828125,41.0,11.71875,0,0,0.0,0.0,0.0,0.0,0.3696382864463681,0.0,0.0,0.1352532259843691,-0.8470592003999999,0.5024927459999999,9.906285564,0.0,0.0,0.0,0.0,7,44.82479654947917,-73.16407063802083,-9.906285564000001,-0.8470592004,0.502492746,0.0,0.0,0.0,-0.00916297854,0.030237829182,0.031764992272,0.0,0.0,0.0,-0.52896,-19.0037,-0.54288,0.0,0.0,0.0,-4.9531427820000005,-0.4235296002,0.251246373,-0.00458148927,0.015118914591,0.015882496136,-0.26448,-9.50185,-0.27144,-2.3536,9.88512,4.7072,1.0114187021959042,0.0
195292,0,-1371,-110,67,11,108,105,-900,-32765,-862,0,0,0,0,0,0,0,0,0,-48,416,112,0.0,0.0,22.89,1.0114877868245744,4449.48779296875,-7309.84423828125,41.0,11.720000267028809,0,0,0.0,0.0,0.0,0.0,0.2906258276424646,0.0,0.0,0.0471172758159068,-0.7896314579999999,0.4809573425999999,9.8416793538,0.0,0.0,0.0,0.0,7,44.82479654947917,-73.16407063802083,-9.8416793538,-0.789631458,0.4809573426,0.0,0.0,0.0,0.003359758798,0.032986722744,0.03207042489,0.0,0.0,0.0,-0.522,-19.0037,-0.49996,0.0,0.0,0.0,-4.9208396769,-0.394815729,0.2404786713,0.001679879399,0.016493361372,0.016035212445,-0.261,-9.50185,-0.24998,-1.41216,12.23872,3.29504,1.0114877868245744,0.0
195397,0,-1376,-110,67,-20,105,113,-900,-32765,-862,0,0,0,0,0,0,0,0,0,-16,352,144,0.0,0.0,22.89,1.011438440661239,4449.48779296875,-7309.84423828125,41.0,11.720000267028809,0,0,0.0,0.0,0.0,0.0,0.331833276805683,0.0,0.0,0.0877649345469805,-0.7896314579999999,0.4809573425999999,9.877571692799998,0.0,0.0,0.0,0.0,7,44.82479654947917,-73.16407063802083,-9.8775716928,-0.789631458,0.4809573426,0.0,0.0,0.0,-0.0061086523599999994,0.03207042489,0.034513885833999995,0.0,0.0,0.0,-0.522,-19.0037,-0.49996,0.0,0.0,0.0,-4.9387858464,-0.394815729,0.2404786713,-0.0030543261799999997,0.016035212445,0.017256942916999998,-0.261,-9.50185,-0.24998,-0.47072,10.35584,4.23648,1.011438440661239,0.0
195502,0,-1378,-120,69,-75,105,114,-899,-32765,-855,0,0,0,0,0,0,0,0,0,-80,384,144,0.0,0.0,22.89,1.011438440661239,4449.48779296875,-7309.84423828125,41.0,11.7212495803833,0,0,0.0,0.0,0.0,0.0,0.3159430451311837,0.0,0.0,0.0646343258031352,-0.8614161359999999,0.4953142781999999,9.8919286284,0.0,0.0,0.0,0.0,7,44.82479654947917,-73.16407063802083,-9.8919286284,-0.861416136,0.4953142782,0.0,0.0,0.0,-0.02290744635,0.03207042489,0.034819318451999995,0.0,0.0,0.0,-0.52142,-19.0037,-0.4959,0.0,0.0,0.0,-4.9459643142,-0.430708068,0.2476571391,-0.011453723175,0.016035212445,0.017409659225999997,-0.26071,-9.50185,-0.24795,-2.3536,11.29728,4.23648,1.011438440661239,0.0
195607,0,-1373,-120,71,-62,101,112,-899,-32765,-855,0,0,0,0,0,0,0,0,0,-16,416,208,0.0,0.0,22.9,1.011349617567234,4449.48779296875,-7309.84423828125,41.0,11.7162504196167,0,0,0.0,0.0,0.0,0.0,0.3701323229853976,0.0,0.0,0.1187731531366629,-0.8614161359999999,0.5096712137999999,9.8560362894,0.0,0.0,0.0,0.0,7,44.82479654947917,-73.16407063802083,-9.8560362894,-0.861416136,0.5096712138,0.0,0.0,0.0,-0.018936822316,0.030848694418,0.034208453215999995,0.0,0.0,0.0,-0.52142,-19.0037,-0.4959,0.0,0.0,0.0,-4.9280181447,-0.430708068,0.2548356069,-0.009468411158,0.015424347209,0.017104226607999998,-0.26071,-9.50185,-0.24795,-0.47072,12.23872,6.11936,1.011349617567234,0.0
195713,0,-1380,-117,67,2,108,116,-888,-32765,-855,0,0,0,0,0,0,0,0,0,-16,352,144,0.0,0.0,22.9,1.011339748334567,4449.48779296875,-7309.84423828125,41.0,11.725000381469728,0,0,0.0,0.0,0.0,0.0,0.3671852762117203,0.0,0.0,0.1119190250363518,-0.8398807326,0.4809573425999999,9.906285564,0.0,0.0,0.0,0.0,7,44.82479654947917,-73.16407063802083,-9.906285564000001,-0.8398807326000001,0.4809573426,0.0,0.0,0.0,0.000610865236,0.032986722744,0.035430183688,0.0,0.0,0.0,-0.51504,-19.0037,-0.4959,0.0,0.0,0.0,-4.9531427820000005,-0.41994036630000003,0.2404786713,0.000305432618,0.016493361372,0.017715091844,-0.25752,-9.50185,-0.24795,-0.47072,10.35584,4.23648,1.011339748334567,0.0
195817,0,-1377,-116,69,-18,107,109,-888,-32765,-855,0,0,0,0,0,0,0,0,0,-32,384,112,0.0,0.0,22.9,1.0114483098939058,4449.48779296875,-7309.84423828125,41.0,11.71875,0,0,0.0,0.0,0.0,0.0,0.3458592067608073,0.0,0.0,0.0851577123531416,-0.8327022648,0.4953142781999999,9.8847501606,0.0,0.0,0.0,0.0,7,44.82479654947917,-73.16407063802083,-9.884750160600001,-0.8327022648,0.4953142782,0.0,0.0,0.0,-0.005497787124,0.032681290126,0.033292155361999996,0.0,0.0,0.0,-0.51504,-19.0037,-0.4959,0.0,0.0,0.0,-4.942375080300001,-0.4163511324,0.2476571391,-0.002748893562,0.016340645063,0.016646077680999998,-0.25752,-9.50185,-0.24795,-0.94144,11.29728,3.29504,1.0114483098939058,0.0
195922,0,-1375,-109,69,-90,109,105,-894,-32765,-854,0,0,0,0,0,0,0,0,0,-16,464,160,0.0,0.0,22.9,1.0114483098939058,4449.48779296875,-7309.84423828125,41.0,11.71875,0,0,0.0,0.0,0.0,0.0,0.3210936857574482,0.0,0.0,0.05465117018694,-0.7824529901999999,0.4953142781999999,9.870393225,0.0,0.0,0.0,0.0,7,44.82479654947917,-73.16407063802083,-9.870393225,-0.7824529902,0.4953142782,0.0,0.0,0.0,-0.02748893562,0.033292155361999996,0.03207042489,0.0,0.0,0.0,-0.51852,-19.0037,-0.49532,0.0,0.0,0.0,-4.9351966125,-0.3912264951,0.2476571391,-0.01374446781,0.016646077680999998,0.016035212445,-0.25926,-9.50185,-0.24766,-0.47072,13.65088,4.7072,1.0114483098939058,0.0
196027,0,-1377,-111,67,-126,103,109,-894,-32765,-854,0,0,0,0,0,0,0,0,0,-32,320,176,0.0,0.0,22.91,1.0114187021959042,4449.48779296875,-7309.84423828125,41.0,11.720000267028809,0,0,0.0,0.0,0.0,0.0,0.3655040441507554,0.0,0.0,0.101020092426029,-0.7968099258,0.4809573425999999,9.8847501606,0.0,0.0,0.0,0.0,7,44.82479654947917,-73.16407063802083,-9.884750160600001,-0.7968099258,0.4809573426,0.0,0.0,0.0,-0.038484509868,0.031459559654,0.033292155361999996,0.0,0.0,0.0,-0.51852,-19.0037,-0.49532,0.0,0.0,0.0,-4.942375080300001,-0.3984049629,0.2404786713,-0.019242254934,0.015729779827,0.016646077680999998,-0.25926,-9.50185,-0.24766,-0.94144,9.4144,5.17792,1.0114187021959042,0.0
196132,0,-1376,-111,71,-99,105,113,-910,-32765,-937,0,0,0,0,0,0,0,0,0,-16,416,144,0.0,0.0,22.91,1.0113002714038983,4449.48779296875,-7309.84423828125,41.0,11.71875,0,0,0.0,0.0,0.0,0.0,0.369479732483975,0.0,0.0,0.100593395370816,-0.7968099258,0.5096712137999999,9.877571692799998,0.0,0.0,0.0,0.0,7,44.82479654947917,-73.16407063802083,-9.8775716928,-0.7968099258,0.5096712138,0.0,0.0,0.0,-0.030237829182,0.03207042489,0.034513885833999995,0.0,0.0,0.0,-0.5278,-19.0037,-0.54346,0.0,0.0,0.0,-4.9387858464,-0.3984049629,0.2548356069,-0.015118914591,0.016035212445,0.017256942916999998,-0.2639,-9.50185,-0.27173,-0.47072,12.23872,4.23648,1.0113002714038983,0.0
196237,0,-1373,-116,74,7,98,121,-910,-32765,-937,0,0,0,0,0,0,0,0,0,-16,336,160,0.0,0.0,22.91,1.0114187021959042,4449.48779296875,-7309.84423828125,41.0,11.7212495803833,0,0,0.0,0.0,0.0,0.0,0.3870334181584456,0.0,0.0,0.1157248611226953,-0.8327022648,0.5312066172,9.8560362894,0.0,0.0,0.0,0.0,7,44.82479654947917,-73.16407063802083,-9.8560362894,-0.8327022648,0.5312066172000001,0.0,0.0,0.0,0.0021380283259999997,0.029932396564,0.036957346778,0.0,0.0,0.0,-0.5278,-19.0037,-0.54346,0.0,0.0,0.0,-4.9280181447,-0.4163511324,0.26560330860000003,0.0010690141629999999,0.014966198282,0.018478673389,-0.2639,-9.50185,-0.27173,-0.47072,9.88512,4.7072,1.0114187021959042,0.0
196342,0,-1380,-119,73,69,101,110,-916,-32765,-903,0,0,0,0,0,0,0,0,0,-48,320,208,0.0,0.0,22.91,1.0114779175919073,4449.48779296875,-7309.84423828125,41.0,11.720000267028809,0,0,0.0,0.0,0.0,0.0,0.3653125492310165,0.0,0.0,0.0884579543813565,-0.8542376681999999,0.5240281494,9.906285564,0.0,0.0,0.0,0.0,7,44.82479654947917,-73.16407063802083,-9.906285564000001,-0.8542376682,0.5240281494,0.0,0.0,0.0,0.021074850641999997,0.030848694418,0.033597587979999996,0.0,0.0,0.0,-0.53128,-19.0037,-0.52374,0.0,0.0,0.0,-4.9531427820000005,-0.4271188341,0.2620140747,0.010537425320999999,0.015424347209,0.016798793989999998,-0.26564,-9.50185,-0.26187,-1.41216,9.4144,6.11936,1.0114779175919073,0.0
196447,0,-1375,-117,67,26,99,117,-914,-32765,-894,0,0,0,0,0,0,0,0,0,-64,416,128,0.0,0.0,22.92,1.0114877868245744,4449.48779296875,-7309.84423828125,41.0,11.71875,0,0,0.0,0.0,0.0,0.0,0.3241878746314318,0.0,0.0,0.0425043446216682,-0.8398807326,0.4809573425999999,9.870393225,0.0,0.0,0.0,0.0,7,44.82479654947917,-73.16407063802083,-9.870393225,-0.8398807326000001,0.4809573426,0.0,0.0,0.0,0.007941248068,0.030237829182,0.035735616306,0.0,0.0,0.0,-0.53012,-19.0037,-0.51852,0.0,0.0,0.0,-4.9351966125,-0.41994036630000003,0.2404786713,0.003970624034,0.015118914591,0.017867808153,-0.26506,-9.50185,-0.25926,-1.88288,12.23872,3.76576,1.0114877868245744,0.0
196552,0,-1373,-118,69,-63,101,108,-914,-32765,-894,0,0,0,0,0,0,0,0,0,-48,352,80,0.0,0.0,22.92,1.0114285714285711,4449.48779296875,-7309.84423828125,41.0,11.71875,0,0,0.0,0.0,0.0,0.0,0.3565258170185302,0.0,0.0,0.0768639660926655,-0.8470592003999999,0.4953142781999999,9.8560362894,0.0,0.0,0.0,0.0,7,44.82479654947917,-73.16407063802083,-9.8560362894,-0.8470592004,0.4953142782,0.0,0.0,0.0,-0.019242254934,0.030848694418,0.032986722744,0.0,0.0,0.0,-0.53012,-19.0037,-0.51852,0.0,0.0,0.0,-4.9280181447,-0.4235296002,0.2476571391,-0.009621127467,0.015424347209,0.016493361372,-0.26506,-9.50185,-0.25926,-1.41216,10.35584,2.3536,1.0114285714285711,0.0
196657,0,-1379,-119,70,-70,101,98,-904,-32765,-905,0,0,0,0,0,0,0,0,0,-16,384,192,0.0,0.0,22.92,1.011438440661239,4449.48779296875,-7309.84423828125,41.0,11.717499732971191,0,0,0.0,0.0,0.0,0.0,0.3290668283190731,0.0,0.0,0.0475511311956859,-0.8542376681999999,0.5024927459999999,9.8991070962,0.0,0.0,0.0,0.0,7,44.82479654947917,-73.16407063802083,-9.8991070962,-0.8542376682,0.502492746,0.0,0.0,0.0,-0.021380283259999997,0.030848694418,0.029932396564,0.0,0.0,0.0,-0.52432,-19.0037,-0.5249,0.0,0.0,0.0,-4.9495535481,-0.4271188341,0.251246373,-0.010690141629999999,0.015424347209,0.014966198282,-0.26216,-9.50185,-0.26245,-0.47072,11.29728,5.64864,1.011438440661239,0.0
196763,0,-1377,-111,65,-26,103,102,-904,-32765,-905,0,0,0,0,0,0,0,0,0,-80,384,144,0.0,0.0,22.92,1.0113890944979027,4449.48779296875,-7309.84423828125,41.0,11.727499961853027,0,0,0.0,0.0,0.0,0.0,0.351613309290006,0.0,0.0,0.073054627619704,-0.7968099258,0.4666004069999999,9.8847501606,0.0,0.0,0.0,0.0,7,44.82479654947917,-73.16407063802083,-9.884750160600001,-0.7968099258,0.466600407,0.0,0.0,0.0,-0.007941248068,0.031459559654,0.031154127036,0.0,0.0,0.0,-0.52432,-19.0037,-0.5249,0.0,0.0,0.0,-4.942375080300001,-0.3984049629,0.2333002035,-0.003970624034,0.015729779827,0.015577063518,-0.26216,-9.50185,-0.26245,-2.3536,11.29728,4.23648,1.0113890944979027,0.0
196867,0,-1380,-109,71,-56,108,107,-909,-32765,-810,0,0,0,0,0,0,0,0,0,-32,384,192,0.0,0.0,22.93,1.0114483098939058,4449.48779296875,-7309.84423828125,41.09999847412109,11.71875,0,0,0.0,0.0,0.0,0.0,0.2706982435953114,0.0,0.0,-0.012536069372209,-0.7824529901999999,0.5096712137999999,9.906285564,0.0,0.0,0.0,0.0,7,44.82479654947917,-73.16407063802083,-9.906285564000001,-0.7824529902,0.5096712138,0.0,0.0,0.0,-0.017104226607999998,0.032986722744,0.032681290126,0.0,0.0,0.0,-0.52722,-19.0037,-0.4698,0.0,0.0,0.0,-4.9531427820000005,-0.3912264951,0.2548356069,-0.008552113303999999,0.016493361372,0.016340645063,-0.26361,-9.50185,-0.2349,-0.94144,11.29728,5.64864,1.0114483098939058,0.0
196972,0,-1378,-115,67,-88,100,108,-909,-32765,-810,0,0,0,0,0,0,0,0,0,16,368,80,0.0,0.0,22.93,1.011517394522576,4449.48779296875,-7309.84423828125,41.09999847412109,11.717499732971191,0,0,0.0,0.0,0.0,0.0,0.213992105285868,0.0,0.0,-0.0623382906905867,-0.8255237969999999,0.4809573425999999,9.8919286284,0.0,0.0,0.0,0.0,7,44.82479654947917,-73.16407063802083,-9.8919286284,-0.825523797,0.4809573426,0.0,0.0,0.0,-0.026878070384,0.0305432618,0.032986722744,0.0,0.0,0.0,-0.52722,-19.0037,-0.4698,0.0,0.0,0.0,-4.9459643142,-0.4127618985,0.2404786713,-0.013439035192,0.0152716309,0.016493361372,-0.26361,-9.50185,-0.2349,0.47072,10.82656,2.3536,1.011517394522576,0.0
197077,0,-1374,-114,65,-85,97,109,-912,-32765,-865,0,0,0,0,0,0,0,0,0,-16,352,176,0.0,0.0,22.93,1.01146804835924,4449.48779296875,-7309.84423828125,41.09999847412109,11.71875,0,0,0.0,0.0,0.0,0.0,0.2232990161975135,0.0,0.0,-0.0427072142444513,-0.8183453291999999,0.4666004069999999,9.8632147572,0.0,0.0,0.0,0.0,7,44.82479654947917,-73.16407063802083,-9.8632147572,-0.8183453292,0.466600407,0.0,0.0,0.0,-0.02596177253,0.029626963946,0.033292155361999996,0.0,0.0,0.0,-0.52896,-19.0037,-0.5017,0.0,0.0,0.0,-4.9316073786,-0.4091726646,0.2333002035,-0.012980886265,0.014813481973,0.016646077680999998,-0.26448,-9.50185,-0.25085,-0.47072,10.35584,5.17792,1.01146804835924,0.0
197182,0,-1380,-113,65,14,97,111,-912,-32765,-865,0,0,0,0,0,0,0,0,0,-16,384,208,0.0,0.0,22.93,1.01146804835924,4449.48779296875,-7309.84423828125,41.09999847412109,11.71875,0,0,0.0,0.0,0.0,0.0,0.279514543175688,0.0,0.0,0.0248301641771979,-0.8111668613999999,0.4666004069999999,9.906285564,0.0,0.0,0.0,0.0,7,44.82479654947917,-73.16407063802083,-9.906285564000001,-0.8111668614,0.466600407,0.0,0.0,0.0,0.004276056651999999,0.029626963946,0.033903020597999996,0.0,0.0,0.0,-0.52896,-19.0037,-0.5017,0.0,0.0,0.0,-4.9531427820000005,-0.4055834307,0.2333002035,0.0021380283259999997,0.014813481973,0.016951510298999998,-0.26448,-9.50185,-0.25085,-0.47072,11.29728,6.11936,1.01146804835924,0.0
197287,0,-1376,-114,72,84,98,110,-910,-32765,-893,0,0,0,0,0,0,0,0,0,-48,352,192,0.0,0.0,22.94,1.0114779175919073,4449.48779296875,-7309.84423828125,41.09999847412109,11.720000267028809,0,0,0.0,0.0,0.0,0.0,0.1615129349780142,0.0,0.0,-0.0919958715606182,-0.8183453291999999,0.5168496816,9.877571692799998,0.0,0.0,0.0,0.0,7,44.82479654947917,-73.16407063802083,-9.8775716928,-0.8183453292,0.5168496816,0.0,0.0,0.0,0.025656339912,0.029932396564,0.033597587979999996,0.0,0.0,0.0,-0.5278,-19.0037,-0.51794,0.0,0.0,0.0,-4.9387858464,-0.4091726646,0.2584248408,0.012828169956,0.014966198282,0.016798793989999998,-0.2639,-9.50185,-0.25897,-1.41216,10.35584,5.64864,1.0114779175919073,0.0
197392,0,-1379,-117,68,-104,112,107,-910,-32765,-893,0,0,0,0,0,0,0,0,0,0,384,144,0.0,0.0,22.94,1.0114877868245744,4449.48779296875,-7309.84423828125,41.09999847412109,11.720000267028809,0,0,0.0,0.0,0.0,0.0,0.1753542917312635,0.0,0.0,-0.058788158811596,-0.8398807326,0.4881358104,9.8991070962,0.0,0.0,0.0,0.0,7,44.82479654947917,-73.16407063802083,-9.8991070962,-0.8398807326000001,0.48813581040000004,0.0,0.0,0.0,-0.031764992272,0.034208453215999995,0.032681290126,0.0,0.0,0.0,-0.5278,-19.0037,-0.51794,0.0,0.0,0.0,-4.9495535481,-0.41994036630000003,0.24406790520000002,-0.015882496136,0.017104226607999998,0.016340645063,-0.2639,-9.50185,-0.25897,0.0,11.29728,4.23648,1.0114877868245744,0.0
197497,0,-1380,-119,70,-80,100,104,-920,-32765,-869,0,0,0,0,0,0,0,0,0,-16,384,144,0.0,0.0,22.93,1.0114088329632371,4449.48779296875,-7309.84423828125,41.09999847412109,11.720000267028809,0,0,0.0,0.0,0.0,0.0,0.1963478933983797,0.0,0.0,-0.0253155033852948,-0.8542376681999999,0.5024927459999999,9.906285564,0.0,0.0,0.0,0.0,7,44.82479654947917,-73.16407063802083,-9.906285564000001,-0.8542376682,0.502492746,0.0,0.0,0.0,-0.024434609439999998,0.0305432618,0.031764992272,0.0,0.0,0.0,-0.5336,-19.0037,-0.50402,0.0,0.0,0.0,-4.9531427820000005,-0.4271188341,0.251246373,-0.012217304719999999,0.0152716309,0.015882496136,-0.2668,-9.50185,-0.25201,-0.47072,11.29728,4.23648,1.0114088329632371,0.0
197602,0,-1377,-113,68,-47,106,112,-920,-32765,-869,0,0,0,0,0,0,0,0,0,-32,384,208,0.0,0.0,22.94,1.0114779175919073,4449.48779296875,-7309.84423828125,41.09999847412109,11.717499732971191,0,0,0.0,0.0,0.0,0.0,0.2719717259531187,0.0,0.0,0.0630889990651716,-0.8111668613999999,0.4881358104,9.8847501606,0.0,0.0,0.0,0.0,7,44.82479654947917,-73.16407063802083,-9.884750160600001,-0.8111668614,0.48813581040000004,0.0,0.0,0.0,-0.014355333045999999,0.032375857508,0.034208453215999995,0.0,0.0,0.0,-0.5336,-19.0037,-0.50402,0.0,0.0,0.0,-4.942375080300001,-0.4055834307,0.24406790520000002,-0.007177666522999999,0.016187928754,0.017104226607999998,-0.2668,-9.50185,-0.25201,-0.94144,11.29728,6.11936,1.0114779175919073,0.0
197707,0,-1375,-109,71,-40,103,110,-906,-32765,-849,0,0,0,0,0,0,0,0,0,-16,400,192,0.0,0.0,22.95,1.0113792252652356,4449.48779296875,-7309.84423828125,41.09999847412109,11.7162504196167,0,0,0.0,0.0,0.0,0.0,0.3138596730820394,0.0,0.0,0.1039812064860804,-0.7824529901999999,0.5096712137999999,9.870393225,0.0,0.0,0.0,0.0,7,44.82479654947917,-73.16407063802083,-9.870393225,-0.7824529902,0.5096712138,0.0,0.0,0.0,-0.012217304719999999,0.031459559654,0.033597587979999996,0.0,0.0,0.0,-0.5254800000000001,-19.0037,-0.49242,0.0,0.0,0.0,-4.9351966125,-0.3912264951,0.2548356069,-0.0061086523599999994,0.015729779827,0.016798793989999998,-0.26274000000000003,-9.50185,-0.24621,-0.47072,11.768,5.64864,1.0113792252652356,0.0
197813,0,-1378,-112,70,-75,103,113,-906,-32765,-849,0,0,0,0,0,0,0,0,0,-96,416,144,0.0,0.0,22.95,1.0114483098939058,4449.48779296875,-7309.84423828125,41.09999847412109,11.727499961853027,0,0,0.0,0.0,0.0,0.0,0.2453536789618564,0.0,0.0,0.029204641442564,-0.8039883936,0.5024927459999999,9.8919286284,0.0,0.0,0.0,0.0,7,44.82479654947917,-73.16407063802083,-9.8919286284,-0.8039883936000001,0.502492746,0.0,0.0,0.0,-0.02290744635,0.031459559654,0.034513885833999995,0.0,0.0,0.0,-0.5254800000000001,-19.0037,-0.49242,0.0,0.0,0.0,-4.9459643142,-0.40199419680000004,0.251246373,-0.011453723175,0.015729779827,0.017256942916999998,-0.26274000000000003,-9.50185,-0.24621,-2.82432,12.23872,4.23648,1.0114483098939058,0.0
197917,0,-1373,-117,71,-34,102,116,-888,-32765,-863,0,0,0,0,0,0,0,0,0,-32,384,144,0.0,0.0,22.95,1.0115075252899086,4449.48779296875,-7309.84423828125,41.09999847412109,11.71875,0,0,0.0,0.0,0.0,0.0,0.2682452854826357,0.0,0.0,0.0546246100919921,-0.8398807326,0.5096712137999999,9.8560362894,0.0,0.0,0.0,0.0,7,44.82479654947917,-73.16407063802083,-9.8560362894,-0.8398807326000001,0.5096712138,0.0,0.0,0.0,-0.010384709011999999,0.031154127036,0.035430183688,0.0,0.0,0.0,-0.51504,-19.0037,-0.50054,0.0,0.0,0.0,-4.9280181447,-0.41994036630000003,0.2548356069,-0.005192354505999999,0.015577063518,0.017715091844,-0.25752,-9.50185,-0.25027,-0.94144,11.29728,4.23648,1.0115075252899086,0.0
198022,0,-1378,-120,73,16,101,115,-888,-32765,-863,0,0,0,0,0,0,0,0,0,-64,368,176,0.0,0.0,22.95,1.0115568714532446,4449.48779296875,-7309.84423828125,41.09999847412109,11.71875,0,0,0.0,0.0,0.0,0.0,0.2750508760472281,0.0,0.0,0.0611850978532268,-0.8614161359999999,0.5240281494,9.8919286284,0.0,0.0,0.0,0.0,7,44.82479654947917,-73.16407063802083,-9.8919286284,-0.861416136,0.5240281494,0.0,0.0,0.0,0.004886921888,0.030848694418,0.035124751069999995,0.0,0.0,0.0,-0.51504,-19.0037,-0.50054,0.0,0.0,0.0,-4.9459643142,-0.430708068,0.2620140747,0.002443460944,0.015424347209,0.017562375534999997,-0.25752,-9.50185,-0.25027,-1.88288,10.82656,5.17792,1.0115568714532446,0.0
198127,0,-1376,-118,73,-42,99,103,-888,-32765,-863,0,0,0,0,0,0,0,0,0,-80,416,192,0.0,0.0,22.95,1.0114581791265729,4449.48779296875,-7309.84423828125,41.09999847412109,11.720000267028809,0,0,0.0,0.0,0.0,0.0,0.3469983718414977,0.0,0.0,0.1356474155086303,-0.8470592003999999,0.5240281494,9.877571692799998,0.0,0.0,0.0,0.0,7,44.82479654947917,-73.16407063802083,-9.8775716928,-0.8470592004,0.5240281494,0.0,0.0,0.0,-0.012828169956,0.030237829182,0.031459559654,0.0,0.0,0.0,-0.51504,-19.0037,-0.50054,0.0,0.0,0.0,-4.9387858464,-0.4235296002,0.2620140747,-0.006414084978,0.015118914591,0.015729779827,-0.25752,-9.50185,-0.25027,-2.3536,12.23872,5.64864,1.0114581791265729,0.0
198232,0,-1378,-111,65,-31,98,110,-888,-32765,-863,0,0,0,0,0,0,0,0,0,-80,320,192,0.0,0.0,22.95,1.011349617567234,4449.48779296875,-7309.84423828125,41.09999847412109,11.7162504196167,0,0,0.0,0.0,0.0,0.0,0.3831503184731043,0.0,0.0,0.1654127075507257,-0.7968099258,0.4666004069999999,9.8919286284,0.0,0.0,0.0,0.0,7,44.82479654947917,-73.16407063802083,-9.8919286284,-0.7968099258,0.466600407,0.0,0.0,0.0,-0.009468411158,0.029932396564,0.033597587979999996,0.0,0.0,0.0,-0.51504,-19.0037,-0.50054,0.0,0.0,0.0,-4.9459643142,-0.3984049629,0.2333002035,-0.004734205579,0.014966198282,0.016798793989999998,-0.25752,-9.50185,-0.25027,-2.3536,9.4144,5.64864,1.011349617567234,0.0
198337,0,-1377,-115,66,-46,104,110,-883,-32765,-842,0,0,0,0,0,0,0,0,0,-64,352,160,0.0,0.0,22.96,1.0114779175919073,4449.48779296875,-7309.84423828125,41.09999847412109,11.71875,0,0,0.0,0.0,0.0,0.0,0.3853290256068959,0.0,0.0,0.1546337396798378,-0.8255237969999999,0.4737788747999999,9.8847501606,0.0,0.0,0.0,0.0,7,44.82479654947917,-73.16407063802083,-9.884750160600001,-0.825523797,0.4737788748,0.0,0.0,0.0,-0.014049900427999999,0.031764992272,0.033597587979999996,0.0,0.0,0.0,-0.51214,-19.0037,-0.48836,0.0,0.0,0.0,-4.942375080300001,-0.4127618985,0.2368894374,-0.0070249502139999994,0.015882496136,0.016798793989999998,-0.25607,-9.50185,-0.24418,-1.88288,10.35584,4.7072,1.0114779175919073,0.0
198442,0,-1377,-118,72,-42,107,115,-883,-32765,-842,0,0,0,0,0,0,0,0,0,-32,352,160,0.0,0.0,22.96,1.01146804835924,4449.48779296875,-7309.84423828125,41.09999847412109,11.71875,0,0,0.0,0.0,0.0,0.0,0.4244467541133849,0.0,0.0,0.1843691507656932,-0.8470592003999999,0.5168496816,9.8847501606,0.0,0.0,0.0,0.0,7,44.82479654947917,-73.16407063802083,-9.884750160600001,-0.8470592004,0.5168496816,0.0,0.0,0.0,-0.012828169956,0.032681290126,0.035124751069999995,0.0,0.0,0.0,-0.51214,-19.0037,-0.48836,0.0,0.0,0.0,-4.942375080300001,-0.4235296002,0.2584248408,-0.006414084978,0.016340645063,0.017562375534999997,-0.25607,-9.50185,-0.24418,-0.94144,10.35584,4.7072,1.01146804835924,0.0
198548,0,-1376,-116,72,-63,108,106,-914,-32765,-855,0,0,0,0,0,0,0,0,0,-16,320,256,0.0,0.0,22.97,1.0113693560325685,4449.48779296875,-7309.84423828125,41.09999847412109,11.720000267028809,0,0,0.0,0.0,0.0,0.0,0.4087316064316045,0.0,0.0,0.1546604848869912,-0.8327022648,0.5168496816,9.877571692799998,0.0,0.0,0.0,0.0,7,44.82479654947917,-73.16407063802083,-9.8775716928,-0.8327022648,0.5168496816,0.0,0.0,0.0,-0.019242254934,0.032986722744,0.032375857508,0.0,0.0,0.0,-0.53012,-19.0037,-0.4959,0.0,0.0,0.0,-4.9387858464,-0.4163511324,0.2584248408,-0.009621127467,0.016493361372,0.016187928754,-0.26506,-9.50185,-0.24795,-0.47072,9.4144,7.53152,1.0113693560325685,0.0
198652,0,-1378,-111,71,-31,104,109,-914,-32765,-855,0,0,0,0,0,0,0,0,0,-112,352,96,0.0,0.0,22.96,1.0114187021959042,4449.48779296875,-7309.84423828125,41.09999847412109,11.7162504196167,0,0,0.0,0.0,0.0,0.0,0.4046820335557312,0.0,0.0,0.1384410163210273,-0.7968099258,0.5096712137999999,9.8919286284,0.0,0.0,0.0,0.0,7,44.82479654947917,-73.16407063802083,-9.8919286284,-0.7968099258,0.5096712138,0.0,0.0,0.0,-0.009468411158,0.031764992272,0.033292155361999996,0.0,0.0,0.0,-0.53012,-19.0037,-0.4959,0.0,0.0,0.0,-4.9459643142,-0.3984049629,0.2548356069,-0.004734205579,0.015882496136,0.016646077680999998,-0.26506,-9.50185,-0.24795,-3.29504,10.35584,2.82432,1.0114187021959042,0.0
198758,0,-1378,-113,65,-47,97,110,-922,-32765,-866,0,0,0,0,0,0,0,0,0,-32,384,160,0.0,0.0,22.96,1.011527263755243,4449.48779296875,-7309.84423828125,41.09999847412109,11.728750228881836,0,0,0.0,0.0,0.0,0.0,0.3835374905798548,0.0,0.0,0.106544778802912,-0.8111668613999999,0.4666004069999999,9.8919286284,0.0,0.0,0.0,0.0,7,44.82479654947917,-73.16407063802083,-9.8919286284,-0.8111668614,0.466600407,0.0,0.0,0.0,-0.014355333045999999,0.029626963946,0.033597587979999996,0.0,0.0,0.0,-0.53476,-19.0037,-0.50228,0.0,0.0,0.0,-4.9459643142,-0.4055834307,0.2333002035,-0.007177666522999999,0.014813481973,0.016798793989999998,-0.26738,-9.50185,-0.25114,-0.94144,11.29728,4.7072,1.011527263755243,0.0
198863,0,-1377,-120,68,-32,101,106,-922,-32765,-866,0,0,0,0,0,0,0,0,0,-16,384,128,0.0,0.0,22.97,1.0115470022205773,4449.48779296875,-7309.84423828125,41.09999847412109,11.7162504196167,0,0,0.0,0.0,0.0,0.0,0.3609692407200995,0.0,0.0,0.0730781202669628,-0.8614161359999999,0.4881358104,9.8847501606,0.0,0.0,0.0,0.0,7,44.82479654947917,-73.16407063802083,-9.884750160600001,-0.861416136,0.48813581040000004,0.0,0.0,0.0,-0.009773843776,0.030848694418,0.032375857508,0.0,0.0,0.0,-0.53476,-19.0037,-0.50228,0.0,0.0,0.0,-4.942375080300001,-0.430708068,0.24406790520000002,-0.004886921888,0.015424347209,0.016187928754,-0.26738,-9.50185,-0.25114,-0.47072,11.29728,3.76576,1.0115470022205773,0.0
198967,0,-1377,-112,65,-39,108,111,-905,-32765,-825,0,0,0,0,0,0,0,0,0,-48,352,192,0.0,0.0,22.97,1.0114976560572415,4449.48779296875,-7309.84423828125,41.09999847412109,11.717499732971191,0,0,0.0,0.0,0.0,0.0,0.3382231857088064,0.0,0.0,0.0464991695309548,-0.8039883936,0.4666004069999999,9.8847501606,0.0,0.0,0.0,0.0,7,44.82479654947917,-73.16407063802083,-9.884750160600001,-0.8039883936000001,0.466600407,0.0,0.0,0.0,-0.011911872102,0.032986722744,0.033903020597999996,0.0,0.0,0.0,-0.5249,-19.0037,-0.4785,0.0,0.0,0.0,-4.942375080300001,-0.40199419680000004,0.2333002035,-0.005955936051,0.016493361372,0.016951510298999998,-0.26245,-9.50185,-0.23925,-1.41216,10.35584,5.64864,1.0114976560572415,0.0
199072,0,-1376,-114,60,-32,105,107,-905,-32765,-825,0,0,0,0,0,0,0,0,0,-64,400,176,0.0,0.0,22.97,1.0113792252652356,4449.48779296875,-7309.84423828125,41.09999847412109,11.71875,0,0,0.0,0.0,0.0,0.0,0.3554856404670683,0.0,0.0,0.0661633710503571,-0.8183453291999999,0.4307080679999999,9.877571692799998,0.0,0.0,0.0,0.0,7,44.82479654947917,-73.16407063802083,-9.8775716928,-0.8183453292,0.430708068,0.0,0.0,0.0,-0.009773843776,0.03207042489,0.032681290126,0.0,0.0,0.0,-0.5249,-19.0037,-0.4785,0.0,0.0,0.0,-4.9387858464,-0.4091726646,0.215354034,-0.004886921888,0.016035212445,0.016340645063,-0.26245,-9.50185,-0.23925,-1.88288,11.768,5.17792,1.0113792252652356,0.0
199177,0,-1374,-114,64,-54,115,101,-895,-32765,-894,0,0,0,0,0,0,0,0,0,-48,368,144,0.0,0.0,22.98,1.0115075252899086,4449.48779296875,-7309.84423828125,41.09999847412109,11.71875,0,0,0.0,0.0,0.0,0.0,0.3826232804095694,0.0,0.0,0.0913654806894759,-0.8183453291999999,0.4594219391999999,9.8632147572,0.0,0.0,0.0,0.0,7,44.82479654947917,-73.16407063802083,-9.8632147572,-0.8183453292,0.4594219392,0.0,0.0,0.0,-0.016493361372,0.035124751069999995,0.030848694418,0.0,0.0,0.0,-0.5191,-19.0037,-0.51852,0.0,0.0,0.0,-4.9316073786,-0.4091726646,0.2297109696,-0.008246680686,0.017562375534999997,0.015424347209,-0.25955,-9.50185,-0.25926,-1.41216,10.82656,4.23648,1.0115075252899086,0.0
