timestampMs,pressurePa,tempK,accelX,accelY,accelZ,gyroX,gyroY,gyroZ,imuTemp,battV,altitudeM,velocityMS,accelerationMSS,unfiltAlt,flightState,drogueCont,drogueFired,mainCont,mainFired,tiltMagnitudeDeg,angularVelRadS_x,angularVelRadS_y,angularVelRadS_z,quaternion_a,quaternion_b,quaternion_c,quaternion_d
5116,101661.312500,279.06,9.911994,-0.258573,-0.828393,0.041504,-0.032990,-0.011706,283.70,4.03,-0.44,-0.07,0.00,-27.053436,0,1,0,1,0,,,,,,,,
10116,101669.421875,279.18,9.777919,0.071826,-0.114921,0.019156,0.001064,-0.011706,283.80,4.01,-0.25,0.06,-0.01,-27.704870,0,1,0,1,0,,,,,,,,
15116,101651.281250,279.26,9.768342,0.047884,-0.062249,0.020220,0.001064,-0.012770,283.85,4.03,0.31,0.47,-0.01,-26.247558,0,1,0,1,0,,,,,,,,
20116,101655.515625,279.36,9.811438,0.081402,-0.071826,0.019156,0.003192,-0.008513,283.90,4.01,0.26,0.40,-0.01,-26.587741,0,1,0,1,0,,,,,,,,
25116,101659.765625,279.46,9.801861,0.076614,-0.081402,0.020220,-0.001064,-0.008513,284.14,4.04,0.21,0.09,-0.01,-26.929168,0,1,0,1,0,,,,,,,,
30116,101660.203125,279.55,9.797073,0.076614,-0.047884,0.020220,0.001064,-0.006385,284.14,4.03,0.23,-0.09,-0.00,-26.964315,0,1,0,1,0,,,,,,,,
35116,101664.421875,279.65,9.787496,0.100556,-0.071826,0.021284,0.003192,-0.009578,284.39,4.01,0.17,-0.08,-0.00,-27.303220,0,1,0,1,0,,,,,,,,
40116,101664.828125,279.73,9.825803,0.119710,-0.090979,0.021284,0.003192,-0.009578,284.24,4.04,0.38,-0.04,-0.00,-27.335855,0,1,0,1,0,,,,,,,,
45116,101665.250000,279.82,9.787496,0.138863,-0.062249,0.022348,0.003192,-0.011706,284.58,4.01,0.29,-0.14,-0.01,-27.369745,0,1,0,1,0,,,,,,,,
50116,101647.015625,279.90,9.811438,0.071826,-0.105344,0.018091,0.000000,-0.006385,284.44,4.04,0.86,0.30,-0.00,-25.904851,0,1,0,1,0,,,,,,,,
55116,101647.406250,279.98,9.806650,0.100556,-0.081402,0.021284,0.001064,-0.012770,284.58,4.01,0.49,0.03,-0.01,-25.936235,0,1,0,1,0,,,,,,,,
60116,101643.968750,280.05,9.753977,0.081402,-0.090979,0.023412,0.001064,-0.009578,284.39,4.03,0.74,0.17,-0.01,-25.660055,0,1,0,1,0,,,,,,,,
65116,101659.203125,280.12,9.787496,0.023942,-0.124498,0.019156,0.000000,-0.010642,284.88,4.04,0.76,0.11,-0.01,-26.883981,0,1,0,1,0,,,,,,,,
70116,101637.125000,280.18,9.787496,0.114921,-0.124498,0.018091,0.000000,-0.010642,284.88,4.01,1.09,0.40,-0.01,-25.110181,0,1,0,1,0,,,,,,,,
75116,101652.343750,280.25,9.811438,0.100556,-0.062249,0.022348,-0.002128,-0.008513,284.93,4.03,0.78,-0.01,-0.00,-26.332918,0,1,0,1,0,,,,,,,,
80116,101648.890625,280.32,9.811438,0.105344,-0.076614,0.019156,0.001064,-0.009578,284.93,4.01,0.67,-0.14,-0.01,-26.055494,0,1,0,1,0,,,,,,,,
85116,101641.656250,280.37,9.816226,0.105344,-0.162805,0.018091,0.011706,-0.008513,284.97,4.03,0.71,-0.18,-0.00,-25.474256,0,1,0,1,0,,,,,,,,
90116,101656.828125,280.44,9.777919,0.114921,0.191536,0.025541,-0.001064,-0.007449,285.07,4.01,0.93,-0.01,-0.01,-26.693183,0,1,0,1,0,,,,,,,,
95116,101630.937500,280.49,9.801861,-0.210689,-0.023942,0.038312,-0.001064,-0.010642,284.93,4.03,1.22,0.17,-0.01,-24.613008,0,1,0,1,0,,,,,,,,
100116,101646.109375,280.55,9.787496,0.119710,0.244208,-0.031926,0.001064,-0.006385,285.27,4.03,0.87,-0.28,-0.01,-25.832040,0,1,0,1,0,,,,,,,,
105116,101653.703125,280.59,9.763554,0.225054,-0.134075,0.023412,-0.004256,-0.011706,285.22,4.01,1.04,-0.13,-0.01,-26.442129,0,1,0,1,0,,,,,,,,
110116,101646.437500,280.64,9.792284,0.090979,-0.062249,0.018091,0.000000,-0.009578,285.22,4.03,0.85,-0.33,-0.01,-25.858404,0,1,0,1,0,,,,,,,,
115116,101657.828125,280.69,9.792284,0.019153,-0.090979,0.021284,0.001064,-0.008513,285.42,4.01,1.02,-0.24,-0.00,-26.773519,0,1,0,1,0,,,,,,,,
120116,101650.578125,280.74,9.777919,-0.090979,-0.110133,0.027669,0.001064,-0.013834,285.46,4.03,0.92,-0.29,-0.00,-26.191068,0,1,0,1,0,,,,,,,,
125116,101643.296875,280.79,9.816226,0.134075,-0.062249,0.023412,0.002128,-0.008513,285.32,4.00,1.28,-0.12,-0.00,-25.606073,0,1,0,1,0,,,,,,,,
130116,101632.234375,280.82,9.825803,-0.043095,-0.138863,0.025541,0.002128,-0.013834,285.51,4.03,1.46,0.08,-0.00,-24.717216,0,1,0,1,0,,,,,,,,
135116,101639.812500,280.85,9.753977,0.100556,0.201112,0.022348,-0.007449,-0.010642,285.66,4.03,0.23,0.23,-0.01,-25.508134,0,1,0,1,0,,,,,,,,
140116,101651.203125,280.90,9.773131,-0.172382,0.067037,0.023412,-0.001064,-0.012770,285.66,4.01,-0.34,-0.22,-0.01,-26.429876,0,1,0,1,0,,,,,,,,
145116,101640.125000,280.94,9.801861,0.081402,-0.090979,0.023412,-0.002128,-0.011706,285.46,4.03,-0.05,0.03,-0.00,-25.533424,0,1,0,1,0,,,,,,,,
150116,101629.031250,280.97,9.811438,0.105344,-0.081402,0.021284,0.001064,-0.012770,285.61,4.00,0.32,0.25,-0.00,-24.635627,0,1,0,1,0,,,,,,,,
155116,101636.609375,281.00,9.801861,0.129286,-0.090979,0.023412,0.002128,-0.010642,285.81,4.03,0.06,0.01,-0.00,-25.248918,0,1,0,1,0,,,,,,,,
160116,101644.218750,281.04,9.835380,0.119710,-0.067037,0.021284,0.001064,-0.012770,285.81,4.00,0.11,0.03,-0.00,-25.864702,0,1,0,1,0,,,,,,,,
165116,101651.796875,281.07,9.806650,0.100556,-0.071826,0.021284,0.000000,-0.008513,285.76,4.03,-0.16,-0.38,-0.00,-26.477920,0,1,0,1,0,,,,,,,,
170116,101640.703125,281.10,9.825803,0.124498,-0.062249,0.022348,0.002128,-0.011706,285.66,4.03,0.23,-0.01,-0.00,-25.580207,0,1,0,1,0,,,,,,,,
175116,101625.812500,281.12,9.782708,0.086191,-0.057460,0.021284,0.001064,-0.011706,285.95,4.00,1.00,0.73,-0.00,-24.375123,0,1,0,1,0,,,,,,,,
180116,101633.406250,281.15,9.782708,0.095768,-0.043095,0.023412,-0.002128,-0.011706,286.00,4.03,0.48,0.20,-0.00,-24.989696,0,1,0,1,0,,,,,,,,
185116,101637.187500,281.17,9.806650,0.090979,-0.071826,0.020220,0.003192,-0.007449,285.66,4.00,0.36,0.08,-0.00,-25.295705,0,1,0,1,0,,,,,,,,
190116,101622.312500,281.19,9.830592,0.114921,-0.062249,0.020220,0.000000,-0.011706,285.95,4.03,0.43,-0.00,-0.00,-24.091852,0,1,0,1,0,,,,,,,,
195116,101629.875000,281.22,9.787496,0.086191,-0.052672,0.022348,0.000000,-0.010642,286.00,4.00,0.32,-0.09,-0.01,-24.703912,0,1,0,1,0,,,,,,,,
200116,101637.453125,281.26,9.816226,0.110133,-0.081402,0.020220,0.003192,-0.010642,286.05,4.03,0.54,0.01,-0.00,-25.317201,0,1,0,1,0,,,,,,,,
205116,101641.265625,281.27,9.806650,0.076614,-0.076614,0.021284,0.000000,-0.007449,286.05,4.03,0.40,-0.03,-0.01,-25.625728,0,1,0,1,0,,,,,,,,
210116,101626.359375,281.29,9.811438,0.100556,-0.052672,0.022348,-0.001064,-0.009578,286.15,4.01,0.93,0.36,-0.00,-24.419385,0,1,0,1,0,,,,,,,,
215116,101630.140625,281.31,9.806650,0.090979,-0.071826,0.020220,0.001064,-0.009578,286.00,4.03,0.77,0.15,-0.01,-24.725410,0,1,0,1,0,,,,,,,,
220116,101637.734375,281.34,9.792284,0.119710,-0.081402,0.021284,0.000000,-0.012770,286.05,4.00,0.19,-0.38,-0.00,-25.339962,0,1,0,1,0,,,,,,,,
225116,101641.515625,281.36,9.782708,0.095768,-0.071826,0.021284,0.001064,-0.008513,286.30,4.03,0.81,0.13,-0.00,-25.645957,0,1,0,1,0,,,,,,,,
230116,101641.515625,281.36,9.801861,0.114921,-0.067037,0.022348,0.001064,-0.011706,286.05,4.00,0.13,-0.55,-0.00,-25.645957,0,1,0,1,0,,,,,,,,
235116,101630.421875,281.39,9.811438,0.076614,-0.081402,0.020220,0.001064,-0.011706,286.20,4.03,1.03,0.23,-0.01,-24.748172,0,1,0,1,0,,,,,,,,
240116,101634.203125,281.41,9.787496,0.114921,-0.086191,0.020220,0.001064,-0.008513,286.20,4.03,0.62,-0.22,-0.00,-25.054187,0,1,0,1,0,,,,,,,,
245116,101634.203125,281.41,9.816226,0.114921,-0.067037,0.022348,0.002128,-0.010642,286.20,4.01,0.80,-0.09,-0.00,-25.054187,0,1,0,1,0,,,,,,,,
250116,101619.296875,281.42,9.811438,0.110133,-0.081402,0.020220,0.001064,-0.010642,286.30,4.03,0.99,0.12,-0.01,-23.847776,0,1,0,1,0,,,,,,,,
255116,101623.093750,281.44,9.797073,0.071826,-0.081402,0.022348,0.000000,-0.011706,286.15,4.00,0.68,-0.18,-0.00,-24.155082,0,1,0,1,0,,,,,,,,
260116,101645.562500,281.46,9.806650,0.090979,-0.062249,0.020220,-0.001064,-0.010642,286.15,4.03,1.02,0.08,-0.00,-25.973442,0,1,0,1,0,,,,,,,,
265116,101630.671875,281.47,9.792284,0.119710,-0.071826,0.021284,0.001064,-0.010642,286.30,4.00,1.36,0.38,-0.00,-24.768404,0,1,0,1,0,,,,,,,,
270116,101634.468750,281.49,9.782708,0.105344,-0.105344,0.023412,-0.001064,-0.012770,286.30,4.03,0.69,-0.24,-0.00,-25.075683,0,1,0,1,0,,,,,,,,
275116,101634.468750,281.49,9.787496,0.081402,-0.062249,0.022348,0.001064,-0.010642,286.20,4.03,0.68,-0.30,-0.00,-25.075683,0,1,0,1,0,,,,,,,,
280116,101619.546875,281.51,9.811438,0.134075,-0.071826,0.021284,0.000000,-0.010642,286.30,4.00,1.13,0.04,-0.00,-23.868011,0,1,0,1,0,,,,,,,,
285116,101642.031250,281.52,9.797073,0.105344,-0.071826,0.021284,0.002128,-0.008513,286.30,4.03,0.89,-0.16,-0.01,-25.687685,0,1,0,1,0,,,,,,,,
290116,101623.343750,281.52,9.806650,0.105344,-0.100556,0.021284,0.002128,-0.011706,286.30,4.00,1.07,0.04,-0.00,-24.175317,0,1,0,1,0,,,,,,,,
295116,101627.125000,281.54,9.801861,0.114921,-0.043095,0.021284,-0.001064,-0.009578,286.54,4.03,0.97,-0.10,-0.00,-24.481349,0,1,0,1,0,,,,,,,,
300116,101627.125000,281.54,9.816226,0.095768,-0.047884,0.022348,-0.002128,-0.008513,286.54,4.00,0.71,-0.34,-0.00,-24.481349,0,1,0,1,0,,,,,,,,
305116,101612.218750,281.56,9.806650,0.114921,-0.095768,0.022348,0.001064,-0.009578,286.30,4.02,1.11,0.14,-0.00,-23.274871,0,1,0,1,0,,,,,,,,
310116,101612.218750,281.56,9.806650,0.114921,-0.043095,0.022348,0.003192,-0.012770,286.30,4.02,1.46,0.33,-0.00,-23.274871,0,1,0,1,0,,,,,,,,
315116,101615.984375,281.57,9.801861,0.100556,-0.081402,0.022348,0.004256,-0.010642,286.35,4.00,1.66,0.55,-0.00,-23.579666,0,1,0,1,0,,,,,,,,
320116,101634.687500,281.57,9.686940,-0.043095,-0.014365,0.029798,-0.004256,-0.011706,286.15,4.03,1.51,0.31,-0.01,-25.093387,0,1,0,1,0,,,,,,,,
325116,101619.796875,281.59,9.792284,0.057460,-0.038307,0.025541,0.006385,-0.008513,286.35,4.00,1.02,-0.09,-0.00,-23.888246,0,1,0,1,0,,,,,,,,
330116,101619.796875,281.59,9.777919,0.114921,-0.081402,0.028734,0.002128,-0.009578,286.49,4.02,1.01,-0.18,-0.01,-23.888246,0,1,0,1,0,,,,,,,,
335116,101623.578125,281.61,9.777919,-0.038307,0.062249,-0.035119,0.002128,-0.012770,286.39,4.00,1.50,0.34,-0.00,-24.194286,0,1,0,1,0,,,,,,,,
340116,101627.359375,281.62,9.782708,-0.081402,-0.153228,0.055339,-0.001064,-0.013834,286.35,4.03,1.22,0.00,-0.01,-24.500318,0,1,0,1,0,,,,,,,,
345116,101627.359375,281.62,9.806650,0.090979,-0.124498,0.023412,0.000000,-0.010642,286.49,4.02,1.13,-0.11,-0.00,-24.500318,0,1,0,1,0,,,,,,,,
350116,101608.656250,281.62,9.768342,0.095768,-0.043095,0.023412,0.000000,-0.009578,286.35,4.00,1.15,-0.02,-0.00,-22.986509,0,1,0,1,0,,,,,,,,
355116,101627.359375,281.62,9.792284,0.134075,-0.067037,0.020220,0.001064,-0.008513,286.39,4.03,1.30,-0.01,-0.00,-24.500318,0,1,0,1,0,,,,,,,,
360116,101631.156250,281.64,9.782708,0.110133,-0.057460,0.018091,0.002128,-0.009578,286.54,4.00,1.11,-0.10,-0.01,-24.807605,0,1,0,1,0,,,,,,,,
365116,101612.453125,281.64,9.782708,0.062249,-0.028730,0.021284,0.000000,-0.010642,286.54,4.02,1.23,-0.03,-0.01,-23.293842,0,1,0,1,0,,,,,,,,
370116,101612.453125,281.64,9.787496,0.100556,-0.052672,0.021284,0.003192,-0.012770,286.54,4.00,1.74,0.39,-0.00,-23.293842,0,1,0,1,0,,,,,,,,
375116,101612.453125,281.64,9.801861,0.148440,-0.119710,0.023412,-0.002128,-0.010642,286.59,4.03,1.74,0.31,-0.00,-23.293842,0,1,0,1,0,,,,,,,,
380116,101634.921875,281.66,9.859322,-0.177170,-0.229843,0.017027,-0.003192,-0.010642,286.54,4.03,0.95,-0.29,-0.01,-25.112354,0,1,0,1,0,,,,,,,,
385116,101616.218750,281.66,9.782708,0.095768,-0.076614,0.020220,-0.001064,-0.010642,286.30,4.00,1.48,0.03,-0.01,-23.598636,0,1,0,1,0,,,,,,,,
390116,101616.218750,281.66,9.787496,0.100556,-0.086191,0.021284,0.001064,-0.009578,286.54,4.03,1.57,0.14,-0.01,-23.598636,0,1,0,1,0,,,,,,,,
395116,101616.218750,281.66,9.787496,0.081402,-0.071826,0.023412,-0.001064,-0.009578,286.39,4.00,1.48,0.05,-0.01,-23.598636,0,1,0,1,0,,,,,,,,
400116,101620.015625,281.67,9.792284,0.114921,-0.076614,0.021284,-0.001064,-0.009578,286.39,4.02,0.87,-0.41,-0.01,-23.905950,0,1,0,1,0,,,,,,,,
405116,101620.015625,281.67,9.816226,0.095768,-0.067037,0.022348,0.002128,-0.010642,286.54,4.00,1.49,0.12,-0.00,-23.905950,0,1,0,1,0,,,,,,,,
410116,101620.015625,281.67,9.797073,0.114921,-0.067037,0.021284,0.000000,-0.012770,286.54,4.02,1.59,0.17,-0.01,-23.905950,0,1,0,1,0,,,,,,,,
415116,101638.718750,281.67,9.801861,0.090979,-0.052672,0.021284,0.000000,-0.011706,286.49,4.03,0.87,-0.59,-0.00,-25.419622,0,1,0,1,0,,,,,,,,
420116,101620.015625,281.67,9.792284,0.086191,-0.043095,0.022348,0.001064,-0.008513,286.59,4.00,1.55,0.10,-0.00,-23.905950,0,1,0,1,0,,,,,,,,
425116,101620.015625,281.67,9.787496,0.110133,-0.047884,0.021284,-0.001064,-0.011706,286.59,4.03,1.59,0.15,-0.01,-23.905950,0,1,0,1,0,,,,,,,,
430116,101620.015625,281.67,9.763554,0.119710,-0.062249,0.023412,0.002128,-0.008513,286.54,4.00,1.36,0.08,-0.01,-23.905950,0,1,0,1,0,,,,,,,,
435116,101623.828125,281.69,9.797073,0.081402,-0.043095,0.021284,0.002128,-0.009578,286.54,4.02,1.23,-0.12,-0.01,-24.214521,0,1,0,1,0,,,,,,,,
440116,101620.015625,281.67,9.797073,0.076614,-0.062249,0.021284,0.002128,-0.010642,286.54,4.00,1.86,0.47,-0.00,-23.905950,0,1,0,1,0,,,,,,,,
445116,101642.531250,281.69,9.792284,0.119710,-0.071826,0.022348,0.000000,-0.011706,286.74,4.02,0.96,-0.44,-0.00,-25.728145,0,1,0,1,0,,,,,,,,
450116,101605.125000,281.69,9.792284,0.100556,-0.062249,0.023412,0.003192,-0.010642,286.69,4.02,1.66,0.27,-0.00,-22.700668,0,1,0,1,0,,,,,,,,
455116,101623.828125,281.69,9.806650,0.081402,-0.071826,0.021284,0.000000,-0.011706,286.59,4.00,0.91,-0.57,-0.00,-24.214521,0,1,0,1,0,,,,,,,,
460116,101623.828125,281.69,9.792284,0.110133,-0.062249,0.021284,0.002128,-0.011706,286.54,4.02,1.21,-0.25,-0.00,-24.214521,0,1,0,1,0,,,,,,,,
465116,101605.125000,281.69,9.797073,0.114921,-0.090979,0.022348,0.000000,-0.011706,286.49,4.00,1.66,0.21,-0.00,-22.700668,0,1,0,1,0,,,,,,,,
470116,101623.828125,281.69,9.792284,0.134075,-0.052672,0.021284,0.001064,-0.011706,286.54,4.03,1.29,-0.11,-0.00,-24.214521,0,1,0,1,0,,,,,,,,
475116,101623.828125,281.69,9.801861,0.052672,-0.067037,0.021284,0.001064,-0.008513,286.69,4.00,1.67,0.17,-0.00,-24.214521,0,1,0,1,0,,,,,,,,
480116,101605.125000,281.69,9.773131,0.076614,-0.057460,0.022348,0.000000,-0.009578,286.54,4.02,1.65,0.21,-0.00,-22.700668,0,1,0,1,0,,,,,,,,
485116,101623.828125,281.69,9.797073,0.052672,-0.081402,0.022348,-0.001064,-0.009578,286.54,4.02,1.50,0.06,-0.01,-24.214521,0,1,0,1,0,,,,,,,,
490116,101623.828125,281.69,9.782708,0.124498,-0.062249,0.023412,0.001064,-0.008513,286.54,4.00,0.94,-0.52,-0.00,-24.214521,0,1,0,1,0,,,,,,,,
495116,101623.828125,281.69,9.787496,0.095768,-0.076614,0.020220,0.003192,-0.010642,286.39,4.02,1.55,0.11,-0.01,-24.214521,0,1,0,1,0,,,,,,,,
500116,101623.828125,281.69,9.811438,0.081402,-0.081402,0.020220,0.001064,-0.009578,286.39,4.00,1.38,-0.10,-0.00,-24.214521,0,1,0,1,0,,,,,,,,
505116,101623.828125,281.69,9.835380,0.076614,-0.071826,0.023412,0.002128,-0.010642,286.54,4.02,1.80,0.40,-0.00,-24.214521,0,1,0,1,0,,,,,,,,
510116,101642.531250,281.69,9.811438,0.119710,-0.062249,0.022348,0.002128,-0.009578,286.74,4.00,0.94,-0.40,-0.00,-25.728145,0,1,0,1,0,,,,,,,,
515116,101642.531250,281.69,9.811438,0.090979,-0.043095,0.021284,0.002128,-0.009578,286.54,4.03,1.35,-0.03,-0.00,-25.728145,0,1,0,1,0,,,,,,,,
520116,101623.828125,281.69,9.835380,0.105344,-0.033518,0.021284,0.002128,-0.007449,286.54,4.02,1.08,-0.31,-0.00,-24.214521,0,1,0,1,0,,,,,,,,
525116,101623.828125,281.69,9.801861,0.110133,-0.047884,0.021284,0.000000,-0.009578,286.69,4.00,1.62,0.10,-0.01,-24.214521,0,1,0,1,0,,,,,,,,
530116,101620.015625,281.67,9.806650,0.129286,-0.047884,0.022348,0.001064,-0.009578,286.49,4.02,1.25,-0.22,-0.00,-23.905950,0,1,0,1,0,,,,,,,,
535116,101623.828125,281.69,9.792284,0.129286,-0.062249,0.021284,0.002128,-0.008513,286.69,4.00,1.24,-0.31,-0.00,-24.214521,0,1,0,1,0,,,,,,,,
540116,101620.015625,281.67,9.816226,0.076614,-0.038307,0.021284,-0.001064,-0.010642,286.54,4.03,1.83,0.21,-0.00,-23.905950,0,1,0,1,0,,,,,,,,
545116,101620.015625,281.67,9.768342,0.100556,-0.062249,0.020220,0.001064,-0.013834,286.54,4.00,1.34,-0.17,-0.00,-23.905950,0,1,0,1,0,,,,,,,,
550116,101620.015625,281.67,9.825803,0.071826,-0.081402,0.021284,0.002128,-0.010642,286.30,4.02,1.54,0.05,-0.00,-23.905950,0,1,0,1,0,,,,,,,,
555116,101634.921875,281.66,9.816226,0.105344,-0.062249,0.019156,0.001064,-0.009578,286.54,4.02,1.36,0.00,-0.00,-25.112354,0,1,0,1,0,,,,,,,,
559096,101638.718750,281.67,84.606300,0.086191,0.679953,0.850315,0.114936,-0.006385,286.30,3.99,4.27,13.29,60.80,-25.419622,1,1,0,1,0,,,,,,,,
559106,101657.421875,281.67,85.286254,-0.584185,1.177947,0.643856,-0.041504,-0.011706,286.54,4.00,2.94,12.60,62.20,-26.933069,1,1,0,1,0,,,,,,,,
559116,101601.328125,281.67,86.952613,-1.872265,1.963245,0.106422,-0.042569,0.000000,286.49,4.00,3.06,13.34,63.62,-22.393318,1,1,0,1,0,,,,,,,,
559126,101489.109375,281.67,86.641372,-3.936067,3.035847,-0.076624,0.085138,-0.031926,286.59,4.01,5.43,16.24,64.87,-13.305191,1,1,0,1,0,,,,,,,,
559136,101563.921875,281.67,86.880790,-4.357447,2.370259,-0.670461,0.059596,-0.039376,286.54,4.01,5.72,17.11,66.02,-19.364847,1,1,0,1,0,,,,,,,,
559146,101601.328125,281.67,82.154632,-3.811568,-8.848969,-0.535305,-0.255414,-0.004256,286.54,4.01,5.19,17.15,66.63,-22.393318,1,1,0,1,0,,,,,,,,
559156,101601.328125,281.67,89.236686,2.087743,-0.828393,-0.892884,0.110679,-0.017027,286.59,4.01,4.79,17.36,67.85,-22.393318,1,1,0,1,0,,,,,,,,
559166,101563.921875,281.67,87.871986,-2.676717,3.825934,-1.080188,0.249028,0.026605,286.35,4.01,5.25,18.39,68.82,-19.364847,1,1,0,1,0,,,,,,,,
559176,101563.921875,281.67,87.464973,-3.591302,-0.339976,-0.978022,0.251157,0.008513,286.49,4.01,5.60,19.31,69.66,-19.364847,1,1,0,1,0,,,,,,,,
559186,101563.921875,281.67,91.654830,-7.603984,0.809240,-0.683232,-0.055339,-0.008513,286.54,4.02,5.87,20.18,70.81,-19.364847,1,1,0,1,0,,,,,,,,
559196,101563.921875,281.67,92.813621,-0.301669,-3.160346,-0.768370,-0.048954,-0.065981,286.69,4.01,6.08,20.99,71.97,-19.364847,1,1,0,1,0,,,,,,,,
559206,101563.921875,281.67,91.980438,-2.470816,1.259350,-0.707709,0.176661,-0.092587,286.54,4.01,6.25,21.75,72.94,-19.364847,1,1,0,1,0,,,,,,,,
559216,101563.921875,281.67,92.162399,-3.514688,1.829170,-0.681104,0.107486,-0.161762,286.54,3.99,6.38,22.47,73.84,-19.364847,1,1,0,1,0,,,,,,,,
559226,101545.218750,281.67,92.550262,-2.801215,0.387860,-0.606608,0.018091,-0.219230,286.54,3.98,6.86,23.52,74.68,-17.850271,1,1,0,1,0,,,,,,,,
559236,101526.515625,281.67,92.928543,-4.228159,0.114921,-0.580002,-0.005321,-0.275634,286.54,3.98,7.60,24.83,75.48,-16.335472,1,1,0,1,0,,,,,,,,
559246,101522.718750,281.66,92.037902,-2.753331,0.220266,-0.510828,0.028734,-0.321395,286.54,3.98,8.25,26.03,76.12,-16.027927,1,1,0,1,0,,,,,,,,
559256,101545.218750,281.67,93.000366,-3.677493,0.933738,-0.471451,0.051082,-0.368221,286.69,3.97,8.29,26.63,76.79,-17.850271,1,1,0,1,0,,,,,,,,
559266,101545.218750,281.67,92.928543,-3.414131,-0.023942,-0.401212,-0.001064,-0.423561,286.69,3.98,8.33,27.22,77.40,-17.850271,1,1,0,1,0,,,,,,,,
559276,101526.515625,281.67,93.632438,-3.639186,-0.565031,-0.354386,-0.012770,-0.466130,286.54,3.98,8.74,28.18,78.01,-16.335472,1,1,0,1,0,,,,,,,,
559286,101507.812500,281.67,94.350700,-3.610455,-0.244208,-0.296918,0.007449,-0.509763,286.30,3.98,9.43,29.41,78.63,-14.820445,1,1,0,1,0,,,,,,,,
559296,101507.812500,281.67,94.719406,-4.084507,0.105344,-0.246900,0.012770,-0.548075,286.35,3.98,9.96,30.47,79.22,-14.820445,1,1,0,1,0,,,,,,,,
559306,101526.515625,281.67,94.408157,-3.557783,-0.158017,-0.178789,-0.007449,-0.588516,286.59,3.98,9.99,31.03,79.73,-16.335472,1,1,0,1,0,,,,,,,,
559316,101489.109375,281.67,94.436889,-3.217807,0.550666,-0.121321,0.025541,-0.616186,286.54,3.98,10.77,32.32,80.20,-13.305191,1,1,0,1,0,,,,,,,,
559326,101504.015625,281.66,95.332321,-3.902548,-0.062249,-0.062789,0.006385,-0.650241,286.49,3.97,11.07,33.14,80.70,-14.512855,1,1,0,1,0,,,,,,,,
559336,101507.812500,281.67,94.599693,-3.888183,0.349553,0.005321,0.004256,-0.685361,286.35,3.98,11.22,33.80,81.09,-14.820445,1,1,0,1,0,,,,,,,,
559346,101485.312500,281.66,95.566955,-4.218583,0.014365,0.085138,-0.014899,-0.713030,286.49,3.98,11.79,34.87,81.53,-12.997556,1,1,0,1,0,,,,,,,,
559356,101470.421875,281.67,96.404922,-4.419696,0.588973,0.142606,0.028734,-0.724737,286.49,3.97,12.53,36.10,82.01,-11.790979,1,1,0,1,0,,,,,,,,
559366,101470.421875,281.67,97.132759,-4.309563,0.205901,0.203267,0.012770,-0.737508,286.49,3.97,13.09,37.16,82.52,-11.790979,1,1,0,1,0,,,,,,,,
559376,101470.421875,281.67,96.266059,-6.253654,-0.330399,0.291597,-0.015963,-0.727930,286.54,3.97,13.53,38.07,82.89,-11.790979,1,1,0,1,0,,,,,,,,
559386,101451.718750,281.67,98.353805,-4.505887,-1.848323,0.383121,-0.046825,-0.725801,286.54,3.97,14.23,39.26,83.43,-10.275275,1,1,0,1,0,,,,,,,,
559396,101470.421875,281.67,98.952354,-4.793191,-1.240196,0.457616,0.000000,-0.710902,286.69,3.97,14.40,39.91,83.97,-11.790979,1,1,0,1,0,,,,,,,,
559406,101433.015625,281.67,98.119171,-5.573701,0.359130,0.550204,0.002128,-0.690682,286.54,3.97,15.28,41.26,84.38,-8.759344,1,1,0,1,0,,,,,,,,
559416,101433.015625,281.67,98.267616,-5.458779,0.143652,0.622571,-0.004256,-0.671526,286.54,3.99,15.95,42.38,84.77,-8.759344,1,1,0,1,0,,,,,,,,
559426,101433.015625,281.67,99.268386,-6.282385,-0.943315,0.698131,-0.021284,-0.661948,286.30,4.00,16.47,43.35,85.21,-8.759344,1,1,0,1,0,,,,,,,,
559436,101410.515625,281.66,98.013824,-6.133944,-0.158017,0.825838,-0.067046,-0.645984,286.54,4.00,17.32,44.63,85.50,-6.935367,1,1,0,1,0,,,,,,,,
559446,101395.609375,281.67,98.660263,-5.358223,-0.330399,0.902462,-0.069174,-0.612993,286.54,4.00,18.26,45.99,85.81,-5.726802,1,1,0,1,0,,,,,,,,
559456,101395.609375,281.67,100.321838,-5.161898,-0.723048,0.981215,-0.058532,-0.581066,286.54,4.01,18.98,47.14,86.26,-5.726802,1,1,0,1,0,,,,,,,,
559466,101376.906250,281.67,99.067276,-5.793968,0.186747,1.068482,-0.060660,-0.551268,286.59,4.01,19.91,48.47,86.54,-4.210192,1,1,0,1,0,,,,,,,,
559476,101376.906250,281.67,99.986648,-6.502651,0.742202,1.168519,-0.051082,-0.520406,286.54,4.01,20.62,49.57,86.89,-4.210192,1,1,0,1,0,,,,,,,,
559486,101354.421875,281.66,99.503021,-6.703764,0.713472,1.261106,-0.061725,-0.476772,286.35,4.01,21.61,50.94,87.15,-2.386666,1,1,0,1,0,,,,,,,,
559496,101339.515625,281.67,100.728851,-6.320692,0.933738,1.332409,-0.060660,-0.434203,286.35,4.01,22.67,52.37,87.51,-1.177559,1,1,0,1,0,,,,,,,,
559506,101339.515625,281.67,100.499008,-6.684610,0.694318,1.429254,-0.029798,-0.394827,286.49,4.01,23.48,53.54,87.81,-1.177559,1,1,0,1,0,,,,,,,,
559516,101320.812500,281.67,101.279518,-6.387730,0.981622,1.534612,-0.002128,-0.337359,286.54,4.01,24.47,54.89,88.15,0.339730,1,1,0,1,0,,,,,,,,
559526,101320.812500,281.67,101.313034,-6.550535,1.149216,1.618686,0.022348,-0.277762,286.49,4.01,25.22,55.99,88.47,0.339730,1,1,0,1,0,,,,,,,,
559536,101302.109375,281.67,101.121498,-6.215347,0.497993,1.691053,0.045761,-0.213909,286.54,4.01,26.18,57.28,88.74,1.857247,1,1,0,1,0,,,,,,,,
559546,101279.625000,281.66,102.213256,-7.335834,1.996764,1.790026,0.084073,-0.155376,286.54,4.01,27.36,58.78,89.09,3.681864,1,1,0,1,0,,,,,,,,
559556,101279.625000,281.66,101.854125,-6.148309,0.818816,1.896449,0.075559,-0.101101,286.54,4.02,28.25,59.99,89.37,3.681864,1,1,0,1,0,,,,,,,,
559566,101302.109375,281.67,103.769485,-7.527369,-0.086191,1.982651,0.062789,-0.037247,286.49,4.01,28.48,60.56,89.80,1.857247,1,1,0,1,0,,,,,,,,
559576,101264.703125,281.67,102.816596,-6.497863,1.101332,2.061404,0.110679,0.017027,286.30,4.01,29.41,61.79,90.11,4.892961,1,1,0,1,0,,,,,,,,
559586,101260.921875,281.66,103.515701,-6.464344,-0.560243,2.119936,0.141541,0.068110,286.59,4.01,30.20,62.88,90.45,5.199880,1,1,0,1,0,,,,,,,,
559596,101242.218750,281.66,104.487747,-7.699752,0.402225,2.198689,0.203267,0.127707,286.69,4.01,31.17,64.15,90.85,6.718124,1,1,0,1,0,,,,,,,,
559606,101242.218750,281.66,104.866035,-7.254431,0.708683,2.228487,0.227744,0.183046,286.59,4.01,31.91,65.19,91.25,6.718124,1,1,0,1,0,,,,,,,,
559616,101246.000000,281.67,103.673721,-6.014234,0.440533,2.277441,0.270313,0.230936,286.59,4.00,32.40,65.96,91.50,6.411159,1,1,0,1,0,,,,,,,,
559626,101227.296875,281.67,103.175727,-7.704540,1.063025,2.316818,0.339487,0.273505,286.54,3.98,33.16,66.98,91.67,7.929584,1,1,0,1,0,,,,,,,,
559636,101223.515625,281.66,104.162139,-6.133944,0.986411,2.339167,0.411855,0.311817,286.54,3.98,33.81,67.89,91.93,8.236595,1,1,0,1,0,,,,,,,,
559646,101204.812500,281.66,104.909126,-6.483498,-0.023942,2.374286,0.382056,0.339487,286.54,3.98,34.68,69.02,92.23,9.755292,1,1,0,1,0,,,,,,,,
559656,101204.812500,281.66,104.770263,-5.540182,-0.205901,2.410470,0.421433,0.356515,286.30,3.98,35.34,69.93,92.49,9.755292,1,1,0,1,0,,,,,,,,
559666,101186.125000,281.66,103.309799,-5.171475,0.181959,2.426433,0.502314,0.386313,286.30,3.97,36.23,71.04,92.58,11.272949,1,1,0,1,0,,,,,,,,
559676,101204.812500,281.66,105.704002,-5.789179,0.847547,2.442396,0.505506,0.387377,286.54,3.97,36.52,71.59,92.90,9.755292,1,1,0,1,0,,,,,,,,
559686,101189.906250,281.67,106.503669,-5.142745,0.493205,2.400892,0.470387,0.390570,286.39,3.98,37.04,72.36,93.26,10.965847,1,1,0,1,0,,,,,,,,
559696,101171.203125,281.67,104.588302,-5.492298,0.320823,2.332781,0.506571,0.385249,286.59,3.98,37.82,73.35,93.41,12.484952,1,1,0,1,0,,,,,,,,
559706,101167.421875,281.66,108.533950,-5.233724,-1.316810,2.287019,0.476772,0.373543,286.74,3.97,38.49,74.26,93.91,12.792101,1,1,0,1,0,,,,,,,,
559716,101148.718750,281.66,107.456558,-5.851428,-0.924161,2.230615,0.456552,0.361836,286.35,3.97,39.38,75.36,94.27,14.311481,1,1,0,1,0,,,,,,,,
559726,101167.421875,281.66,105.105453,-4.491522,-0.588973,2.173147,0.400148,0.363965,286.39,3.98,39.68,75.87,94.36,12.792101,1,1,0,1,0,,,,,,,,
559736,101148.718750,281.66,106.546760,-4.951209,-3.155557,2.110358,0.336295,0.346937,286.39,3.98,40.28,76.68,94.59,14.311481,1,1,0,1,0,,,,,,,,
559746,101130.015625,281.66,105.742309,-4.228159,-1.537077,2.027348,0.339487,0.338423,286.59,3.97,41.12,77.70,94.72,15.831089,1,1,0,1,0,,,,,,,,
559756,101133.796875,281.67,104.808570,-4.376600,-0.158017,1.936889,0.303304,0.336295,286.54,3.97,41.68,78.44,94.75,15.523848,1,1,0,1,0,,,,,,,,
559766,101111.312500,281.66,105.756675,-3.557783,-1.628057,1.897513,0.205395,0.307561,286.49,3.97,42.57,79.49,94.86,17.350923,1,1,0,1,0,,,,,,,,
559776,101073.921875,281.66,106.881950,-4.314351,-1.599326,1.801733,0.123450,0.282019,286.69,3.97,43.99,81.06,95.07,20.390007,1,1,0,1,0,,,,,,,,
559786,101092.609375,281.66,107.408676,-3.538630,-1.661575,1.740008,0.105358,0.256478,286.54,3.97,44.70,81.93,95.31,18.870986,1,1,0,1,0,,,,,,,,
559796,101073.921875,281.66,107.288963,-3.055001,-0.282515,1.675090,0.093651,0.208588,286.54,3.97,45.61,82.98,95.51,20.390007,1,1,0,1,0,,,,,,,,
559806,101073.921875,281.66,105.565139,-2.940079,-0.928950,1.599530,-0.001064,0.175597,286.54,3.97,46.31,83.81,95.54,20.390007,1,1,0,1,0,,,,,,,,
559816,101055.218750,281.66,106.134956,-3.998316,-1.848323,1.547383,-0.119193,0.147927,286.54,3.99,47.22,84.83,95.61,21.910524,1,1,0,1,0,,,,,,,,
559826,101040.296875,281.67,107.284179,-3.351882,-2.336740,1.448410,-0.157505,0.119193,286.49,4.00,48.21,85.94,95.79,23.123800,1,1,0,1,0,,,,,,,,
559836,101017.812500,281.66,108.284950,-4.893748,-1.412578,1.374978,-0.192624,0.106422,286.49,4.00,49.41,87.25,96.04,24.952243,1,1,0,1,0,,,,,,,,
559846,101017.812500,281.66,115.855415,-3.983951,-2.327163,1.333474,-0.295854,0.068110,286.30,4.01,50.32,88.32,96.99,24.952243,1,1,0,1,0,,,,,,,,
559856,101017.812500,281.66,107.753440,-2.920926,-1.177947,1.245143,-0.288405,0.043633,286.49,4.01,51.02,89.12,97.08,24.952243,1,1,0,1,0,,,,,,,,
559866,100999.109375,281.66,105.627388,-3.567360,-0.201112,1.212152,-0.325652,0.024477,286.59,4.01,51.93,90.09,96.96,26.473445,1,1,0,1,0,,,,,,,,
559876,100961.718750,281.66,106.139747,-2.968810,-0.660799,1.147234,-0.362900,-0.004256,286.30,4.01,53.38,91.58,96.90,29.515262,1,1,0,1,0,,,,,,,,
559886,100961.718750,281.66,103.965812,-3.672705,0.981622,1.074867,-0.341616,-0.027669,286.35,4.01,54.48,92.71,96.64,29.515262,1,1,0,1,0,,,,,,,,
559896,100943.015625,281.66,105.335296,-3.112462,1.235408,1.050390,-0.353322,-0.054275,286.54,4.01,55.70,93.94,96.53,31.037149,1,1,0,1,0,,,,,,,,
559906,100924.312500,281.66,104.818145,-3.605667,1.307234,0.989729,-0.309689,-0.084073,286.54,4.02,57.00,95.23,96.39,32.559265,1,1,0,1,0,,,,,,,,
559916,100905.609375,281.66,104.545211,-3.701435,0.952892,0.953545,-0.320331,-0.111743,286.54,4.02,58.36,96.58,96.23,34.081607,1,1,0,1,0,,,,,,,,
559926,100924.312500,281.66,103.812583,-3.414131,1.039083,0.926940,-0.263927,-0.127707,286.39,4.01,59.02,97.22,96.02,32.559265,1,1,0,1,0,,,,,,,,
559936,100868.218750,281.66,102.543655,-3.945644,1.537077,0.876921,-0.184110,-0.142606,286.54,4.01,60.65,98.79,95.70,37.125705,1,1,0,1,0,,,,,,,,
559946,100868.218750,281.66,102.002571,-3.682282,1.110909,0.863086,-0.145798,-0.164954,286.35,4.02,61.89,99.96,95.37,37.125705,1,1,0,1,0,,,,,,,,
559956,100849.515625,281.66,102.778289,-4.165910,2.825157,0.821581,-0.040440,-0.163890,286.49,4.01,63.21,101.20,95.14,38.648735,1,1,0,1,0,,,,,,,,
559966,100830.812500,281.66,102.400001,-3.543418,1.513135,0.815196,0.011706,-0.167083,286.69,4.02,64.59,102.48,94.89,40.171993,1,1,0,1,0,,,,,,,,
559976,100812.109375,281.66,101.322616,-3.423708,1.403002,0.792847,0.141541,-0.157505,286.54,4.01,66.02,103.79,94.57,41.695480,1,1,0,1,0,,,,,,,,
559986,100793.421875,281.66,102.888420,-3.950432,1.268926,0.798168,0.168147,-0.155376,286.54,4.01,67.47,105.12,94.43,43.217922,1,1,0,1,0,,,,,,,,
559996,100793.421875,281.66,100.781524,-4.596867,1.680729,0.764113,0.203267,-0.146863,286.30,4.01,68.58,106.09,94.10,43.217922,1,1,0,1,0,,,,,,,,
560006,100756.015625,281.66,102.165374,-3.888183,-0.124498,0.752407,0.280955,-0.130899,286.54,4.01,70.18,107.53,93.93,46.266036,1,1,0,1,0,,,,,,,,
560016,100756.015625,281.66,99.718498,-4.927267,0.622492,0.740700,0.273505,-0.113872,286.54,4.00,71.39,108.56,93.55,46.266036,1,1,0,1,0,,,,,,,,
560026,100756.015625,281.66,98.698570,-3.782838,0.301669,0.753471,0.274570,-0.098972,286.54,3.98,72.31,109.29,93.11,46.266036,1,1,0,1,0,,,,,,,,
560036,100699.906250,281.66,99.287544,-4.070142,-1.379060,0.765177,0.221358,-0.065981,286.54,3.98,74.14,110.91,92.76,50.839931,1,1,0,1,0,,,,,,,,
560046,100714.890625,281.64,98.961929,-4.587290,-0.732625,0.772627,0.200074,-0.032990,286.35,3.98,75.22,111.78,92.41,49.618240,1,1,0,1,0,,,,,,,,
560056,100681.218750,281.66,98.080863,-4.304774,-1.072602,0.760921,0.196881,-0.008513,286.54,3.98,76.73,113.04,92.02,52.363746,1,1,0,1,0,,,,,,,,
560066,100681.218750,281.66,97.750465,-4.424484,-1.230619,0.790719,0.164954,0.011706,286.54,3.98,77.87,113.93,91.63,52.363746,1,1,0,1,0,,,,,,,,
560076,100658.796875,281.64,97.592445,-4.453215,-0.943315,0.803490,0.068110,0.045761,286.49,3.98,79.19,114.99,91.26,54.192371,1,1,0,1,0,,,,,,,,
560086,100640.093750,281.64,97.185432,-4.448426,-2.470816,0.829031,0.021284,0.055339,286.59,3.98,80.56,116.08,90.89,55.717967,1,1,0,1,0,,,,,,,,
560096,100643.812500,281.66,97.137550,-4.189852,-1.513135,0.802425,0.025541,0.072367,286.69,3.98,81.53,116.77,90.56,55.414615,1,1,0,1,0,,,,,,,,
560106,100602.687500,281.64,95.523857,-4.213794,-0.622492,0.805618,-0.060660,0.081945,286.35,3.97,83.10,118.02,90.09,58.769844,1,1,0,1,0,,,,,,,,
560116,100606.406250,281.66,96.486328,-3.399766,-0.890643,0.776884,-0.097908,0.093651,286.54,3.97,84.21,118.82,89.77,58.466400,1,1,0,1,0,,,,,,,,
560126,100569.015625,281.66,95.418510,-3.778050,-1.699883,0.759856,-0.143670,0.111743,286.54,3.97,85.81,120.08,89.37,61.517829,1,1,0,1,0,,,,,,,,
560136,100546.593750,281.64,96.189445,-3.342305,-1.168370,0.802425,-0.111743,0.105358,286.30,3.98,87.47,121.40,89.09,63.348106,1,1,0,1,0,,,,,,,,
560146,100531.609375,281.66,93.991569,-3.414131,0.119710,0.770499,-0.092587,0.121321,286.49,3.97,89.04,122.58,88.62,64.571456,1,1,0,1,0,,,,,,,,
560156,100512.906250,281.66,94.393791,-3.725377,0.119710,0.763049,-0.117064,0.100037,286.39,3.97,90.61,123.76,88.23,66.098609,1,1,0,1,0,,,,,,,,
560166,100490.500000,281.64,94.791229,-3.122039,-0.526724,0.722608,-0.146863,0.080881,286.35,3.97,92.25,125.00,87.92,67.928436,1,1,0,1,0,,,,,,,,
560176,100494.218750,281.66,93.977203,-2.638410,-1.149216,0.685361,-0.170276,0.059596,286.54,3.97,93.41,125.77,87.57,67.624717,1,1,0,1,0,,,,,,,,
560186,100456.812500,281.66,94.173530,-2.968810,0.517147,0.671526,-0.084073,0.030862,286.39,3.97,95.05,126.98,87.26,70.680183,1,1,0,1,0,,,,,,,,
560196,100453.093750,281.64,93.488784,-2.844311,0.248996,0.658755,-0.006385,0.006385,286.54,3.97,96.37,127.87,86.92,70.983993,1,1,0,1,0,,,,,,,,
560206,100419.406250,281.66,91.750595,-2.355894,0.665588,0.610865,-0.031926,-0.041504,286.30,3.97,98.05,129.09,86.44,73.736572,1,1,0,1,0,,,,,,,,
560216,100397.000000,281.64,91.688346,-2.245761,-0.320823,0.587452,0.010642,-0.048954,286.49,4.00,99.78,130.33,86.01,75.567779,1,1,0,1,0,,,,,,,,
560226,100382.015625,281.66,91.080223,-2.504334,-0.665588,0.593837,0.025541,-0.078752,286.39,4.00,101.39,131.45,85.56,76.792602,1,1,0,1,0,,,,,,,,
560236,100378.296875,281.64,90.759399,-2.825157,0.023942,0.540626,0.068110,-0.106422,286.54,4.01,102.69,132.25,85.12,77.096595,1,1,0,1,0,,,,,,,,
560246,100340.906250,281.64,89.591026,-3.299209,0.943315,0.535305,0.034055,-0.112807,286.54,4.01,104.43,133.45,84.61,80.153640,1,1,0,1,0,,,,,,,,
560256,100325.906250,281.66,90.836013,-2.724601,-0.531512,0.517213,0.017027,-0.131963,286.59,4.01,106.05,134.54,84.27,81.380294,1,1,0,1,0,,,,,,,,
560266,100303.500000,281.64,89.729888,-3.538630,-1.120486,0.537433,-0.030862,-0.125578,286.39,4.01,107.73,135.67,83.85,83.212882,1,1,0,1,0,,,,,,,,
560276,100303.500000,281.64,89.040359,-3.529053,-0.885854,0.574681,0.050018,-0.113872,286.49,4.01,109.00,136.39,83.41,83.212882,1,1,0,1,0,,,,,,,,
560286,100266.093750,281.64,89.222320,-3.318363,-0.148440,0.554461,0.017027,-0.117064,286.39,4.01,110.72,137.53,83.03,86.273056,1,1,0,1,0,,,,,,,,
560296,100247.406250,281.64,88.714744,-3.797203,0.014365,0.622571,-0.025541,-0.096844,286.39,4.01,112.41,138.62,82.64,87.802207,1,1,0,1,0,,,,,,,,
560306,100228.703125,281.64,88.858398,-3.629609,-0.282515,0.603415,-0.036183,-0.083009,286.30,4.01,114.06,139.67,82.30,89.332870,1,1,0,1,0,,,,,,,,
560316,100210.000000,281.64,90.060287,-4.046200,-1.067813,0.617250,-0.091523,-0.062789,286.54,4.01,115.69,140.70,82.10,90.863761,1,1,0,1,0,,,,,,,,
560326,100172.609375,281.64,87.886352,-3.160346,-0.967257,0.614057,-0.050018,-0.035119,286.54,4.01,117.68,142.06,81.72,93.924964,1,1,0,1,0,,,,,,,,
560336,100153.906250,281.64,87.249496,-3.586513,-0.761356,0.605544,-0.020220,-0.007449,286.59,4.01,119.57,143.29,81.31,95.456550,1,1,0,1,0,,,,,,,,
560346,100153.906250,281.64,87.455398,-3.093308,0.191536,0.587452,-0.063853,0.001064,286.49,4.01,121.00,144.06,80.96,95.456550,1,1,0,1,0,,,,,,,,
560356,100135.203125,281.64,86.579116,-2.901772,0.359130,0.598094,-0.023412,0.039376,286.30,4.01,122.46,144.85,80.56,96.988372,1,1,0,1,0,,,,,,,,
560366,100097.812500,281.64,85.549613,-2.992752,0.876277,0.590645,0.021284,0.043633,286.49,4.01,124.33,146.02,80.10,100.051422,1,1,0,1,0,,,,,,,,
560376,100116.500000,281.64,87.752281,-3.236960,0.186747,0.565103,-0.026605,0.031926,286.30,4.01,125.35,146.38,79.90,98.520423,1,1,0,1,0,,,,,,,,
560386,100079.109375,281.64,85.468208,-3.165134,0.076614,0.548075,0.030862,0.055339,286.54,4.02,126.89,147.21,79.49,101.583938,1,1,0,1,0,,,,,,,,
560396,100041.703125,281.64,85.741149,-1.915361,-0.316034,0.582131,0.017027,0.043633,286.54,4.01,128.81,148.41,79.15,104.649665,1,1,0,1,0,,,,,,,,
560406,100023.015625,281.64,84.936698,-1.604115,-0.330399,0.561910,0.011706,0.036183,286.59,4.01,130.65,149.51,78.77,106.181594,1,1,0,1,0,,,,,,,,
560416,100004.312500,281.64,85.133026,-1.757344,-0.565031,0.590645,0.070238,0.017027,286.30,4.00,132.42,150.53,78.44,107.715034,1,1,0,1,0,,,,,,,,
560426,99985.609375,281.64,85.128234,-2.552218,0.263362,0.587452,0.051082,-0.002128,286.59,3.99,134.14,151.49,78.14,109.248710,1,1,0,1,0,,,,,,,,
560436,99944.468750,281.62,85.295829,-2.518700,-0.641646,0.601287,0.005321,-0.005321,286.54,3.99,136.27,152.85,77.89,112.623100,1,1,0,1,0,,,,,,,,
560446,99944.468750,281.62,86.344490,-3.021482,-1.637633,0.615122,0.010642,-0.027669,286.20,3.98,137.89,153.70,77.76,112.623100,1,1,0,1,0,,,,,,,,
560456,99929.515625,281.64,85.956626,-2.877830,-0.909796,0.624700,-0.060660,-0.039376,286.39,3.98,139.41,154.44,77.60,113.849845,1,1,0,1,0,,,,,,,,
560466,99892.109375,281.64,86.191261,-2.810792,-1.719036,0.649177,-0.041504,-0.044697,286.30,3.98,141.32,155.57,77.49,116.919288,1,1,0,1,0,,,,,,,,
560476,99892.109375,281.64,85.966201,-1.786074,-0.718260,0.660883,-0.123450,-0.055339,286.54,3.98,142.77,156.22,77.36,116.919288,1,1,0,1,0,,,,,,,,
560486,99850.984375,281.62,86.167320,-2.097320,-1.613691,0.654498,-0.126642,-0.034055,286.59,3.98,144.70,157.34,77.26,120.294952,1,1,0,1,0,,,,,,,,
560496,99854.718750,281.64,86.449836,-2.863465,0.469263,0.634278,-0.043633,-0.029798,286.54,3.98,146.08,157.92,77.21,119.988372,1,1,0,1,0,,,,,,,,
560506,99813.578125,281.62,86.761077,-2.054224,0.349553,0.640663,-0.028734,-0.005321,286.59,3.98,147.97,158.98,77.18,123.366348,1,1,0,1,0,,,,,,,,
560516,99794.890625,281.62,85.765090,-3.256114,-0.387860,0.638535,-0.067046,-0.012770,286.54,3.97,149.77,159.94,77.06,124.901107,1,1,0,1,0,,,,,,,,
560526,99776.187500,281.62,80.981475,-2.408566,0.081402,0.723673,-0.022348,0.012770,286.54,3.97,151.52,160.81,76.50,126.437393,1,1,0,1,0,,,,,,,,
560536,99742.515625,281.64,76.499534,-3.093308,-1.216254,0.677911,-0.037247,0.003192,286.54,3.97,153.53,161.88,75.57,129.203796,1,1,0,1,0,,,,,,,,
560546,99720.093750,281.62,67.391990,-0.387860,1.058237,0.694939,0.023412,0.044697,286.54,3.98,155.52,162.84,73.86,131.046340,1,1,0,1,0,,,,,,,,
560556,99701.390625,281.62,53.314083,-2.006340,-0.555454,0.627892,-0.007449,0.048954,286.35,3.97,157.41,163.59,70.97,132.583557,1,1,0,1,0,,,,,,,,
560566,99701.390625,281.62,40.706214,-0.047884,-1.666364,0.631085,0.007449,0.062789,286.54,3.97,158.85,163.77,67.16,132.583557,1,1,0,1,0,,,,,,,,
560576,99664.000000,281.62,24.492683,0.612915,0.316034,0.700260,0.090459,0.091523,286.54,3.97,160.71,164.23,62.17,135.657409,1,1,0,1,0,,,,,,,,
560586,99645.296875,281.62,13.603854,1.407790,-0.861912,0.666204,0.133028,0.113872,286.39,3.97,162.50,164.51,56.62,137.195312,1,1,0,1,0,,,,,,,,
560596,99645.296875,281.62,4.888959,1.177947,-1.522712,0.672590,0.065981,0.106422,286.39,3.96,163.84,164.28,50.77,137.195312,1,1,0,1,0,,,,,,,,
560606,99607.890625,281.62,2.217030,0.876277,-2.509123,0.703452,-0.037247,0.104294,286.49,3.97,165.61,164.43,45.22,140.271850,1,1,0,1,0,,,,,,,,
560616,99589.203125,281.62,-6.009446,1.503558,-1.857900,0.737508,-0.078752,0.045761,286.30,4.00,167.33,164.45,39.42,141.809173,1,1,0,1,0,,,,,,,,
560626,99607.890625,281.62,-7.206546,0.938527,-0.263362,0.714095,-0.020220,0.018091,286.30,4.00,168.23,163.66,34.06,140.271850,1,1,0,1,0,,,,,,,,
560636,99551.796875,281.62,-8.652645,1.920149,-2.834734,0.753471,-0.119193,-0.041504,286.69,4.00,170.05,163.75,29.07,144.887115,1,1,0,1,0,,,,,,,,
560646,99551.796875,281.62,-10.141838,3.500322,-1.915361,0.767306,-0.045761,-0.065981,286.49,4.00,171.41,163.37,24.41,144.887115,1,1,0,1,0,,,,,,,,
560656,99533.109375,281.62,-11.022904,2.413355,-1.752555,0.798168,-0.041504,-0.092587,286.49,4.01,172.81,163.01,20.11,146.425140,1,1,0,1,0,,,,,,,,
560666,99533.109375,281.62,-11.377245,2.327163,-1.398213,0.843930,0.000000,-0.104294,286.54,4.01,173.86,162.30,16.18,146.425140,1,1,0,1,0,,,,,,,,
560676,99514.406250,281.62,-11.975796,0.296881,-2.858676,0.863086,0.039376,-0.120257,286.54,4.01,175.01,161.70,12.58,147.964691,1,1,0,1,0,,,,,,,,
560686,99477.000000,281.62,-12.234370,1.958456,-0.550666,0.830095,-0.003192,-0.127707,286.35,4.01,176.64,161.56,9.29,151.044494,1,1,0,1,0,,,,,,,,
560696,99477.000000,281.62,-11.573571,1.431732,-1.810016,0.848187,-0.046825,-0.124514,286.35,4.01,177.86,161.01,6.37,151.044494,1,1,0,1,0,,,,,,,,
560706,99458.312500,281.62,-11.353303,0.636857,-3.452438,0.857765,-0.069174,-0.103229,286.54,4.01,179.15,160.54,3.75,152.583465,1,1,0,1,0,,,,,,,,
560716,99458.312500,281.62,-13.532028,3.366247,-4.735730,0.834352,-0.067046,-0.084073,286.59,4.01,180.12,159.74,1.18,152.583465,1,1,0,1,0,,,,,,,,
560726,99439.609375,281.62,-12.665327,0.474051,0.129286,0.883306,-0.002128,-0.027669,286.30,4.01,181.22,159.07,-1.06,154.123962,1,1,0,1,0,,,,,,,,
560736,99417.218750,281.61,-11.856086,0.861912,6.761225,0.831159,0.184110,0.043633,286.30,4.01,182.49,158.59,-3.01,155.968475,1,1,0,1,0,,,,,,,,
560746,99402.218750,281.62,-12.081141,3.112462,0.928950,0.910976,-0.057468,0.034055,286.39,4.01,183.76,158.09,-4.81,157.204360,1,1,0,1,0,,,,,,,,
560756,99379.828125,281.61,-14.039598,1.067813,-3.251325,0.879050,-0.110679,0.063853,286.49,4.01,185.16,157.71,-6.61,159.049438,1,1,0,1,0,,,,,,,,
560766,99383.515625,281.62,-12.052411,0.981622,-2.509123,0.877985,-0.084073,0.071303,286.35,4.01,186.13,156.93,-8.06,158.745544,1,1,0,1,0,,,,,,,,
560776,99364.812500,281.62,-11.985373,0.737414,-1.541865,0.923747,-0.063853,0.087266,286.54,4.02,187.24,156.29,-9.36,160.286972,1,1,0,1,0,,,,,,,,
560786,99346.109375,281.62,-11.583148,0.569819,-2.580949,0.936518,-0.119193,0.090459,286.49,4.01,188.44,155.75,-10.50,161.828643,1,1,0,1,0,,,,,,,,
560796,99323.734375,281.61,-11.631031,2.073378,-2.552218,0.868407,-0.075559,0.085138,286.49,4.02,189.81,155.37,-11.54,163.673278,1,1,0,1,0,,,,,,,,
560806,99305.031250,281.61,-12.234370,1.374271,-1.206677,0.859893,-0.024477,0.078752,286.54,4.02,191.21,155.02,-12.54,165.215454,1,1,0,1,0,,,,,,,,
560816,99305.031250,281.61,-11.803414,2.413355,-0.167594,0.871600,0.039376,0.061725,286.54,4.00,192.26,154.34,-13.40,165.215454,1,1,0,1,0,,,,,,,,
560826,99267.640625,281.61,-11.343727,3.222595,-1.312022,0.888628,-0.051082,0.019156,286.54,3.99,193.81,154.15,-14.14,168.299224,1,1,0,1,0,,,,,,,,
560836,99267.640625,281.61,-11.568782,1.714248,-1.254561,0.917362,-0.069174,0.018091,286.54,3.98,194.97,153.58,-14.82,168.299224,1,1,0,1,0,,,,,,,,
560846,99252.625000,281.62,-11.841721,2.250549,-1.723825,0.918426,-0.125578,-0.011706,286.49,3.98,196.15,153.03,-15.47,169.537902,1,1,0,1,0,,,,,,,,
560856,99230.234375,281.61,-11.760318,1.795651,-1.628057,0.824774,-0.131963,-0.028734,286.54,3.98,197.49,152.64,-16.05,171.385238,1,1,0,1,0,,,,,,,,
560866,99215.218750,281.62,-11.846509,1.857900,-1.829170,0.883306,-0.113872,-0.047890,286.54,3.97,198.80,152.22,-16.58,172.624282,1,1,0,1,0,,,,,,,,
560876,99192.843750,281.61,-11.712434,2.087743,-1.675941,0.842866,-0.085138,-0.062789,286.39,3.98,200.24,151.94,-17.05,174.470901,1,1,0,1,0,,,,,,,,
560886,99192.843750,281.61,-11.592724,2.030282,-0.761356,0.838609,-0.067046,-0.054275,286.39,3.98,201.32,151.30,-17.46,174.470901,1,1,0,1,0,,,,,,,,
560896,99174.140625,281.61,-11.329361,0.986411,-1.613691,0.888628,-0.098972,-0.059596,286.54,3.98,202.50,150.79,-17.81,176.014724,1,1,0,1,0,,,,,,,,
560906,99155.453125,281.61,-11.415553,2.260126,-1.043871,0.870536,-0.081945,-0.057468,286.30,3.98,203.78,150.35,-18.13,177.557495,1,1,0,1,0,,,,,,,,
560916,99155.453125,281.61,-11.745953,1.541865,-1.039083,0.775820,-0.086202,-0.078752,286.49,3.98,204.73,149.61,-18.45,177.557495,1,1,0,1,0,,,,,,,,
560926,99118.046875,281.61,-11.247959,1.771709,-1.015141,0.821581,-0.068110,-0.070238,286.59,3.97,206.21,149.39,-18.70,180.646331,1,1,0,1,0,,,,,,,,
560936,99118.046875,281.61,-11.362880,0.861912,-0.794874,0.814132,-0.054275,-0.047890,286.39,3.98,207.32,148.81,-18.93,180.646331,1,1,0,1,0,,,,,,,,
560946,99099.359375,281.61,-11.161767,0.699106,-0.751779,0.814132,-0.047890,-0.040440,286.54,3.97,208.53,148.33,-19.12,182.189804,1,1,0,1,0,,,,,,,,
560956,99080.656250,281.61,-11.324573,1.450886,-0.316034,0.799233,-0.022348,-0.008513,286.59,3.97,209.82,147.94,-19.31,183.734817,1,1,0,1,0,,,,,,,,
560966,99061.953125,281.61,-11.228805,0.895431,-1.029506,0.808811,0.019156,0.017027,286.69,3.97,211.17,147.61,-19.48,185.280059,1,1,0,1,0,,,,,,,,
560976,99043.265625,281.61,-11.310208,1.264138,-0.430956,0.805618,0.015963,0.012770,286.30,3.97,212.57,147.33,-19.63,186.824249,1,1,0,1,0,,,,,,,,
560986,99043.265625,281.61,-11.310208,1.752555,-1.254561,0.812003,0.012770,0.029798,286.74,3.97,213.61,146.70,-19.77,186.824249,1,1,0,1,0,,,,,,,,
560996,99024.562500,281.61,-11.281477,0.866701,-2.183511,0.774755,0.001064,0.012770,286.54,3.97,214.78,146.20,-19.89,188.369964,1,1,0,1,0,,,,,,,,
561006,99005.859375,281.61,-11.257535,1.934514,-0.847547,0.831159,0.023412,0.023412,286.54,3.97,216.04,145.80,-20.00,189.915908,1,1,0,1,0,,,,,,,,
561016,98987.171875,281.61,-11.109095,1.786074,-1.426944,0.824774,0.009578,0.029798,286.49,3.99,217.36,145.46,-20.09,191.460800,1,1,0,1,0,,,,,,,,
561026,98990.843750,281.62,-10.812214,1.240196,-2.355894,0.813068,-0.015963,0.025541,286.35,4.00,218.28,144.74,-20.14,191.157241,1,1,0,1,0,,,,,,,,
561036,98968.468750,281.61,-11.080365,1.623268,-1.537077,0.829031,-0.042569,0.018091,286.35,4.00,219.42,144.23,-20.21,193.007232,1,1,0,1,0,,,,,,,,
561046,98968.468750,281.61,-10.831368,2.303221,-1.187524,0.853508,-0.061725,0.008513,286.39,4.00,220.28,143.46,-20.25,193.007232,1,1,0,1,0,,,,,,,,
561056,98949.765625,281.61,-11.037269,1.556231,-1.460463,0.837545,-0.069174,-0.002128,286.30,4.01,221.30,142.85,-20.30,194.553894,1,1,0,1,0,,,,,,,,
561066,98912.375000,281.61,-11.109095,2.370259,-1.503558,0.823710,-0.064917,-0.023412,286.49,4.01,222.83,142.75,-20.36,197.646636,1,1,0,1,0,,,,,,,,
561076,98912.375000,281.61,-10.864887,2.260126,-1.350329,0.817324,-0.074495,-0.043633,286.39,4.01,223.98,142.27,-20.39,197.646636,1,1,0,1,0,,,,,,,,
561086,98893.671875,281.61,-10.994174,1.470039,-0.943315,0.836480,-0.069174,-0.058532,286.35,4.01,225.23,141.89,-20.43,199.194000,1,1,0,1,0,,,,,,,,
561096,98893.671875,281.61,-10.994174,1.446097,-1.369483,0.807746,-0.041504,-0.073431,286.30,4.01,226.16,141.21,-20.46,199.194000,1,1,0,1,0,,,,,,,,
561106,98874.984375,281.61,-10.994174,1.613691,-1.503558,0.849251,-0.005321,-0.072367,286.49,4.01,227.24,140.69,-20.49,200.740325,1,1,0,1,0,,,,,,,,
561116,98856.281250,281.61,-10.821791,1.312022,0.167594,0.793911,-0.011706,-0.076624,286.49,4.01,228.43,140.27,-20.50,202.288162,1,1,0,1,0,,,,,,,,
561126,98837.578125,281.61,-10.903194,1.211466,-0.215478,0.800297,-0.057468,-0.073431,286.49,4.02,229.71,139.95,-20.52,203.836242,1,1,0,1,0,,,,,,,,
561136,98818.890625,281.61,-10.544064,1.508347,-0.833182,0.827967,-0.025541,-0.058532,286.39,4.01,231.05,139.69,-20.50,205.383270,1,1,0,1,0,,,,,,,,
561146,98818.890625,281.61,-10.639832,0.742202,-0.823605,0.801361,-0.025541,-0.059596,286.35,4.01,232.06,139.10,-20.50,205.383270,1,1,0,1,0,,,,,,,,
561156,98800.187500,281.61,-10.817003,0.995987,-1.699883,0.798168,-0.012770,-0.041504,286.49,4.01,233.20,138.65,-20.51,206.931823,1,1,0,1,0,,,,,,,,
561166,98781.484375,281.61,-10.386046,1.134851,-1.704671,0.804554,0.003192,-0.026605,286.54,4.01,234.43,138.31,-20.48,208.480621,1,1,0,1,0,,,,,,,,
561176,98781.484375,281.61,-10.170568,1.647210,-1.019929,0.827967,0.014899,-0.005321,286.35,4.01,235.36,137.66,-20.43,208.480621,1,1,0,1,0,,,,,,,,
561186,98740.421875,281.59,-10.534487,1.230619,-0.723048,0.805618,-0.003192,-0.015963,286.59,4.02,236.90,137.61,-20.42,211.881820,1,1,0,1,0,,,,,,,,
561196,98744.093750,281.61,-10.649409,0.440533,-1.154005,0.788590,-0.011706,-0.002128,286.54,4.01,237.97,137.12,-20.42,211.577621,1,1,0,1,0,,,,,,,,
561206,98725.390625,281.61,-10.323797,1.719036,-1.383848,0.813068,-0.032990,0.005321,286.35,4.01,239.17,136.75,-20.39,213.127136,1,1,0,1,0,,,,,,,,
561216,98703.031250,281.59,-10.568006,1.479616,-1.096544,0.820517,0.004256,0.010642,286.35,4.00,240.52,136.53,-20.39,214.979858,1,1,0,1,0,,,,,,,,
561226,98684.328125,281.59,-10.328585,1.029506,-0.967257,0.835416,-0.022348,0.004256,286.59,3.99,241.92,136.36,-20.36,216.529891,1,1,0,1,0,,,,,,,,
561236,98684.328125,281.59,-10.481815,2.087743,-1.417367,0.824774,-0.040440,-0.001064,286.54,3.98,242.97,135.86,-20.36,216.529891,1,1,0,1,0,,,,,,,,
561246,98669.296875,281.61,-10.194510,1.268926,-1.407790,0.780077,-0.056403,-0.007449,286.39,3.98,244.07,135.40,-20.32,217.775787,1,1,0,1,0,,,,,,,,
561256,98646.937500,281.59,-10.323797,1.422155,-0.914585,0.833288,-0.009578,0.007449,286.39,3.98,245.35,135.13,-20.30,219.629364,1,1,0,1,0,,,,,,,,
561266,98628.234375,281.59,-10.165780,1.331176,-0.636857,0.815196,-0.030862,-0.007449,286.54,3.98,246.69,134.93,-20.27,221.180114,1,1,0,1,0,,,,,,,,
561276,98609.531250,281.59,-10.362104,1.168370,-0.818816,0.833288,-0.041504,-0.012770,286.39,3.98,248.09,134.77,-20.26,222.731094,1,1,0,1,0,,,,,,,,
561286,98609.531250,281.59,-10.002974,1.292868,-1.374271,0.791783,-0.050018,-0.014899,286.30,3.98,249.14,134.28,-20.22,222.731094,1,1,0,1,0,,,,,,,,
561296,98594.515625,281.61,-10.165780,0.842759,-1.561019,0.812003,-0.060660,-0.007449,286.49,3.98,250.23,133.84,-20.19,223.976455,1,1,0,1,0,,,,,,,,
561306,98590.843750,281.59,-9.931148,2.111685,-1.149216,0.792847,-0.052147,-0.015963,286.69,3.97,251.12,133.21,-20.15,224.281005,1,1,0,1,0,,,,,,,,
561316,98572.140625,281.59,-10.055646,0.588973,-1.388636,0.829031,-0.036183,0.011706,286.39,3.97,252.17,132.74,-20.12,225.832473,1,1,0,1,0,,,,,,,,
561326,98553.453125,281.59,-9.548076,0.521935,-1.134851,0.770499,-0.010642,0.013834,286.59,3.97,253.35,132.40,-20.04,227.382873,1,1,0,1,0,,,,,,,,
561336,98534.750000,281.59,-10.103530,0.670376,-0.378283,0.770499,0.041504,0.036183,286.35,3.97,254.61,132.14,-20.03,228.934799,1,1,0,1,0,,,,,,,,
561346,98534.750000,281.59,-9.974244,1.077390,-0.502782,0.787526,0.032990,0.053211,286.59,3.97,255.56,131.58,-20.00,228.934799,1,1,0,1,0,,,,,,,,
561356,98516.046875,281.59,-10.089165,0.584185,-1.436521,0.797104,0.039376,0.074495,286.39,3.97,256.65,131.17,-19.99,230.486968,1,1,0,1,0,,,,,,,,
561366,98478.656250,281.59,-9.725247,1.335964,-1.048660,0.805618,0.000000,0.078752,286.49,3.97,258.24,131.24,-19.95,233.590728,1,1,0,1,0,,,,,,,,
561376,98478.656250,281.59,-9.902418,1.211466,-1.848323,0.831159,0.027669,0.081945,286.54,3.97,259.44,130.93,-19.93,233.590728,1,1,0,1,0,,,,,,,,
561386,98478.656250,281.59,-9.840168,1.489193,-1.647210,0.822646,0.043633,0.071303,286.54,3.97,260.34,130.34,-19.90,233.590728,1,1,0,1,0,,,,,,,,
561396,98459.953125,281.59,-9.615114,2.149993,-1.422155,0.831159,0.005321,0.060660,286.54,3.97,261.39,129.90,-19.85,235.143615,1,1,0,1,0,,,,,,,,
561406,98441.265625,281.59,-9.691728,1.326387,-2.130839,0.822646,-0.020220,0.052147,286.49,3.97,262.57,129.58,-19.82,236.695449,1,1,0,1,0,,,,,,,,
561416,98422.562500,281.59,-9.749189,1.503558,-0.794874,0.870536,-0.025541,0.035119,286.54,3.99,263.83,129.36,-19.79,238.248809,1,1,0,1,0,,,,,,,,
561426,98422.562500,281.59,-9.624691,1.747767,-1.058237,0.869471,-0.074495,0.013834,286.49,4.00,264.78,128.83,-19.76,238.248809,1,1,0,1,0,,,,,,,,
561436,98385.171875,281.59,-9.619902,0.957680,-2.379836,0.888628,-0.101101,0.000000,286.39,4.00,266.27,128.83,-19.72,241.354965,1,1,0,1,0,,,,,,,,
561446,98403.875000,281.59,-9.634267,1.905784,-1.656787,0.824774,-0.108550,-0.013834,286.35,4.00,266.99,128.09,-19.69,239.801116,1,1,0,1,0,,,,,,,,
561456,98366.468750,281.59,-9.351751,1.187524,-1.345541,0.852444,-0.087266,-0.017027,286.74,4.01,268.31,127.93,-19.64,242.909042,1,1,0,1,0,,,,,,,,
561466,98366.468750,281.59,-9.538499,1.422155,-0.952892,0.831159,-0.098972,-0.024477,286.30,4.00,269.29,127.45,-19.61,242.909042,1,1,0,1,0,,,,,,,,
561476,98347.781250,281.59,-9.538499,1.503558,-0.699106,0.823710,-0.063853,-0.015963,286.30,4.01,270.42,127.11,-19.59,244.462066,1,1,0,1,0,,,,,,,,
561486,98347.781250,281.59,-9.255983,1.024718,-0.679953,0.825838,-0.025541,-0.008513,286.30,4.01,271.26,126.50,-19.53,244.462066,1,1,0,1,0,,,,,,,,
561496,98310.375000,281.59,-9.658209,1.211466,-0.009576,0.791783,-0.009578,-0.008513,286.69,4.01,272.66,126.44,-19.53,247.571441,1,1,0,1,0,,,,,,,,
561506,98310.375000,281.59,-9.528923,1.709460,-0.569819,0.812003,-0.006385,-0.017027,286.30,4.01,273.71,126.04,-19.51,247.571441,1,1,0,1,0,,,,,,,,
561516,98291.687500,281.59,-9.423577,1.077390,-0.205901,0.837545,0.019156,-0.025541,286.35,4.01,274.88,125.77,-19.48,249.125167,1,1,0,1,0,,,,,,,,
561526,98272.984375,281.59,-9.232041,1.508347,-1.106121,0.802425,-0.002128,-0.017027,286.54,4.02,276.15,125.59,-19.44,250.680450,1,1,0,1,0,,,,,,,,
561536,98254.296875,281.59,-9.533711,0.622492,-2.188300,0.836480,0.019156,0.004256,286.35,4.02,277.49,125.47,-19.43,252.234680,1,1,0,1,0,,,,,,,,
561546,98250.625000,281.57,-9.457096,1.537077,-1.575384,0.786462,0.019156,-0.004256,286.30,4.01,278.57,125.11,-19.41,252.540084,1,1,0,1,0,,,,,,,,
561556,98250.625000,281.57,-9.447519,1.273715,-0.248996,0.800297,0.018091,0.001064,286.39,4.02,279.37,124.49,-19.40,252.540084,1,1,0,1,0,,,,,,,,
561566,98216.890625,281.59,-9.753977,1.642422,-1.599326,0.805618,-0.037247,0.009578,286.30,4.01,280.68,124.35,-19.41,255.346435,1,1,0,1,0,,,,,,,,
561576,98216.890625,281.59,-9.576807,1.086967,-2.073378,0.819453,-0.052147,0.025541,286.35,4.01,281.65,123.90,-19.41,255.346435,1,1,0,1,0,,,,,,,,
561586,98198.203125,281.59,-9.682151,0.938527,-0.905008,0.806682,-0.036183,0.026605,286.39,4.02,282.77,123.58,-19.41,256.901367,1,1,0,1,0,,,,,,,,
561596,98179.500000,281.59,-9.533711,1.623268,-0.790086,0.797104,-0.065981,0.035119,286.54,4.02,283.99,123.38,-19.41,258.457855,1,1,0,1,0,,,,,,,,
561606,98160.796875,281.59,-9.888052,0.890643,-1.374271,0.800297,-0.040440,0.029798,286.54,4.02,285.30,123.25,-19.43,260.014556,1,1,0,1,0,,,,,,,,
561616,98160.796875,281.59,-9.279925,1.896207,-0.023942,0.796040,-0.011706,0.026605,286.30,4.00,286.28,122.82,-19.40,260.014556,1,1,0,1,0,,,,,,,,
561626,98142.109375,281.59,-9.677363,2.111685,-0.818816,0.773691,-0.040440,0.002128,286.54,3.98,287.40,122.52,-19.41,261.570220,1,1,0,1,0,,,,,,,,
561636,98123.406250,281.59,-9.313444,0.957680,-3.155557,0.776884,-0.059596,0.008513,286.54,3.98,288.62,122.33,-19.38,263.127410,1,1,0,1,0,,,,,,,,
561646,98123.406250,281.59,-9.165003,1.412578,-0.550666,0.801361,0.011706,-0.002128,286.35,3.98,289.54,121.84,-19.34,263.127410,1,1,0,1,0,,,,,,,,
561656,98101.046875,281.57,-9.619902,1.872265,-1.561019,0.731122,-0.011706,-0.008513,286.59,3.98,290.69,121.58,-19.35,264.989349,1,1,0,1,0,,,,,,,,
561666,98086.015625,281.59,-9.500192,0.545877,-1.498770,0.764113,-0.008513,-0.010642,286.54,3.98,291.87,121.35,-19.34,266.241241,1,1,0,1,0,,,,,,,,
561676,98067.312500,281.59,-9.203310,2.207453,-0.531512,0.768370,-0.027669,-0.021284,286.30,3.98,293.13,121.21,-19.31,267.799163,1,1,0,1,0,,,,,,,,
561686,98048.625000,281.59,-9.241618,1.187524,-2.111685,0.697067,-0.027669,-0.020220,286.49,3.97,294.47,121.15,-19.28,269.356018,1,1,0,1,0,,,,,,,,
561696,98048.625000,281.59,-9.380481,1.139639,-0.799663,0.749214,-0.001064,-0.012770,286.54,3.98,295.48,120.75,-19.27,269.356018,1,1,0,1,0,,,,,,,,
561706,98029.921875,281.59,-9.313444,1.393425,-0.785298,0.743893,-0.011706,-0.021284,286.49,3.97,296.62,120.50,-19.26,270.914428,1,1,0,1,0,,,,,,,,
561716,98026.265625,281.57,-9.169792,1.273715,-0.924161,0.714095,-0.021284,-0.036183,286.49,3.97,297.55,120.04,-19.23,271.219085,1,1,0,1,0,,,,,,,,
561726,98007.562500,281.57,-9.203310,1.484405,-0.296881,0.707709,-0.026605,-0.045761,286.49,3.98,298.63,119.74,-19.21,272.777770,1,1,0,1,0,,,,,,,,
561736,97992.531250,281.59,-9.227252,1.814804,-1.168370,0.724737,-0.001064,-0.050018,286.30,3.97,299.75,119.48,-19.19,274.030639,1,1,0,1,0,,,,,,,,
561746,97973.828125,281.59,-8.973467,0.225054,-1.853112,0.731122,-0.035119,-0.050018,286.49,3.98,300.98,119.32,-19.15,275.589752,1,1,0,1,0,,,,,,,,
561756,97992.531250,281.59,-9.265560,0.660799,-0.201112,0.743893,-0.019156,-0.031926,286.54,3.97,301.52,118.49,-19.14,274.030639,1,1,0,1,0,,,,,,,,
561766,97951.468750,281.57,-8.973467,1.149216,-1.446097,0.766242,-0.045761,-0.007449,286.39,3.98,302.76,118.36,-19.11,277.454010,1,1,0,1,0,,,,,,,,
561776,97932.781250,281.57,-8.868123,1.034295,-1.316810,0.767306,-0.050018,-0.008513,286.54,3.97,304.09,118.31,-19.07,279.012359,1,1,0,1,0,,,,,,,,
561786,97914.078125,281.57,-9.131484,0.311246,-2.063801,0.741764,-0.059596,-0.001064,286.30,3.98,305.47,118.32,-19.05,280.572235,1,1,0,1,0,,,,,,,,
561796,97914.078125,281.57,-8.729259,0.761356,-1.144428,0.772627,-0.053211,0.014899,286.49,3.97,306.51,117.99,-19.00,280.572235,1,1,0,1,0,,,,,,,,
561806,97914.078125,281.57,-9.260771,0.636857,-0.502782,0.761985,-0.026605,0.037247,286.54,3.97,307.28,117.41,-19.01,280.572235,1,1,0,1,0,,,,,,,,
561816,97914.078125,281.57,-8.983044,1.187524,-0.474051,0.735379,-0.027669,0.039376,286.49,3.99,307.86,116.65,-18.98,280.572235,1,1,0,1,0,,,,,,,,
561826,97876.687500,281.57,-8.815450,0.837970,-1.187524,0.750278,-0.064917,0.037247,286.35,4.00,309.07,116.50,-18.95,283.691436,1,1,0,1,0,,,,,,,,
561836,97858.000000,281.57,-9.006986,1.110909,-0.263362,0.727930,-0.024477,0.037247,286.54,4.00,310.36,116.44,-18.94,285.250762,1,1,0,1,0,,,,,,,,
561846,97842.953125,281.59,-9.208099,1.139639,-0.488417,0.756664,-0.037247,0.041504,286.30,4.01,311.65,116.36,-18.94,286.506469,1,1,0,1,0,,,,,,,,
561856,97839.296875,281.57,-8.925583,2.092532,-1.345541,0.732186,-0.060660,0.034055,286.30,4.01,312.69,116.05,-18.92,286.811614,1,1,0,1,0,,,,,,,,
561866,97820.593750,281.57,-8.805873,0.842759,-1.312022,0.710902,-0.038312,0.037247,286.20,4.01,313.85,115.87,-18.89,288.372711,1,1,0,1,0,,,,,,,,
561876,97824.250000,281.59,-8.561665,1.249773,-1.225831,0.718352,-0.044697,0.023412,286.49,4.01,314.65,115.34,-18.84,288.067535,1,1,0,1,0,,,,,,,,
561886,97801.906250,281.57,-8.810662,1.742978,-0.569819,0.709838,-0.028734,0.018091,286.30,4.01,315.71,115.07,-18.82,289.932769,1,1,0,1,0,,,,,,,,
561896,97783.203125,281.57,-8.757989,1.058237,-1.091755,0.733251,-0.006385,0.010642,286.30,4.01,316.89,114.91,-18.79,291.494354,1,1,0,1,0,,,,,,,,
561906,97783.203125,281.57,-8.834604,1.575384,-0.636857,0.718352,-0.028734,-0.021284,286.49,4.02,317.78,114.47,-18.78,291.494354,1,1,0,1,0,,,,,,,,
561916,97764.515625,281.57,-8.738836,1.201889,-1.139639,0.723673,-0.034055,-0.021284,286.54,4.01,318.83,114.20,-18.76,293.054870,1,1,0,1,0,,,,,,,,
561926,97764.515625,281.57,-8.532935,0.708683,-1.067813,0.717287,-0.019156,-0.035119,286.39,4.01,319.62,113.67,-18.71,293.054870,1,1,0,1,0,,,,,,,,
561936,97727.109375,281.57,-8.628703,1.201889,-0.363918,0.705581,0.002128,-0.037247,286.49,4.01,320.99,113.71,-18.69,296.179229,1,1,0,1,0,,,,,,,,
561946,97727.109375,281.57,-8.207323,1.771709,-1.335964,0.719416,-0.022348,-0.053211,286.54,4.01,322.01,113.42,-18.62,296.179229,1,1,0,1,0,,,,,,,,
561956,97727.109375,281.57,-8.475473,0.047884,-1.757344,0.728994,-0.037247,-0.042569,286.39,4.01,322.78,112.88,-18.59,296.179229,1,1,0,1,0,,,,,,,,
561966,97708.421875,281.57,-8.619126,0.723048,-0.675164,0.736443,-0.034055,-0.025541,286.30,4.01,323.74,112.53,-18.57,297.740478,1,1,0,1,0,,,,,,,,
561976,97708.421875,281.57,-8.633491,0.694318,-1.364694,0.744957,-0.095780,-0.013834,286.54,4.01,324.46,111.96,-18.56,297.740478,1,1,0,1,0,,,,,,,,
561986,97671.031250,281.57,-8.719682,0.565031,-0.828393,0.747086,-0.054275,0.008513,286.49,4.01,325.78,111.96,-18.55,300.865020,1,1,0,1,0,,,,,,,,
561996,97671.031250,281.57,-8.370128,1.067813,-0.162805,0.731122,-0.063853,0.024477,286.54,4.01,326.76,111.65,-18.52,300.865020,1,1,0,1,0,,,,,,,,
562006,97652.328125,281.57,-8.010998,0.962469,-0.828393,0.736443,-0.104294,0.020220,286.54,4.02,327.89,111.48,-18.45,302.428283,1,1,0,1,0,,,,,,,,
562016,97633.640625,281.57,-8.327033,-0.497993,-1.465251,0.767306,-0.063853,0.053211,286.35,4.00,329.13,111.42,-18.42,303.990509,1,1,0,1,0,,,,,,,,
562026,97614.937500,281.57,-8.451531,1.034295,-0.905008,0.747086,-0.104294,0.071303,286.30,3.99,330.44,111.43,-18.41,305.554260,1,1,0,1,0,,,,,,,,
562036,97637.281250,281.59,-8.236053,1.077390,-0.785298,0.711966,-0.108550,0.091523,286.49,3.98,330.97,110.68,-18.37,303.686126,1,1,0,1,0,,,,,,,,
562046,97614.937500,281.57,-8.159439,0.521935,-0.627280,0.697067,-0.041504,0.106422,286.39,3.98,331.82,110.25,-18.33,305.554260,1,1,0,1,0,,,,,,,,
562056,97596.234375,281.57,-8.360551,0.890643,-0.885854,0.711966,-0.048954,0.116000,286.39,3.98,332.84,110.00,-18.31,307.118255,1,1,0,1,0,,,,,,,,
562066,97573.921875,281.56,-8.044517,1.364694,-1.235408,0.700260,-0.063853,0.113872,286.39,3.97,334.08,109.95,-18.27,308.984405,1,1,0,1,0,,,,,,,,
562076,97558.843750,281.57,-8.169015,1.048660,-0.402225,0.682168,-0.031926,0.113872,286.30,3.98,335.32,109.91,-18.24,310.245697,1,1,0,1,0,,,,,,,,
562086,97558.843750,281.57,-8.140285,1.039083,-1.019929,0.706645,0.003192,0.098972,286.30,3.98,336.25,109.57,-18.21,310.245697,1,1,0,1,0,,,,,,,,
562096,97517.843750,281.56,-7.934384,1.417367,-0.737414,0.700260,0.020220,0.097908,286.54,3.97,337.80,109.83,-18.17,313.676147,1,1,0,1,0,,,,,,,,
562106,97540.156250,281.57,-7.910442,1.034295,0.287304,0.711966,0.035119,0.087266,286.39,3.98,338.50,109.27,-18.12,311.809143,1,1,0,1,0,,,,,,,,
562116,97521.453125,281.57,-8.097189,1.570596,-0.746990,0.752407,0.015963,0.075559,286.35,3.97,339.42,108.91,-18.10,313.374114,1,1,0,1,0,,,,,,,,
562126,97517.843750,281.56,-7.915230,1.139639,-1.192312,0.737508,0.060660,0.063853,286.49,3.98,340.17,108.42,-18.06,313.676147,1,1,0,1,0,,,,,,,,
562136,97502.765625,281.57,-8.097189,0.909796,-1.450886,0.733251,0.005321,0.034055,286.35,3.97,341.05,108.04,-18.05,314.938018,1,1,0,1,0,,,,,,,,
562146,97484.062500,281.57,-8.039729,1.948880,-1.714248,0.777948,-0.008513,0.012770,286.39,3.97,342.10,107.83,-18.03,316.503479,1,1,0,1,0,,,,,,,,
562156,97484.062500,281.57,-8.082824,1.297657,-0.986411,0.788590,-0.013834,-0.006385,286.54,3.97,342.89,107.37,-18.01,316.503479,1,1,0,1,0,,,,,,,,
562166,97461.750000,281.56,-7.910442,0.847547,-0.895431,0.765177,-0.057468,-0.009578,286.69,3.97,343.94,107.17,-17.98,318.371368,1,1,0,1,0,,,,,,,,
562176,97443.046875,281.56,-7.867346,1.244984,-1.786074,0.764113,-0.089394,-0.028734,286.54,3.97,345.11,107.09,-17.95,319.937347,1,1,0,1,0,,,,,,,,
562186,97465.359375,281.57,-8.034940,0.909796,-1.393425,0.765177,-0.102165,-0.035119,286.49,3.98,345.53,106.28,-17.94,318.069183,1,1,0,1,0,,,,,,,,
562196,97424.359375,281.56,-7.987056,0.450109,-0.526724,0.752407,-0.091523,-0.027669,286.54,3.97,346.70,106.20,-17.93,321.502288,1,1,0,1,0,,,,,,,,
562206,97409.281250,281.57,-8.039729,0.775721,-0.794874,0.757728,-0.080881,-0.021284,286.20,3.97,347.89,106.15,-17.92,322.765136,1,1,0,1,0,,,,,,,,
562216,97409.281250,281.57,-7.924807,1.221042,-0.837970,0.769434,-0.096844,-0.005321,286.54,3.99,348.78,105.81,-17.90,322.765136,1,1,0,1,0,,,,,,,,
562226,97390.578125,281.57,-7.896077,0.790086,-0.517147,0.750278,-0.107486,-0.003192,286.54,4.00,349.83,105.63,-17.88,324.331817,1,1,0,1,0,,,,,,,,
562236,97371.890625,281.57,-8.020575,0.794874,0.047884,0.730058,-0.073431,-0.008513,286.20,4.01,351.02,105.57,-17.88,325.897430,1,1,0,1,0,,,,,,,,
562246,97371.890625,281.57,-7.848193,1.446097,0.440533,0.728994,-0.051082,0.010642,286.49,4.01,351.90,105.23,-17.85,325.897430,1,1,0,1,0,,,,,,,,
562256,97334.484375,281.57,-7.714117,0.435744,-0.742202,0.715159,-0.039376,0.021284,286.30,4.01,353.35,105.44,-17.82,329.032012,1,1,0,1,0,,,,,,,,
562266,97349.578125,281.56,-7.661445,0.665588,-0.205901,0.693874,0.001064,0.039376,286.49,4.01,354.12,104.99,-17.79,327.767059,1,1,0,1,0,,,,,,,,
562276,97330.875000,281.56,-7.762001,0.588973,0.316034,0.668333,0.042569,0.036183,286.49,4.01,355.09,104.73,-17.77,329.334533,1,1,0,1,0,,,,,,,,
562286,97312.187500,281.56,-7.608772,0.986411,-1.446097,0.665140,0.086202,0.050018,286.35,4.01,356.20,104.62,-17.73,330.900909,1,1,0,1,0,,,,,,,,
562296,97293.484375,281.56,-7.680598,1.230619,0.344765,0.684296,0.060660,0.042569,286.49,4.01,357.42,104.62,-17.71,332.468872,1,1,0,1,0,,,,,,,,
562306,97293.484375,281.56,-7.699752,0.383072,-1.192312,0.691746,0.039376,0.048954,286.49,4.01,358.35,104.33,-17.69,332.468872,1,1,0,1,0,,,,,,,,
562316,97274.796875,281.56,-7.527369,1.302445,-0.948103,0.687489,0.065981,0.046825,286.39,4.01,359.43,104.19,-17.66,334.035736,1,1,0,1,0,,,,,,,,
562326,97256.093750,281.56,-7.450755,0.799663,-0.751779,0.702388,0.084073,0.065981,286.59,4.01,360.63,104.17,-17.62,335.604156,1,1,0,1,0,,,,,,,,
562336,97256.093750,281.56,-7.541735,1.331176,-1.312022,0.700260,0.084073,0.055339,286.54,4.01,361.53,103.86,-17.59,335.604156,1,1,0,1,0,,,,,,,,
562346,97237.406250,281.56,-7.398083,0.545877,-0.263362,0.725801,0.093651,0.065981,286.49,4.01,362.59,103.71,-17.55,337.171539,1,1,0,1,0,,,,,,,,
562356,97222.312500,281.57,-7.522581,1.302445,-0.828393,0.734315,0.044697,0.047890,286.30,4.01,363.70,103.62,-17.53,338.437652,1,1,0,1,0,,,,,,,,
562366,97218.703125,281.56,-7.613561,0.397437,-1.877054,0.721544,0.038312,0.055339,286.54,4.01,364.62,103.32,-17.52,338.740447,1,1,0,1,0,,,,,,,,
562376,97203.609375,281.57,-7.479485,1.053448,-0.895431,0.749214,0.027669,0.045761,286.39,4.01,365.61,103.11,-17.50,340.006774,1,1,0,1,0,,,,,,,,
562386,97203.609375,281.57,-7.642291,1.249773,-1.177947,0.759856,-0.025541,0.037247,286.69,4.01,366.36,102.66,-17.49,340.006774,1,1,0,1,0,,,,,,,,
562396,97200.015625,281.56,-7.402871,0.387860,-1.891419,0.748150,-0.022348,0.031926,286.20,4.01,366.99,102.11,-17.46,340.308319,1,1,0,1,0,,,,,,,,
562406,97181.312500,281.56,-7.407660,0.809240,-1.034295,0.769434,-0.041504,0.039376,286.30,4.02,367.86,101.78,-17.44,341.877716,1,1,0,1,0,,,,,,,,
562416,97181.312500,281.56,-7.364564,1.493981,-1.019929,0.799233,-0.085138,0.025541,286.39,4.00,368.50,101.25,-17.41,341.877716,1,1,0,1,0,,,,,,,,
562426,97143.921875,281.56,-6.976703,0.866701,-2.221819,0.786462,-0.119193,0.020220,286.30,3.99,369.76,101.32,-17.35,345.015960,1,1,0,1,0,,,,,,,,
562436,97143.921875,281.56,-7.508216,0.565031,-0.852335,0.802425,-0.092587,0.028734,286.49,3.98,370.71,101.09,-17.35,345.015960,1,1,0,1,0,,,,,,,,
562446,97143.921875,281.56,-7.321468,1.479616,0.201112,0.793911,-0.089394,0.015963,286.30,3.98,371.42,100.63,-17.32,345.015960,1,1,0,1,0,,,,,,,,
562456,97125.218750,281.56,-7.216123,0.790086,-1.048660,0.780077,-0.133028,0.014899,286.30,3.98,372.34,100.37,-17.30,346.586120,1,1,0,1,0,,,,,,,,
562466,97106.531250,281.56,-7.412448,0.785298,-0.325611,0.787526,-0.117064,0.008513,286.54,3.98,373.42,100.28,-17.29,348.155181,1,1,0,1,0,,,,,,,,
562476,97087.828125,281.56,-7.220911,0.972045,0.493205,0.784333,-0.090459,0.000000,286.49,3.97,374.62,100.30,-17.26,349.725830,1,1,0,1,0,,,,,,,,
562486,97087.828125,281.56,-7.177816,0.555454,-0.507570,0.770499,-0.097908,-0.002128,286.20,3.98,375.53,100.03,-17.24,349.725830,1,1,0,1,0,,,,,,,,
562496,97050.437500,281.56,-7.196969,0.708683,-0.028730,0.789655,-0.053211,-0.004256,286.39,3.98,376.98,100.31,-17.22,352.866516,1,1,0,1,0,,,,,,,,
562506,97050.437500,281.56,-7.278373,0.766144,0.780509,0.759856,-0.034055,0.007449,286.39,3.98,378.08,100.23,-17.20,352.866516,1,1,0,1,0,,,,,,,,
562516,97050.437500,281.56,-7.058106,0.383072,-0.119710,0.759856,-0.020220,0.021284,286.39,3.98,378.90,99.89,-17.17,352.866516,1,1,0,1,0,,,,,,,,
562526,97031.750000,281.56,-7.230488,0.014365,-0.699106,0.723673,0.007449,0.037247,286.49,3.97,379.91,99.72,-17.16,354.436553,1,1,0,1,0,,,,,,,,
562536,97009.437500,281.54,-7.086836,0.603338,0.028730,0.757728,0.040440,0.053211,286.15,3.98,381.13,99.77,-17.13,356.311492,1,1,0,1,0,,,,,,,,
562546,97013.046875,281.56,-7.034164,0.804451,-0.478840,0.775820,0.045761,0.064917,286.54,3.98,381.98,99.45,-17.10,356.008178,1,1,0,1,0,,,,,,,,
562556,96994.359375,281.56,-6.971915,0.181959,-1.005564,0.804554,0.022348,0.060660,286.54,3.97,383.00,99.31,-17.07,357.578735,1,1,0,1,0,,,,,,,,
562566,96994.359375,281.56,-6.856993,-0.095768,-1.939303,0.790719,0.032990,0.077688,286.39,3.97,383.76,98.92,-17.03,357.578735,1,1,0,1,0,,,,,,,,
562576,96975.656250,281.56,-7.077260,1.450886,-0.090979,0.781141,0.074495,0.091523,286.39,3.97,384.73,98.73,-17.02,359.150817,1,1,0,1,0,,,,,,,,
562586,96975.656250,281.56,-6.770802,0.646434,-0.172382,0.782205,0.059596,0.091523,286.54,3.97,385.45,98.31,-16.97,359.150817,1,1,0,1,0,,,,,,,,
562596,96956.968750,281.56,-7.058106,1.091755,-1.010353,0.813068,0.059596,0.113872,286.30,3.97,386.38,98.09,-16.96,360.721862,1,1,0,1,0,,,,,,,,
562606,96938.265625,281.56,-6.780379,0.603338,-1.321599,0.797104,0.043633,0.125578,286.30,3.97,387.47,98.03,-16.93,362.294464,1,1,0,1,0,,,,,,,,
562616,96956.968750,281.56,-6.991068,1.058237,-0.440533,0.801361,0.058532,0.111743,286.54,3.99,387.89,97.32,-16.91,360.721862,1,1,0,1,0,,,,,,,,
562626,96919.578125,281.56,-6.703764,1.005564,-1.302445,0.796040,0.019156,0.101101,286.39,4.00,388.99,97.28,-16.87,363.865997,1,1,0,1,0,,,,,,,,
562636,96919.578125,281.56,-6.895300,1.517923,-1.623268,0.809875,0.018091,0.075559,286.54,4.00,389.81,96.97,-16.86,363.865997,1,1,0,1,0,,,,,,,,
562646,96900.875000,281.56,-6.651092,1.953668,-1.426944,0.824774,0.018091,0.051082,286.49,4.00,390.82,96.84,-16.82,365.439086,1,1,0,1,0,,,,,,,,
562656,96882.187500,281.56,-6.651092,1.264138,-0.924161,0.818389,0.015963,0.044697,286.30,4.01,391.97,96.85,-16.78,367.011077,1,1,0,1,0,,,,,,,,
562666,96882.187500,281.56,-6.933608,1.498770,-0.852335,0.863086,0.005321,0.005321,286.54,4.01,392.83,96.58,-16.78,367.011077,1,1,0,1,0,,,,,,,,
562676,96882.187500,281.56,-6.536170,1.766920,-0.742202,0.854572,-0.023412,-0.029798,286.30,4.01,393.48,96.10,-16.74,367.011077,1,1,0,1,0,,,,,,,,
562686,96863.484375,281.56,-6.962338,0.569819,-1.321599,0.860958,-0.053211,-0.051082,286.54,4.01,394.35,95.85,-16.74,368.584655,1,1,0,1,0,,,,,,,,
562696,96826.093750,281.56,-6.718129,0.584185,-0.181959,0.850315,-0.070238,-0.050018,286.39,4.01,395.79,96.15,-16.72,371.731262,1,1,0,1,0,,,,,,,,
562706,96844.796875,281.56,-6.694187,1.096544,-0.330399,0.816260,-0.059596,-0.071303,286.39,4.01,396.48,95.72,-16.70,370.157165,1,1,0,1,0,,,,,,,,
562716,96807.390625,281.56,-6.675034,-0.023942,-0.866701,0.826902,-0.058532,-0.043633,286.49,4.01,397.77,95.89,-16.68,373.305572,1,1,0,1,0,,,,,,,,
562726,96826.093750,281.56,-6.679822,0.569819,-0.842759,0.816260,-0.009578,-0.036183,286.30,4.01,398.36,95.36,-16.66,371.731262,1,1,0,1,0,,,,,,,,
562736,96803.796875,281.54,-6.550535,1.254561,-0.028730,0.807746,0.021284,-0.019156,286.39,4.01,399.26,95.15,-16.63,373.608093,1,1,0,1,0,,,,,,,,
562746,96807.390625,281.56,-6.598419,0.019153,-0.392649,0.818389,0.024477,-0.010642,286.49,4.01,399.86,94.64,-16.61,373.305572,1,1,0,1,0,,,,,,,,
562756,96770.000000,281.56,-6.607996,0.196324,0.081402,0.824774,0.014899,0.008513,286.35,4.01,401.09,94.76,-16.59,376.453613,1,1,0,1,0,,,,,,,,
562766,96770.000000,281.56,-6.698976,0.814028,-0.392649,0.822646,-0.010642,0.017027,286.54,4.01,402.02,94.57,-16.58,376.453613,1,1,0,1,0,,,,,,,,
562776,96770.000000,281.56,-6.517016,-0.086191,-0.608127,0.830095,0.003192,0.036183,286.39,4.02,402.71,94.16,-16.55,376.453613,1,1,0,1,0,,,,,,,,
562786,96751.312500,281.56,-6.574477,0.502782,-0.057460,0.815196,0.004256,0.061725,286.30,4.01,403.62,93.97,-16.54,378.027374,1,1,0,1,0,,,,,,,,
562796,96732.609375,281.56,-6.507440,0.363918,-0.842759,0.803490,-0.006385,0.079816,286.30,4.02,404.70,93.94,-16.52,379.602661,1,1,0,1,0,,,,,,,,
562806,96729.015625,281.54,-6.507440,0.402225,-0.914585,0.801361,0.008513,0.078752,286.54,4.01,405.58,93.72,-16.50,379.905364,1,1,0,1,0,,,,,,,,
562816,96710.328125,281.54,-6.435614,1.278503,-1.034295,0.799233,-0.014899,0.081945,286.54,4.00,406.63,93.67,-16.47,381.479644,1,1,0,1,0,,,,,,,,
562826,96695.218750,281.56,-6.469132,0.459686,-0.732625,0.792847,-0.021284,0.064917,286.39,3.98,407.74,93.67,-16.45,382.752685,1,1,0,1,0,,,,,,,,
562836,96695.218750,281.56,-6.411672,0.521935,-0.837970,0.786462,-0.046825,0.065981,286.35,3.98,408.57,93.41,-16.43,382.752685,1,1,0,1,0,,,,,,,,
562846,96676.531250,281.56,-6.301538,1.268926,-1.106121,0.800297,-0.038312,0.068110,286.35,3.98,409.58,93.32,-16.40,384.327423,1,1,0,1,0,,,,,,,,
562856,96676.531250,281.56,-6.234500,0.167594,-0.411802,0.781141,-0.001064,0.064917,286.35,3.98,410.34,93.00,-16.36,384.327423,1,1,0,1,0,,,,,,,,
562866,96657.828125,281.56,-6.272808,1.158793,0.052672,0.760921,-0.001064,0.044697,286.20,3.98,411.31,92.87,-16.34,385.903686,1,1,0,1,0,,,,,,,,
562876,96654.234375,281.54,-6.354211,0.742202,-0.919373,0.780077,-0.050018,0.045761,286.54,3.97,412.10,92.58,-16.32,386.206604,1,1,0,1,0,,,,,,,,
562886,96639.140625,281.56,-6.373364,0.584185,-1.101332,0.779012,-0.012770,0.040440,286.59,3.98,413.02,92.40,-16.31,387.478912,1,1,0,1,0,,,,,,,,
562896,96620.437500,281.56,-6.244078,1.115697,0.162805,0.768370,0.003192,0.041504,286.39,3.97,414.09,92.39,-16.28,389.055694,1,1,0,1,0,,,,,,,,
562906,96601.750000,281.56,-6.335057,1.168370,-0.153228,0.777948,-0.020220,0.039376,286.49,3.98,415.29,92.50,-16.27,390.631408,1,1,0,1,0,,,,,,,,
562916,96598.156250,281.54,-6.086060,0.517147,-1.359906,0.734315,-0.006385,0.015963,286.30,3.98,416.27,92.39,-16.23,390.934448,1,1,0,1,0,,,,,,,,
562926,96598.156250,281.54,-6.258443,0.948103,-0.967257,0.747086,0.009578,0.013834,286.30,3.98,417.01,92.05,-16.22,390.934448,1,1,0,1,0,,,,,,,,
562936,96579.453125,281.54,-6.177040,1.067813,-0.699106,0.744957,0.024477,0.009578,286.20,3.97,417.95,91.91,-16.19,392.511779,1,1,0,1,0,,,,,,,,
562946,96583.046875,281.56,-6.335057,0.330399,0.272938,0.721544,0.013834,0.005321,286.49,3.97,418.58,91.47,-16.19,392.208679,1,1,0,1,0,,,,,,,,
562956,96560.765625,281.54,-6.277596,0.617704,-1.197100,0.733251,-0.029798,0.017027,286.49,3.97,419.52,91.33,-16.18,394.088043,1,1,0,1,0,,,,,,,,
562966,96545.656250,281.56,-6.291962,0.837970,-0.258573,0.738572,0.039376,0.013834,286.35,3.97,420.54,91.27,-16.17,395.362670,1,1,0,1,0,,,,,,,,
562976,96523.375000,281.54,-6.186616,0.541089,0.215478,0.721544,0.037247,0.010642,286.54,3.98,421.77,91.43,-16.15,397.242614,1,1,0,1,0,,,,,,,,
562986,96542.062500,281.54,-6.143521,0.703895,-0.598550,0.728994,0.015963,0.010642,286.69,3.97,422.31,90.90,-16.13,395.665863,1,1,0,1,0,,,,,,,,
562996,96523.375000,281.54,-5.913678,0.842759,-1.594538,0.748150,-0.001064,0.009578,286.54,3.96,423.10,90.63,-16.09,397.242614,1,1,0,1,0,,,,,,,,
563006,96508.265625,281.56,-6.066906,0.651222,-1.206677,0.726865,0.002128,0.001064,286.49,3.97,424.01,90.47,-16.07,398.517639,1,1,0,1,0,,,,,,,,
563016,96508.265625,281.56,-5.918466,0.560243,-0.909796,0.741764,0.005321,0.009578,286.54,3.99,424.69,90.10,-16.04,398.517639,1,1,0,1,0,,,,,,,,
563026,96467.281250,281.54,-6.215347,0.713472,-0.512359,0.758792,0.003192,0.005321,286.30,4.00,426.06,90.40,-16.04,401.976959,1,1,0,1,0,,,,,,,,
563036,96467.281250,281.54,-5.846640,0.651222,-0.430956,0.756664,-0.007449,0.013834,286.35,4.00,427.09,90.36,-16.00,401.976959,1,1,0,1,0,,,,,,,,
563046,96467.281250,281.54,-6.023811,0.565031,-0.421379,0.760921,-0.027669,0.013834,286.39,4.01,427.87,90.08,-15.98,401.976959,1,1,0,1,0,,,,,,,,
563056,96467.281250,281.54,-5.774814,0.684741,-0.842759,0.765177,-0.004256,0.012770,286.54,4.01,428.44,89.61,-15.94,401.976959,1,1,0,1,0,,,,,,,,
563066,96448.593750,281.54,-5.908889,0.306457,-0.119710,0.764113,0.020220,0.027669,286.54,4.00,429.27,89.38,-15.92,403.554718,1,1,0,1,0,,,,,,,,
563076,96433.484375,281.56,-5.923254,0.248996,-0.675164,0.754535,0.004256,0.038312,286.35,4.01,430.20,89.27,-15.90,404.830535,1,1,0,1,0,,,,,,,,
563086,96411.203125,281.54,-5.966350,0.598550,-0.699106,0.758792,-0.019156,0.046825,286.39,4.01,431.37,89.38,-15.89,406.712249,1,1,0,1,0,,,,,,,,
563096,96411.203125,281.54,-6.009446,0.105344,-0.703895,0.755599,0.024477,0.048954,286.39,4.01,432.25,89.21,-15.88,406.712249,1,1,0,1,0,,,,,,,,
563106,96411.203125,281.54,-5.645527,0.483628,-0.167594,0.772627,0.002128,0.060660,286.30,4.01,432.91,88.83,-15.84,406.712249,1,1,0,1,0,,,,,,,,
563116,96411.203125,281.54,-5.884947,0.311246,-0.718260,0.760921,-0.008513,0.063853,286.30,4.01,433.41,88.29,-15.82,406.712249,1,1,0,1,0,,,,,,,,
563126,96392.500000,281.54,-5.568912,0.426167,-1.244984,0.758792,-0.004256,0.073431,286.30,4.01,434.16,88.01,-15.78,408.292053,1,1,0,1,0,,,,,,,,
563136,96373.812500,281.54,-5.726930,0.885854,0.383072,0.760921,0.014899,0.069174,286.49,4.01,435.13,87.94,-15.76,409.870788,1,1,0,1,0,,,,,,,,
563146,96355.125000,281.54,-5.884947,0.536301,-1.029506,0.761985,-0.003192,0.069174,286.49,4.01,436.24,88.01,-15.75,411.449737,1,1,0,1,0,,,,,,,,
563156,96355.125000,281.54,-5.683834,0.368707,-0.938527,0.770499,0.022348,0.074495,286.54,4.01,437.08,87.81,-15.73,411.449737,1,1,0,1,0,,,,,,,,
563166,96336.421875,281.54,-5.674257,1.120486,0.158017,0.760921,0.000000,0.072367,286.30,4.01,438.10,87.80,-15.70,413.030303,1,1,0,1,0,,,,,,,,
563176,96336.421875,281.54,-5.741295,0.632069,-1.230619,0.773691,-0.013834,0.072367,286.35,4.01,438.86,87.53,-15.69,413.030303,1,1,0,1,0,,,,,,,,
563186,96317.734375,281.54,-5.659892,0.957680,-0.948103,0.782205,-0.028734,0.061725,286.35,4.01,439.83,87.47,-15.67,414.609771,1,1,0,1,0,,,,,,,,
563196,96317.734375,281.54,-5.626373,1.144428,-0.488417,0.781141,-0.051082,0.054275,286.30,4.01,440.56,87.17,-15.64,414.609771,1,1,0,1,0,,,,,,,,
563206,96280.343750,281.54,-5.635950,0.732625,-1.738190,0.776884,-0.065981,0.041504,286.54,4.01,441.89,87.46,-15.63,417.770782,1,1,0,1,0,,,,,,,,
563216,96280.343750,281.54,-5.640738,1.077390,-0.306457,0.791783,-0.036183,0.038312,286.35,4.00,442.89,87.43,-15.61,417.770782,1,1,0,1,0,,,,,,,,
563226,96280.343750,281.54,-5.635950,0.742202,0.359130,0.790719,-0.031926,0.037247,286.30,3.98,443.64,87.16,-15.59,417.770782,1,1,0,1,0,,,,,,,,
563236,96280.343750,281.54,-5.635950,0.790086,-0.186747,0.781141,-0.018091,0.031926,286.54,3.98,444.20,86.70,-15.58,417.770782,1,1,0,1,0,,,,,,,,
563246,96261.640625,281.54,-5.669469,0.914585,-0.770932,0.787526,-0.036183,0.030862,286.49,3.98,445.02,86.49,-15.57,419.352325,1,1,0,1,0,,,,,,,,
563256,96242.953125,281.54,-5.406107,0.588973,-0.560243,0.782205,-0.018091,0.022348,286.30,3.98,446.02,86.48,-15.53,420.932769,1,1,0,1,0,,,,,,,,
563266,96258.078125,281.52,-5.516240,0.837970,-0.837970,0.787526,-0.007449,0.018091,286.39,3.98,446.45,85.90,-15.51,419.653594,1,1,0,1,0,,,,,,,,
563276,96242.953125,281.54,-5.497087,0.905008,-0.775721,0.798168,0.004256,0.008513,286.54,3.98,447.09,85.54,-15.49,420.932769,1,1,0,1,0,,,,,,,,
563286,96205.562500,281.54,-5.626373,0.981622,0.311246,0.791783,0.001064,0.008513,286.30,3.97,448.36,85.78,-15.48,424.095794,1,1,0,1,0,,,,,,,,
563296,96201.984375,281.52,-5.669469,0.397437,-0.493205,0.786462,-0.001064,0.009578,286.69,3.98,449.39,85.79,-15.48,424.398529,1,1,0,1,0,,,,,,,,
563306,96205.562500,281.54,-5.645527,0.617704,-0.708683,0.792847,0.005321,0.011706,286.39,3.98,450.08,85.48,-15.48,424.095794,1,1,0,1,0,,,,,,,,
563316,96205.562500,281.54,-5.525817,0.708683,-0.565031,0.790719,-0.007449,0.021284,286.39,3.97,450.60,85.01,-15.46,424.095794,1,1,0,1,0,,,,,,,,
563326,96168.171875,281.54,-5.324704,0.775721,-0.354341,0.776884,-0.013834,0.013834,286.30,3.98,451.78,85.17,-15.43,427.259765,1,1,0,1,0,,,,,,,,
563336,96168.171875,281.54,-5.453991,0.550666,-0.205901,0.782205,-0.005321,0.018091,286.39,3.98,452.66,85.05,-15.42,427.259765,1,1,0,1,0,,,,,,,,
563346,96149.468750,281.54,-5.396530,0.215478,-0.746990,0.780077,0.005321,0.018091,286.35,3.98,453.72,85.10,-15.40,428.842803,1,1,0,1,0,,,,,,,,
563356,96149.468750,281.54,-5.281609,1.398213,-0.627280,0.773691,-0.007449,0.013834,286.20,3.97,454.51,84.89,-15.37,428.842803,1,1,0,1,0,,,,,,,,
563366,96149.468750,281.54,-5.310339,0.545877,-0.684741,0.766242,-0.006385,0.009578,286.20,3.98,455.11,84.50,-15.34,428.842803,1,1,0,1,0,,,,,,,,
563376,96130.781250,281.54,-5.353435,0.162805,-0.833182,0.788590,-0.005321,0.013834,286.20,3.96,455.95,84.34,-15.32,430.424774,1,1,0,1,0,,,,,,,,
563386,96112.078125,281.54,-5.343858,0.708683,-0.052672,0.786462,0.009578,0.003192,286.49,3.97,456.97,84.36,-15.31,432.008300,1,1,0,1,0,,,,,,,,
563396,96112.078125,281.54,-5.276820,0.325611,-0.248996,0.774755,0.004256,0.004256,286.54,3.97,457.74,84.14,-15.29,432.008300,1,1,0,1,0,,,,,,,,
563406,96089.828125,281.52,-5.262455,0.454898,-0.316034,0.783269,0.010642,0.013834,286.49,3.98,458.78,84.18,-15.27,433.892456,1,1,0,1,0,,,,,,,,
563416,96093.390625,281.54,-5.559336,0.588973,-0.081402,0.760921,0.000000,0.018091,286.49,3.99,459.49,83.90,-15.27,433.590759,1,1,0,1,0,,,,,,,,
563426,96093.390625,281.54,-5.348646,0.445321,-1.010353,0.758792,-0.002128,0.034055,286.39,4.00,460.02,83.45,-15.26,433.590759,1,1,0,1,0,,,,,,,,
563436,96074.687500,281.54,-5.248090,0.387860,-0.780509,0.749214,0.003192,0.030862,286.35,4.00,460.81,83.26,-15.24,435.174804,1,1,0,1,0,,,,,,,,
563446,96052.437500,281.52,-5.372588,0.383072,-0.545877,0.750278,0.003192,0.040440,286.39,4.01,461.87,83.33,-15.24,437.059539,1,1,0,1,0,,,,,,,,
563456,96052.437500,281.52,-5.257667,0.450109,-0.114921,0.735379,-0.010642,0.044697,286.49,4.00,462.67,83.14,-15.22,437.059539,1,1,0,1,0,,,,,,,,
563466,96056.000000,281.54,-5.286397,0.373495,-0.881066,0.739636,-0.025541,0.040440,286.39,4.01,463.19,82.69,-15.20,436.757751,1,1,0,1,0,,,,,,,,
563476,96037.296875,281.54,-5.233724,0.512359,-0.579396,0.726865,-0.037247,0.053211,286.30,4.01,463.97,82.50,-15.19,438.342285,1,1,0,1,0,,,,,,,,
563486,96037.296875,281.54,-5.070919,0.373495,-1.503558,0.737508,-0.028734,0.046825,286.54,4.01,464.56,82.12,-15.16,438.342285,1,1,0,1,0,,,,,,,,
563496,95996.359375,281.52,-4.932055,1.120486,0.057460,0.741764,-0.018091,0.051082,286.54,4.01,465.86,82.44,-15.12,441.811370,1,1,0,1,0,,,,,,,,
563506,96018.609375,281.54,-4.908113,0.526724,-1.015141,0.751343,-0.042569,0.040440,286.59,4.01,466.37,81.99,-15.08,439.925720,1,1,0,1,0,,,,,,,,
563516,95999.906250,281.54,-5.219359,0.239420,-0.584185,0.764113,-0.021284,0.040440,286.15,4.01,467.15,81.79,-15.07,441.510772,1,1,0,1,0,,,,,,,,
563526,95999.906250,281.54,-5.176263,1.063025,0.148440,0.765177,-0.032990,0.040440,286.35,4.01,467.73,81.41,-15.06,441.510772,1,1,0,1,0,,,,,,,,
563536,95981.218750,281.54,-5.128379,0.387860,-0.751779,0.756664,-0.027669,0.041504,286.49,4.01,468.55,81.28,-15.05,443.094726,1,1,0,1,0,,,,,,,,
563546,95958.968750,281.52,-4.865017,0.885854,-0.588973,0.756664,-0.010642,0.027669,286.39,4.01,469.64,81.40,-15.02,444.980957,1,1,0,1,0,,,,,,,,
563556,95943.828125,281.54,-5.142745,0.603338,-0.095768,0.765177,0.012770,0.035119,286.84,4.01,470.78,81.57,-15.01,446.264709,1,1,0,1,0,,,,,,,,
563566,95940.265625,281.52,-5.042188,0.205901,0.081402,0.777948,-0.005321,0.027669,286.69,4.01,471.72,81.53,-14.99,446.566772,1,1,0,1,0,,,,,,,,
563576,95943.828125,281.54,-4.970362,0.555454,-0.196324,0.786462,-0.001064,0.025541,286.54,4.01,472.34,81.20,-14.97,446.264709,1,1,0,1,0,,,,,,,,
563586,95902.875000,281.52,-5.123591,0.205901,0.512359,0.775820,0.028734,0.035119,286.20,4.01,473.67,81.55,-14.97,449.737854,1,1,0,1,0,,,,,,,,
563596,95921.578125,281.52,-4.908113,0.134075,-0.622492,0.770499,0.038312,0.053211,286.54,4.01,474.28,81.20,-14.94,448.151550,1,1,0,1,0,,,,,,,,
563606,95884.187500,281.52,-5.037400,0.723048,-0.148440,0.750278,0.062789,0.062789,286.54,4.01,475.52,81.47,-14.94,451.323120,1,1,0,1,0,,,,,,,,
563616,95887.734375,281.54,-4.855441,-0.009576,-1.470039,0.743893,0.054275,0.079816,286.39,4.00,476.38,81.37,-14.91,451.022216,1,1,0,1,0,,,,,,,,
563626,95884.187500,281.52,-4.793191,0.933738,-1.264138,0.746021,0.015963,0.075559,286.20,3.98,477.10,81.14,-14.88,451.323120,1,1,0,1,0,,,,,,,,
563636,95887.734375,281.54,-4.865017,0.430956,-1.733402,0.776884,0.004256,0.075559,286.49,3.98,477.57,80.65,-14.86,451.022216,1,1,0,1,0,,,,,,,,
563646,95865.500000,281.52,-5.013458,0.684741,-0.665588,0.771563,0.027669,0.070238,286.35,3.98,478.38,80.51,-14.85,452.908630,1,1,0,1,0,,,,,,,,
563656,95869.046875,281.54,-4.836287,-0.019153,0.071826,0.799233,-0.014899,0.084073,286.49,3.98,478.92,80.11,-14.83,452.607666,1,1,0,1,0,,,,,,,,
563666,95846.796875,281.52,-5.056553,0.550666,-1.225831,0.801361,-0.025541,0.094716,286.54,3.98,479.79,80.03,-14.84,454.495697,1,1,0,1,0,,,,,,,,
563676,95850.343750,281.54,-4.678269,0.823605,-0.474051,0.806682,-0.019156,0.090459,286.54,3.98,480.37,79.66,-14.80,454.194702,1,1,0,1,0,,,,,,,,
563686,95850.343750,281.54,-4.817133,0.713472,-1.024718,0.804554,-0.021284,0.089394,286.39,3.97,480.80,79.16,-14.78,454.194702,1,1,0,1,0,,,,,,,,
563696,95831.656250,281.54,-4.850652,0.411802,-0.435744,0.826902,-0.028734,0.087266,286.54,3.98,481.51,78.94,-14.77,455.780670,1,1,0,1,0,,,,,,,,
563706,95809.406250,281.52,-4.898536,0.857124,-0.426167,0.825838,-0.040440,0.084073,286.30,3.98,482.52,79.01,-14.76,457.669281,1,1,0,1,0,,,,,,,,
563716,95790.718750,281.52,-4.721365,0.474051,-0.469263,0.819453,-0.014899,0.077688,286.39,3.97,483.67,79.21,-14.74,459.255798,1,1,0,1,0,,,,,,,,
563726,95809.406250,281.52,-4.841075,0.464475,-0.890643,0.832224,0.002128,0.063853,286.35,3.97,484.14,78.75,-14.73,457.669281,1,1,0,1,0,,,,,,,,
563736,95794.265625,281.54,-4.845864,0.727837,0.153228,0.792847,0.014899,0.054275,286.30,3.97,484.81,78.49,-14.72,458.954650,1,1,0,1,0,,,,,,,,
563746,95772.015625,281.52,-4.716577,0.225054,-1.259350,0.777948,-0.025541,0.051082,286.30,3.97,485.78,78.53,-14.70,460.843872,1,1,0,1,0,,,,,,,,
563756,95772.015625,281.52,-4.702211,0.627280,-1.024718,0.775820,0.005321,0.050018,286.49,3.97,486.51,78.33,-14.68,460.843872,1,1,0,1,0,,,,,,,,
563766,95756.875000,281.54,-4.754884,1.206677,0.014365,0.763049,-0.022348,0.046825,286.30,3.97,487.38,78.27,-14.67,462.129638,1,1,0,1,0,,,,,,,,
563776,95734.625000,281.52,-4.673481,0.349553,-1.661575,0.761985,-0.061725,0.044697,286.30,3.97,488.50,78.45,-14.66,464.019470,1,1,0,1,0,,,,,,,,
563786,95738.187500,281.54,-4.673481,0.804451,-0.881066,0.721544,-0.054275,0.031926,286.49,3.97,489.27,78.29,-14.64,463.716857,1,1,0,1,0,,,,,,,,
563796,95734.625000,281.52,-4.874594,0.316034,-0.359130,0.726865,-0.071303,0.043633,286.49,3.97,489.92,78.02,-14.64,464.019470,1,1,0,1,0,,,,,,,,
563806,95734.625000,281.52,-4.668693,0.229843,-1.450886,0.737508,-0.077688,0.040440,286.49,3.96,490.40,77.59,-14.62,464.019470,1,1,0,1,0,,,,,,,,
563816,95719.484375,281.54,-4.630385,1.101332,-0.158017,0.753471,-0.077688,0.035119,286.39,3.99,491.09,77.35,-14.61,465.305633,1,1,0,1,0,,,,,,,,
563826,95719.484375,281.54,-4.429273,0.148440,-0.612915,0.744957,-0.102165,0.044697,286.54,4.00,491.60,76.95,-14.57,465.305633,1,1,0,1,0,,,,,,,,
563836,95697.250000,281.52,-4.558559,-0.028730,-0.967257,0.753471,-0.111743,0.048954,286.49,4.01,492.45,76.89,-14.55,467.194732,1,1,0,1,0,,,,,,,,
563846,95678.546875,281.52,-4.592078,0.459686,0.148440,0.759856,-0.091523,0.063853,286.59,4.01,493.48,77.00,-14.54,468.784057,1,1,0,1,0,,,,,,,,
563856,95659.859375,281.52,-4.390965,0.239420,-0.885854,0.752407,-0.088330,0.065981,286.39,4.01,494.66,77.25,-14.50,470.372314,1,1,0,1,0,,,,,,,,
563866,95659.859375,281.52,-4.639962,0.248996,-0.407014,0.751343,-0.098972,0.083009,286.39,4.01,495.54,77.22,-14.50,470.372314,1,1,0,1,0,,,,,,,,
563876,95659.859375,281.52,-4.458003,0.229843,-0.981622,0.735379,-0.084073,0.083009,286.54,4.01,496.20,76.97,-14.48,470.372314,1,1,0,1,0,,,,,,,,
563886,95659.859375,281.52,-4.548983,0.234631,0.043095,0.757728,-0.068110,0.090459,286.54,4.01,496.70,76.56,-14.46,470.372314,1,1,0,1,0,,,,,,,,
563896,95641.156250,281.52,-4.496310,0.239420,-0.756567,0.761985,-0.083009,0.095780,286.54,4.01,497.46,76.42,-14.45,471.962158,1,1,0,1,0,,,,,,,,
563906,95641.156250,281.52,-4.424484,0.028730,-0.746990,0.755599,-0.038312,0.118128,286.54,4.01,498.04,76.09,-14.43,471.962158,1,1,0,1,0,,,,,,,,
563916,95626.015625,281.54,-4.630385,-0.359130,-0.167594,0.763049,-0.057468,0.133028,286.30,4.01,498.78,75.93,-14.43,473.249359,1,1,0,1,0,,,,,,,,
563926,95603.765625,281.52,-4.352658,0.909796,-0.225054,0.744957,-0.065981,0.146863,286.54,4.01,499.82,76.06,-14.40,475.141265,1,1,0,1,0,,,,,,,,
563936,95603.765625,281.52,-4.668693,0.119710,-1.235408,0.701324,-0.091523,0.158569,286.49,4.01,500.59,75.93,-14.41,475.141265,1,1,0,1,0,,,,,,,,
563946,95585.078125,281.52,-4.529829,0.177170,0.430956,0.728994,-0.074495,0.154312,286.39,4.01,501.57,76.00,-14.40,476.730560,1,1,0,1,0,,,,,,,,
563956,95585.078125,281.52,-4.529829,1.039083,0.636857,0.684296,-0.057468,0.144734,286.35,4.01,502.31,75.83,-14.39,476.730560,1,1,0,1,0,,,,,,,,
563966,95566.390625,281.52,-4.472368,0.296881,-0.761356,0.654498,-0.025541,0.147927,286.35,4.02,503.25,75.87,-14.38,478.320068,1,1,0,1,0,,,,,,,,
563976,95566.390625,281.52,-4.299986,1.321599,1.632845,0.711966,0.035119,0.129835,286.30,4.01,503.96,75.68,-14.36,478.320068,1,1,0,1,0,,,,,,,,
563986,95547.687500,281.52,-4.381389,1.187524,-0.081402,0.722608,0.034055,0.108550,286.54,4.02,504.89,75.71,-14.34,479.911163,1,1,0,1,0,,,,,,,,
563996,95551.234375,281.54,-4.175487,0.861912,-0.239420,0.723673,0.085138,0.084073,286.39,4.01,505.51,75.44,-14.31,479.609405,1,1,0,1,0,,,,,,,,
564006,95532.531250,281.54,-4.548983,1.197100,0.718260,0.740700,0.088330,0.058532,286.30,4.01,506.38,75.40,-14.31,481.200714,1,1,0,1,0,,,,,,,,
564016,95529.000000,281.52,-4.185064,1.273715,-0.531512,0.751343,0.084073,0.030862,286.35,4.00,507.10,75.23,-14.28,481.501190,1,1,0,1,0,,,,,,,,
564026,95510.296875,281.52,-4.252102,1.355118,-0.512359,0.761985,0.117064,0.007449,286.30,3.99,508.03,75.27,-14.26,483.092803,1,1,0,1,0,,,,,,,,
564036,95510.296875,281.52,-4.156333,0.833182,-0.277727,0.763049,0.117064,-0.032990,286.35,3.98,508.74,75.08,-14.23,483.092803,1,1,0,1,0,,,,,,,,
564046,95510.296875,281.52,-4.122815,0.943315,-0.450109,0.776884,0.125578,-0.051082,286.30,3.98,509.27,74.72,-14.20,483.092803,1,1,0,1,0,,,,,,,,
564056,95491.609375,281.52,-4.180275,0.818816,-0.469263,0.789655,0.107486,-0.065981,286.54,3.98,510.06,74.63,-14.18,484.683319,1,1,0,1,0,,,,,,,,
564066,95472.906250,281.52,-4.237736,0.900219,-0.684741,0.771563,0.112807,-0.085138,286.30,3.98,511.04,74.72,-14.17,486.275421,1,1,0,1,0,,,,,,,,
564076,95476.453125,281.54,-4.027047,0.521935,-0.972045,0.772627,0.098972,-0.087266,286.20,3.97,511.71,74.51,-14.13,485.973480,1,1,0,1,0,,,,,,,,
564086,95454.218750,281.52,-4.141968,0.560243,-0.502782,0.786462,0.098972,-0.100037,286.54,3.97,512.68,74.59,-14.12,487.866455,1,1,0,1,0,,,,,,,,
564096,95454.218750,281.52,-4.165910,0.531512,-0.890643,0.779012,0.073431,-0.101101,286.49,3.98,513.41,74.43,-14.10,487.866455,1,1,0,1,0,,,,,,,,
564106,95454.218750,281.52,-4.194641,0.177170,-1.216254,0.788590,0.038312,-0.090459,286.30,3.97,513.96,74.10,-14.09,487.866455,1,1,0,1,0,,,,,,,,
564116,95435.515625,281.52,-4.141968,0.665588,-0.699106,0.798168,0.056403,-0.085138,286.54,3.97,514.77,74.02,-14.08,489.459075,1,1,0,1,0,,,,,,,,
564126,95454.218750,281.52,-4.141968,0.493205,-1.034295,0.802425,0.015963,-0.078752,286.30,3.97,514.97,73.37,-14.06,487.866455,1,1,0,1,0,,,,,,,,
564136,95416.828125,281.52,-4.165910,0.100556,-0.837970,0.784333,-0.001064,-0.076624,286.20,3.97,515.92,73.43,-14.06,491.050628,1,1,0,1,0,,,,,,,,
564146,95416.828125,281.52,-4.098873,0.359130,-1.120486,0.801361,-0.005321,-0.073431,286.54,3.98,516.63,73.27,-14.04,491.050628,1,1,0,1,0,,,,,,,,
564156,95416.828125,281.52,-4.036623,0.076614,-0.373495,0.800297,-0.023412,-0.063853,286.30,3.97,517.16,72.93,-14.02,491.050628,1,1,0,1,0,,,,,,,,
564166,95398.140625,281.52,-4.218583,0.000000,-0.588973,0.787526,-0.063853,-0.050018,286.30,3.97,517.95,72.86,-14.02,492.642395,1,1,0,1,0,,,,,,,,
564176,95398.140625,281.52,-4.084507,0.062249,-0.560243,0.789655,-0.072367,-0.035119,286.30,3.97,518.54,72.59,-14.01,492.642395,1,1,0,1,0,,,,,,,,
564186,95379.437500,281.52,-3.964797,-0.067037,-0.646434,0.783269,-0.064917,-0.015963,286.49,3.97,519.39,72.56,-13.98,494.235778,1,1,0,1,0,,,,,,,,
564196,95379.437500,281.52,-4.046200,-0.421379,-0.234631,0.769434,-0.076624,0.004256,286.35,3.98,520.02,72.33,-13.97,494.235778,1,1,0,1,0,,,,,,,,
564206,95360.750000,281.52,-3.950432,0.000000,-0.670376,0.775820,-0.080881,0.029798,286.54,3.97,520.89,72.34,-13.95,495.828063,1,1,0,1,0,,,,,,,,
564216,95360.750000,281.52,-4.070142,-0.550666,-0.809240,0.772627,-0.091523,0.055339,286.39,4.00,521.54,72.13,-13.94,495.828063,1,1,0,1,0,,,,,,,,
564226,95342.046875,281.52,-3.916913,-0.028730,-0.387860,0.773691,-0.091523,0.073431,286.59,4.00,522.43,72.15,-13.92,497.421936,1,1,0,1,0,,,,,,,,
564236,95342.046875,281.52,-4.046200,0.167594,-0.158017,0.767306,-0.081945,0.105358,286.35,4.00,523.09,71.96,-13.92,497.421936,1,1,0,1,0,,,,,,,,
564246,95323.359375,281.52,-4.127603,-0.330399,-0.191536,0.759856,-0.075559,0.121321,286.20,4.00,523.99,71.99,-13.92,499.014739,1,1,0,1,0,,,,,,,,
564256,95323.359375,281.52,-3.869029,0.282515,-0.507570,0.766242,-0.069174,0.133028,286.15,4.01,524.66,71.81,-13.89,499.014739,1,1,0,1,0,,,,,,,,
564266,95304.656250,281.52,-4.161122,0.119710,-0.071826,0.756664,-0.045761,0.148991,286.39,4.01,525.56,71.85,-13.90,500.609130,1,1,0,1,0,,,,,,,,
564276,95285.968750,281.52,-4.070142,0.019153,-0.416591,0.754535,-0.037247,0.157505,286.39,4.01,526.63,72.05,-13.90,502.202453,1,1,0,1,0,,,,,,,,
564286,95285.968750,281.52,-3.916913,0.177170,-0.076614,0.766242,-0.012770,0.166019,286.35,4.01,527.44,72.00,-13.88,502.202453,1,1,0,1,0,,,,,,,,
564296,95304.656250,281.52,-3.806780,0.272938,-0.316034,0.771563,-0.019156,0.173468,286.39,4.01,527.65,71.37,-13.85,500.609130,1,1,0,1,0,,,,,,,,
564306,95285.968750,281.52,-3.955221,0.335188,-0.584185,0.770499,-0.006385,0.169211,286.15,4.01,528.20,71.07,-13.84,502.202453,1,1,0,1,0,,,,,,,,
564316,95267.281250,281.52,-3.931279,0.459686,-0.287304,0.767306,0.008513,0.166019,286.30,4.02,529.00,71.03,-13.83,503.795989,1,1,0,1,0,,,,,,,,
564326,95248.578125,281.52,-3.825934,-0.052672,-0.368707,0.773691,-0.004256,0.156441,286.59,4.01,530.01,71.18,-13.82,505.391143,1,1,0,1,0,,,,,,,,
564336,95248.578125,281.52,-3.888183,0.368707,-0.445321,0.787526,-0.024477,0.150055,286.35,4.01,530.76,71.08,-13.80,505.391143,1,1,0,1,0,,,,,,,,
564346,95248.578125,281.52,-3.715801,0.143652,0.416591,0.797104,0.002128,0.158569,286.30,4.01,531.33,70.81,-13.78,505.391143,1,1,0,1,0,,,,,,,,
564356,95211.187500,281.52,-4.027047,-0.588973,0.354341,0.794976,0.045761,0.178789,286.54,4.01,532.55,71.16,-13.78,508.580871,1,1,0,1,0,,,,,,,,
564366,95229.890625,281.52,-3.873818,0.306457,0.474051,0.789655,0.078752,0.195817,286.39,4.01,533.06,70.84,-13.77,506.985198,1,1,0,1,0,,,,,,,,
564376,95229.890625,281.52,-3.864241,0.196324,0.196324,0.784333,0.096844,0.201138,286.54,4.01,533.45,70.39,-13.76,506.985198,1,1,0,1,0,,,,,,,,
564386,95211.187500,281.52,-3.821145,0.033518,-0.440533,0.785398,0.097908,0.209652,286.39,4.01,534.14,70.24,-13.75,508.580871,1,1,0,1,0,,,,,,,,
564396,95211.187500,281.52,-3.778050,0.464475,-0.057460,0.784333,0.134092,0.203267,286.39,4.01,534.65,69.92,-13.73,508.580871,1,1,0,1,0,,,,,,,,
564406,95192.500000,281.52,-3.787626,0.397437,-0.550666,0.783269,0.128771,0.212845,286.49,4.01,535.43,69.86,-13.72,510.175445,1,1,0,1,0,,,,,,,,
564416,95196.031250,281.54,-3.816357,0.474051,-0.565031,0.786462,0.131963,0.203267,286.39,3.99,535.94,69.54,-13.71,509.874084,1,1,0,1,0,,,,,,,,
564426,95173.796875,281.52,-3.792415,0.847547,-0.766144,0.779012,0.114936,0.194753,286.59,3.99,536.79,69.56,-13.70,511.771606,1,1,0,1,0,,,,,,,,
564436,95173.796875,281.52,-3.711012,0.818816,-0.699106,0.791783,0.112807,0.172404,286.35,3.99,537.44,69.37,-13.68,511.771606,1,1,0,1,0,,,,,,,,
564446,95173.796875,281.52,-3.591302,0.933738,-0.981622,0.790719,0.093651,0.146863,286.30,3.98,537.92,69.03,-13.65,511.771606,1,1,0,1,0,,,,,,,,
564456,95155.109375,281.52,-3.596090,1.077390,-0.660799,0.798168,0.077688,0.111743,286.49,3.98,538.67,68.96,-13.63,513.366699,1,1,0,1,0,,,,,,,,
564466,95136.406250,281.52,-3.677493,1.331176,-0.948103,0.812003,0.059596,0.080881,286.20,3.97,539.63,69.09,-13.61,514.963317,1,1,0,1,0,,,,,,,,
564476,95136.406250,281.52,-3.758896,0.842759,-0.584185,0.824774,0.055339,0.047890,286.39,3.97,540.36,68.99,-13.61,514.963317,1,1,0,1,0,,,,,,,,
564486,95117.718750,281.52,-3.730166,0.761356,-0.967257,0.817324,0.017027,0.017027,286.35,3.98,541.30,69.10,-13.60,516.558898,1,1,0,1,0,,,,,,,,
564496,95117.718750,281.52,-3.557783,0.924161,-1.355118,0.837545,-0.010642,-0.001064,286.35,3.97,542.01,68.98,-13.58,516.558898,1,1,0,1,0,,,,,,,,
564506,95117.718750,281.52,-3.711012,0.809240,-1.144428,0.835416,-0.010642,-0.018091,286.54,3.97,542.54,68.69,-13.57,516.558898,1,1,0,1,0,,,,,,,,
564516,95099.031250,281.52,-3.658340,0.775721,-0.852335,0.824774,-0.035119,-0.039376,286.30,3.97,543.33,68.66,-13.56,518.154785,1,1,0,1,0,,,,,,,,
564526,95099.031250,281.52,-3.581725,0.598550,-0.732625,0.826902,-0.057468,-0.051082,286.54,3.97,543.93,68.44,-13.55,518.154785,1,1,0,1,0,,,,,,,,
564536,95080.328125,281.52,-3.471592,0.799663,-0.823605,0.840737,-0.076624,-0.055339,286.49,3.97,544.77,68.46,-13.52,519.752197,1,1,0,1,0,,,,,,,,
564546,95099.031250,281.52,-3.634398,0.397437,-1.130063,0.831159,-0.088330,-0.068110,286.35,3.97,545.01,67.89,-13.51,518.154785,1,1,0,1,0,,,,,,,,
564556,95080.328125,281.52,-3.643975,0.636857,-0.464475,0.827967,-0.097908,-0.068110,286.30,3.97,545.58,67.65,-13.50,519.752197,1,1,0,1,0,,,,,,,,
564566,95061.640625,281.52,-3.490746,0.258573,-0.665588,0.836480,-0.113872,-0.071303,286.20,3.98,546.40,67.66,-13.48,521.348571,1,1,0,1,0,,,,,,,,
564576,95061.640625,281.52,-3.548206,0.407014,-0.512359,0.824774,-0.113872,-0.076624,286.30,3.97,547.02,67.48,-13.47,521.348571,1,1,0,1,0,,,,,,,,
564586,95042.937500,281.52,-3.529053,0.229843,-0.354341,0.819453,-0.116000,-0.075559,286.54,3.97,547.88,67.52,-13.46,522.946472,1,1,0,1,0,,,,,,,,
564596,95042.937500,281.52,-3.629609,0.205901,0.076614,0.827967,-0.102165,-0.074495,286.20,3.97,548.53,67.36,-13.46,522.946472,1,1,0,1,0,,,,,,,,
564606,95042.937500,281.52,-3.538630,0.387860,-0.579396,0.823710,-0.090459,-0.065981,286.30,3.97,549.02,67.05,-13.44,522.946472,1,1,0,1,0,,,,,,,,
564616,95024.250000,281.52,-3.452438,-0.071826,0.167594,0.818389,-0.070238,-0.042569,286.20,4.00,549.77,67.00,-13.43,524.543334,1,1,0,1,0,,,,,,,,
564626,95005.546875,281.52,-3.514688,-0.225054,-0.201112,0.809875,-0.065981,-0.034055,286.49,4.00,550.74,67.16,-13.42,526.141784,1,1,0,1,0,,,,,,,,
564636,95005.546875,281.52,-3.438073,0.067037,0.019153,0.808811,-0.041504,-0.014899,286.49,4.00,551.47,67.08,-13.40,526.141784,1,1,0,1,0,,,,,,,,
564646,95005.546875,281.52,-3.457227,0.148440,0.378283,0.798168,-0.020220,0.000000,286.39,4.01,552.02,66.83,-13.39,526.141784,1,1,0,1,0,,,,,,,,
564656,94986.859375,281.52,-3.581725,-0.081402,0.014365,0.786462,-0.006385,0.017027,286.30,4.01,552.82,66.83,-13.39,527.739135,1,1,0,1,0,,,,,,,,
564666,94968.171875,281.52,-3.418920,0.148440,0.162805,0.789655,0.019156,0.038312,286.54,4.01,553.83,67.02,-13.37,529.336791,1,1,0,1,0,,,,,,,,
564676,94986.859375,281.52,-3.509899,0.234631,0.215478,0.789655,0.020220,0.054275,286.30,4.01,554.18,66.58,-13.37,527.739135,1,1,0,1,0,,,,,,,,
564686,94968.171875,281.52,-3.390189,-0.105344,-0.248996,0.785398,0.034055,0.065981,286.30,4.01,554.85,66.45,-13.35,529.336791,1,1,0,1,0,,,,,,,,
564696,94968.171875,281.52,-3.533841,0.320823,-0.114921,0.784333,0.055339,0.065981,286.39,4.01,555.34,66.15,-13.35,529.336791,1,1,0,1,0,,,,,,,,
564706,94968.171875,281.52,-3.423708,0.316034,0.177170,0.784333,0.069174,0.073431,286.49,4.01,555.71,65.74,-13.33,529.336791,1,1,0,1,0,,,,,,,,
564716,94968.171875,281.52,-3.552995,0.086191,0.047884,0.789655,0.078752,0.079816,286.49,4.01,555.99,65.23,-13.33,529.336791,1,1,0,1,0,,,,,,,,
564726,94930.781250,281.52,-3.385401,0.186747,-0.555454,0.782205,0.094716,0.078752,286.30,4.01,556.99,65.44,-13.32,532.534118,1,1,0,1,0,,,,,,,,
564736,94930.781250,281.52,-3.351882,0.459686,-0.469263,0.774755,0.107486,0.077688,286.54,4.01,557.74,65.40,-13.31,532.534118,1,1,0,1,0,,,,,,,,
564746,94930.781250,281.52,-3.347093,0.225054,0.019153,0.777948,0.113872,0.080881,286.49,4.01,558.30,65.18,-13.29,532.534118,1,1,0,1,0,,,,,,,,
564756,94930.781250,281.52,-3.466804,0.047884,-0.507570,0.776884,0.101101,0.076624,286.30,4.01,558.73,64.83,-13.29,532.534118,1,1,0,1,0,,,,,,,,
564766,94912.078125,281.52,-3.299209,0.440533,-0.914585,0.781141,0.095780,0.072367,286.54,4.02,559.44,64.76,-13.27,534.133850,1,1,0,1,0,,,,,,,,
564776,94912.078125,281.52,-3.414131,0.675164,-0.105344,0.775820,0.094716,0.069174,286.30,4.01,559.97,64.52,-13.26,534.133850,1,1,0,1,0,,,,,,,,
564786,94874.687500,281.52,-3.356670,0.354341,-0.713472,0.775820,0.085138,0.061725,286.54,4.01,561.17,64.92,-13.26,537.332702,1,1,0,1,0,,,,,,,,
564796,94912.078125,281.52,-3.294421,0.679953,-0.622492,0.785398,0.069174,0.055339,286.54,4.01,561.27,64.26,-13.24,534.133850,1,1,0,1,0,,,,,,,,
564806,94874.687500,281.52,-3.313575,0.713472,-0.622492,0.783269,0.058532,0.045761,286.30,4.01,562.15,64.36,-13.23,537.332702,1,1,0,1,0,,,,,,,,
564816,94874.687500,281.52,-3.318363,0.531512,-0.373495,0.791783,0.056403,0.029798,286.30,4.00,562.80,64.23,-13.22,537.332702,1,1,0,1,0,,,,,,,,
564826,94874.687500,281.52,-3.347093,0.258573,-0.713472,0.801361,0.041504,0.021284,286.54,3.98,563.29,63.96,-13.21,537.332702,1,1,0,1,0,,,,,,,,
564836,94856.000000,281.52,-3.375824,0.703895,-0.483628,0.798168,0.028734,0.012770,286.30,3.98,564.05,63.95,-13.21,538.931884,1,1,0,1,0,,,,,,,,
564846,94856.000000,281.52,-3.222595,0.521935,-0.962469,0.797104,0.010642,0.008513,286.20,3.98,564.63,63.75,-13.19,538.931884,1,1,0,1,0,,,,,,,,
564856,94856.000000,281.52,-3.275267,0.383072,-0.622492,0.802425,0.006385,0.000000,286.49,3.98,565.06,63.42,-13.18,538.931884,1,1,0,1,0,,,,,,,,
564866,94837.312500,281.52,-3.169923,0.287304,-0.339976,0.793911,-0.001064,0.002128,286.39,3.98,565.78,63.37,-13.16,540.531250,1,1,0,1,0,,,,,,,,
564876,94818.609375,281.52,-3.423708,0.588973,-0.421379,0.796040,-0.029798,-0.005321,286.30,3.98,566.71,63.54,-13.17,542.132263,1,1,0,1,0,,,,,,,,
564886,94818.609375,281.52,-3.256114,0.402225,-1.058237,0.807746,-0.043633,-0.004256,286.30,3.98,567.42,63.47,-13.16,542.132263,1,1,0,1,0,,,,,,,,
564896,94818.609375,281.52,-3.236960,0.090979,-0.383072,0.804554,-0.037247,-0.002128,286.30,3.97,567.95,63.24,-13.15,542.132263,1,1,0,1,0,,,,,,,,
564906,94818.609375,281.52,-3.241749,0.560243,-0.052672,0.796040,-0.056403,-0.004256,286.49,3.97,568.35,62.88,-13.13,542.132263,1,1,0,1,0,,,,,,,,
564916,94799.921875,281.52,-3.208230,0.057460,-0.833182,0.791783,-0.048954,-0.001064,286.39,3.98,569.04,62.81,-13.12,543.732177,1,1,0,1,0,,,,,,,,
564926,94799.921875,281.52,-3.098096,0.301669,-0.435744,0.805618,-0.039376,0.008513,286.35,3.97,569.56,62.58,-13.10,543.732177,1,1,0,1,0,,,,,,,,
564936,94781.218750,281.52,-3.112462,0.469263,-0.047884,0.786462,-0.059596,0.009578,286.49,3.97,570.35,62.61,-13.08,545.333679,1,1,0,1,0,,,,,,,,
564946,94781.218750,281.52,-3.026270,0.368707,-0.895431,0.781141,-0.067046,0.015963,286.49,3.97,570.94,62.45,-13.06,545.333679,1,1,0,1,0,,,,,,,,
564956,94762.531250,281.52,-3.193865,0.282515,-0.220266,0.780077,-0.040440,0.021284,286.35,3.97,571.78,62.53,-13.05,546.934143,1,1,0,1,0,,,,,,,,
564966,94781.218750,281.52,-3.193865,0.186747,0.023942,0.771563,-0.043633,0.025541,286.35,3.97,572.01,62.02,-13.05,545.333679,1,1,0,1,0,,,,,,,,
564976,94740.296875,281.51,-2.997540,0.368707,-0.493205,0.771563,-0.043633,0.031926,286.30,3.97,573.06,62.30,-13.03,548.838623,1,1,0,1,0,,,,,,,,
564986,94762.531250,281.52,-3.002328,0.387860,-0.521935,0.777948,-0.025541,0.029798,286.30,3.97,573.37,61.87,-13.00,546.934143,1,1,0,1,0,,,,,,,,
564996,94743.828125,281.52,-3.074154,0.110133,-0.220266,0.772627,-0.011706,0.022348,286.20,3.97,574.00,61.76,-12.99,548.536132,1,1,0,1,0,,,,,,,,
565006,94743.828125,281.52,-3.002328,0.158017,0.076614,0.776884,-0.020220,0.024477,286.74,3.97,574.47,61.49,-12.97,548.536132,1,1,0,1,0,,,,,,,,
565016,94725.140625,281.52,-3.102885,0.100556,-0.282515,0.770499,-0.001064,0.023412,286.54,3.99,575.22,61.49,-12.97,550.137084,1,1,0,1,0,,,,,,,,
565026,94725.140625,281.52,-3.122039,0.378283,-0.239420,0.757728,0.012770,0.036183,286.35,4.00,575.79,61.31,-12.96,550.137084,1,1,0,1,0,,,,,,,,
565036,94702.906250,281.51,-3.155557,0.009576,0.359130,0.752407,0.041504,0.040440,286.30,4.00,576.69,61.46,-12.96,552.042236,1,1,0,1,0,,,,,,,,
565046,94706.437500,281.52,-2.940079,0.177170,-0.105344,0.748150,0.052147,0.045761,286.59,4.01,577.29,61.32,-12.94,551.739624,1,1,0,1,0,,,,,,,,
565056,94687.750000,281.52,-3.016694,0.229843,-0.450109,0.744957,0.063853,0.046825,286.20,4.01,578.13,61.42,-12.93,553.341064,1,1,0,1,0,,,,,,,,
565066,94687.750000,281.52,-3.011905,0.258573,-0.134075,0.751343,0.079816,0.057468,286.30,4.01,578.77,61.31,-12.92,553.341064,1,1,0,1,0,,,,,,,,
565076,94687.750000,281.52,-2.968810,0.201112,-0.258573,0.757728,0.077688,0.063853,286.54,4.01,579.25,61.05,-12.91,553.341064,1,1,0,1,0,,,,,,,,
565086,94669.062500,281.52,-2.925714,0.047884,-0.517147,0.757728,0.085138,0.063853,286.39,4.01,580.00,61.07,-12.89,554.942810,1,1,0,1,0,,,,,,,,
565096,94669.062500,281.52,-2.987963,0.359130,-0.378283,0.761985,0.079816,0.062789,286.30,4.01,580.57,60.90,-12.88,554.942810,1,1,0,1,0,,,,,,,,
565106,94650.359375,281.52,-3.064578,0.229843,-0.225054,0.757728,0.083009,0.065981,286.20,4.01,581.40,60.98,-12.88,556.546081,1,1,0,1,0,,,,,,,,
565116,94669.062500,281.52,-2.949656,0.325611,-0.330399,0.757728,0.083009,0.064917,286.54,4.01,581.62,60.47,-12.87,554.942810,1,1,0,1,0,,,,,,,,
565126,94650.359375,281.52,-2.834734,0.459686,-0.397437,0.767306,0.081945,0.062789,286.35,4.01,582.18,60.31,-12.84,556.546081,1,1,0,1,0,,,,,,,,
565136,94650.359375,281.52,-2.944868,0.335188,-0.478840,0.767306,0.070238,0.061725,286.39,4.01,582.60,60.00,-12.83,556.546081,1,1,0,1,0,,,,,,,,
565146,94631.671875,281.52,-2.743755,0.296881,-0.296881,0.769434,0.075559,0.057468,286.30,4.01,583.31,59.98,-12.81,558.148315,1,1,0,1,0,,,,,,,,
565156,94631.671875,281.52,-2.777273,0.550666,-0.603338,0.771563,0.060660,0.042569,286.49,4.01,583.84,59.80,-12.78,558.148315,1,1,0,1,0,,,,,,,,
565166,94612.968750,281.52,-2.834734,0.430956,-0.555454,0.781141,0.051082,0.039376,286.30,4.01,584.64,59.87,-12.77,559.752136,1,1,0,1,0,,,,,,,,
565176,94612.968750,281.52,-2.896984,0.330399,-0.387860,0.786462,0.043633,0.028734,286.39,4.01,585.24,59.74,-12.76,559.752136,1,1,0,1,0,,,,,,,,
565186,94594.281250,281.52,-3.045424,0.416591,-0.272938,0.794976,0.035119,0.026605,286.35,4.01,586.09,59.86,-12.77,561.354858,1,1,0,1,0,,,,,,,,
565196,94594.281250,281.52,-2.887407,0.325611,-0.335188,0.791783,0.032990,0.021284,286.30,4.01,586.73,59.77,-12.77,561.354858,1,1,0,1,0,,,,,,,,
565206,94594.281250,281.52,-2.849099,0.373495,-0.387860,0.788590,0.037247,0.021284,286.30,4.01,587.21,59.53,-12.75,561.354858,1,1,0,1,0,,,,,,,,
565216,94594.281250,281.52,-2.825157,0.143652,-0.531512,0.770499,0.036183,0.015963,286.30,3.99,587.57,59.17,-12.74,561.354858,1,1,0,1,0,,,,,,,,
565226,94575.578125,281.52,-2.935291,0.114921,-0.148440,0.783269,0.029798,0.010642,286.20,3.99,588.24,59.12,-12.74,562.959167,1,1,0,1,0,,,,,,,,
565236,94575.578125,281.52,-2.868253,0.239420,-0.402225,0.775820,0.018091,0.020220,286.30,3.98,588.74,58.90,-12.73,562.959167,1,1,0,1,0,,,,,,,,
565246,94575.578125,281.52,-2.901772,0.330399,-0.407014,0.784333,0.027669,0.021284,286.49,3.98,589.11,58.57,-12.73,562.959167,1,1,0,1,0,,,,,,,,
565256,94556.890625,281.52,-2.758120,0.464475,-0.038307,0.774755,0.036183,0.028734,286.35,3.98,589.79,58.53,-12.71,564.562438,1,1,0,1,0,,,,,,,,
565266,94556.890625,281.52,-2.829946,0.301669,-0.488417,0.785398,0.022348,0.028734,286.20,3.98,590.29,58.33,-12.71,564.562438,1,1,0,1,0,,,,,,,,
565276,94538.203125,281.52,-2.705447,0.296881,-0.598550,0.790719,0.025541,0.027669,286.20,3.97,591.07,58.39,-12.69,566.165954,1,1,0,1,0,,,,,,,,
565286,94553.359375,281.51,-2.719813,0.162805,-0.282515,0.789655,0.039376,0.023412,286.20,3.97,591.34,57.96,-12.67,564.865417,1,1,0,1,0,,,,,,,,
565296,94519.500000,281.52,-2.753331,0.162805,-0.502782,0.776884,0.021284,0.019156,286.35,3.98,592.25,58.16,-12.66,567.771057,1,1,0,1,0,,,,,,,,
565306,94538.203125,281.52,-2.667140,0.287304,-0.565031,0.776884,0.025541,0.015963,286.35,3.97,592.54,57.75,-12.64,566.165954,1,1,0,1,0,,,,,,,,
565316,94519.500000,281.52,-2.700659,0.612915,-0.593762,0.767306,0.030862,0.010642,286.30,3.97,593.16,57.66,-12.63,567.771057,1,1,0,1,0,,,,,,,,
565326,94500.812500,281.52,-2.681505,0.335188,-0.205901,0.766242,0.019156,-0.004256,286.30,3.97,594.02,57.81,-12.62,569.375061,1,1,0,1,0,,,,,,,,
565336,94500.812500,281.52,-2.810792,0.244208,-0.555454,0.777948,0.025541,-0.011706,286.49,3.97,594.67,57.76,-12.62,569.375061,1,1,0,1,0,,,,,,,,
565346,94500.812500,281.52,-2.777273,0.407014,-0.301669,0.801361,0.036183,-0.020220,286.54,3.97,595.15,57.54,-12.61,569.375061,1,1,0,1,0,,,,,,,,
565356,94500.812500,281.52,-2.576160,0.450109,-0.229843,0.805618,0.020220,-0.022348,286.49,3.97,595.51,57.21,-12.59,569.375061,1,1,0,1,0,,,,,,,,
565366,94482.109375,281.52,-2.700659,0.220266,-0.464475,0.800297,0.017027,-0.017027,286.54,3.96,596.18,57.18,-12.58,570.980651,1,1,0,1,0,,,,,,,,
565376,94463.421875,281.52,-2.858676,0.383072,-0.373495,0.806682,0.023412,-0.012770,286.20,3.97,597.09,57.38,-12.59,572.585205,1,1,0,1,0,,,,,,,,
565386,94482.109375,281.52,-2.667140,0.560243,-0.086191,0.794976,0.026605,-0.018091,286.35,3.97,597.37,56.97,-12.58,570.980651,1,1,0,1,0,,,,,,,,
565396,94459.890625,281.51,-2.585737,0.339976,-0.378283,0.792847,0.020220,-0.014899,286.35,3.97,598.05,56.95,-12.56,572.888427,1,1,0,1,0,,,,,,,,
565406,94459.890625,281.51,-2.604891,0.263362,-0.421379,0.805618,0.026605,-0.008513,286.39,3.97,598.56,56.77,-12.54,572.888427,1,1,0,1,0,,,,,,,,
565416,94444.718750,281.52,-2.652775,0.239420,-0.282515,0.786462,0.021284,-0.008513,286.35,3.99,599.27,56.79,-12.54,574.191345,1,1,0,1,0,,,,,,,,
565426,94426.031250,281.52,-2.571372,0.421379,-0.071826,0.784333,0.034055,-0.006385,286.20,4.00,600.20,57.01,-12.52,575.796386,1,1,0,1,0,,,,,,,,
565436,94426.031250,281.52,-2.657563,0.186747,-0.584185,0.774755,0.041504,-0.002128,286.54,4.00,600.90,57.02,-12.52,575.796386,1,1,0,1,0,,,,,,,,
565446,94422.515625,281.51,-2.633621,0.215478,-0.100556,0.784333,0.053211,-0.001064,286.49,4.01,601.50,56.92,-12.51,576.098327,1,1,0,1,0,,,,,,,,
565456,94426.031250,281.52,-2.580949,0.158017,-0.143652,0.780077,0.048954,0.003192,286.39,4.01,601.88,56.61,-12.50,575.796386,1,1,0,1,0,,,,,,,,
565466,94407.328125,281.52,-2.676717,0.067037,-0.574608,0.776884,0.052147,0.007449,286.30,4.01,602.56,56.60,-12.50,577.403015,1,1,0,1,0,,,,,,,,
565476,94407.328125,281.52,-2.700659,0.268150,-0.172382,0.782205,0.061725,0.007449,286.35,4.01,603.07,56.42,-12.50,577.403015,1,1,0,1,0,,,,,,,,
565486,94407.328125,281.52,-2.638410,0.311246,-0.124498,0.781141,0.060660,0.006385,286.49,4.01,603.45,56.12,-12.49,577.403015,1,1,0,1,0,,,,,,,,
565496,94407.328125,281.52,-2.456450,0.196324,-0.507570,0.790719,0.065981,0.004256,286.49,4.01,603.74,55.73,-12.47,577.403015,1,1,0,1,0,,,,,,,,
565506,94388.640625,281.52,-2.533065,0.301669,-0.368707,0.799233,0.061725,0.005321,286.54,4.01,604.35,55.66,-12.45,579.008544,1,1,0,1,0,,,,,,,,
565516,94388.640625,281.52,-2.461239,0.186747,-0.435744,0.806682,0.059596,0.006385,286.35,4.01,604.81,55.44,-12.44,579.008544,1,1,0,1,0,,,,,,,,
565526,94388.640625,281.52,-2.461239,0.253785,-0.536301,0.805618,0.060660,0.005321,286.30,4.01,605.15,55.11,-12.42,579.008544,1,1,0,1,0,,,,,,,,
565536,94351.250000,281.52,-2.422932,0.339976,-0.766144,0.809875,0.053211,0.011706,286.30,4.01,606.20,55.48,-12.40,582.221801,1,1,0,1,0,,,,,,,,
565546,94369.953125,281.52,-2.461239,0.306457,-0.770932,0.809875,0.057468,0.013834,286.49,4.01,606.60,55.20,-12.39,580.614379,1,1,0,1,0,,,,,,,,
565556,94351.250000,281.52,-2.446874,0.158017,-0.502782,0.818389,0.054275,0.015963,286.20,4.01,607.29,55.22,-12.38,582.221801,1,1,0,1,0,,,,,,,,
565566,94351.250000,281.52,-2.537853,0.378283,-0.272938,0.822646,0.055339,0.014899,286.39,4.01,607.81,55.06,-12.37,582.221801,1,1,0,1,0,,,,,,,,
565576,94369.953125,281.52,-2.461239,0.244208,-0.383072,0.816260,0.042569,0.015963,286.35,4.02,607.80,54.40,-12.36,580.614379,1,1,0,1,0,,,,,,,,
565586,94351.250000,281.52,-2.427720,0.071826,-0.641646,0.825838,0.040440,0.012770,286.54,4.01,608.19,54.12,-12.35,582.221801,1,1,0,1,0,,,,,,,,
565596,94332.562500,281.52,-2.533065,0.263362,-0.234631,0.819453,0.042569,0.004256,286.54,4.01,608.88,54.15,-12.35,583.828125,1,1,0,1,0,,,,,,,,
565606,94313.859375,281.52,-2.269703,0.349553,-0.277727,0.821581,0.035119,-0.003192,286.39,4.01,609.80,54.39,-12.32,585.436035,1,1,0,1,0,,,,,,,,
565616,94310.343750,281.51,-2.331952,0.378283,-0.727837,0.835416,0.032990,-0.002128,286.49,4.00,610.57,54.49,-12.30,585.738342,1,1,0,1,0,,,,,,,,
565626,94313.859375,281.52,-2.446874,0.172382,-0.301669,0.850315,0.039376,0.000000,286.30,3.99,611.07,54.32,-12.30,585.436035,1,1,0,1,0,,,,,,,,
565636,94313.859375,281.52,-2.595314,0.292092,-0.306457,0.849251,0.046825,0.001064,286.49,3.98,611.44,54.04,-12.31,585.436035,1,1,0,1,0,,,,,,,,
565646,94295.171875,281.52,-2.403778,0.172382,-0.330399,0.856701,0.037247,-0.004256,286.39,3.98,612.12,54.05,-12.30,587.042907,1,1,0,1,0,,,,,,,,
565656,94295.171875,281.52,-2.446874,0.119710,-0.220266,0.886499,0.036183,0.000000,286.35,3.98,612.63,53.90,-12.29,587.042907,1,1,0,1,0,,,,,,,,
565666,94272.953125,281.51,-2.489969,0.220266,-0.450109,0.877985,0.034055,0.006385,286.30,3.98,613.49,54.09,-12.29,588.953735,1,1,0,1,0,,,,,,,,
565676,94276.468750,281.52,-2.298433,0.354341,-0.588973,0.867343,0.024477,0.006385,286.54,3.97,614.06,53.99,-12.28,588.651367,1,1,0,1,0,,,,,,,,
565686,94272.953125,281.51,-2.370259,0.282515,-0.430956,0.872664,0.020220,0.007449,286.35,3.97,614.56,53.84,-12.27,588.953735,1,1,0,1,0,,,,,,,,
565696,94272.953125,281.51,-2.394201,0.368707,-0.454898,0.862022,0.017027,0.008513,286.05,3.97,614.94,53.56,-12.26,588.953735,1,1,0,1,0,,,,,,,,
565706,94257.781250,281.52,-2.327163,0.191536,-0.426167,0.849251,0.021284,0.004256,286.30,3.97,615.55,53.50,-12.25,590.258728,1,1,0,1,0,,,,,,,,
565716,94257.781250,281.52,-2.427720,0.215478,-0.292092,0.848187,0.013834,0.001064,286.30,3.97,616.00,53.30,-12.24,590.258728,1,1,0,1,0,,,,,,,,
565726,94239.093750,281.52,-2.375048,0.071826,-0.095768,0.860958,0.018091,0.008513,286.39,3.97,616.74,53.38,-12.24,591.866333,1,1,0,1,0,,,,,,,,
565736,94235.578125,281.51,-2.437297,0.129286,-0.454898,0.844994,0.025541,0.005321,286.39,3.98,617.37,53.36,-12.24,592.168823,1,1,0,1,0,,,,,,,,
565746,94239.093750,281.52,-2.240972,0.239420,-0.579396,0.844994,0.023412,0.010642,286.49,3.97,617.77,53.11,-12.22,591.866333,1,1,0,1,0,,,,,,,,
565756,94220.390625,281.52,-2.322375,0.225054,-0.181959,0.856701,0.032990,0.012770,286.54,3.97,618.47,53.15,-12.21,593.475585,1,1,0,1,0,,,,,,,,
565766,94220.390625,281.52,-2.317587,0.105344,-0.521935,0.847123,0.020220,0.007449,286.54,3.97,619.00,53.02,-12.20,593.475585,1,1,0,1,0,,,,,,,,
565776,94216.875000,281.51,-2.398990,0.234631,-0.612915,0.838609,0.018091,0.008513,286.35,3.97,619.46,52.84,-12.20,593.778076,1,1,0,1,0,,,,,,,,
565786,94216.875000,281.51,-2.331952,0.330399,-0.067037,0.843930,0.034055,0.013834,286.39,3.97,619.81,52.54,-12.20,593.778076,1,1,0,1,0,,,,,,,,
565796,94220.390625,281.52,-2.240972,0.287304,-0.292092,0.844994,0.030862,0.018091,286.35,3.96,620.00,52.09,-12.18,593.475585,1,1,0,1,0,,,,,,,,
565806,94198.187500,281.51,-2.293645,0.316034,-0.392649,0.823710,0.024477,0.012770,286.49,3.96,620.61,52.06,-12.17,595.386291,1,1,0,1,0,,,,,,,,
565816,94183.000000,281.52,-2.159569,0.526724,-0.268150,0.826902,0.035119,0.010642,286.15,3.99,621.40,52.20,-12.15,596.693420,1,1,0,1,0,,,,,,,,
565826,94201.703125,281.52,-2.082955,0.512359,-0.229843,0.816260,0.036183,-0.001064,286.49,4.00,621.59,51.76,-12.13,595.083679,1,1,0,1,0,,,,,,,,
565836,94179.484375,281.51,-2.279279,0.440533,-0.636857,0.818389,0.041504,-0.009578,286.30,4.00,622.20,51.73,-12.12,596.996032,1,1,0,1,0,,,,,,,,
565846,94160.796875,281.51,-2.375048,0.402225,-0.062249,0.815196,0.042569,-0.018091,286.39,4.00,623.06,51.95,-12.13,598.604736,1,1,0,1,0,,,,,,,,
565856,94160.796875,281.51,-2.346317,0.536301,-0.421379,0.815196,0.040440,-0.024477,286.39,4.01,623.71,51.95,-12.13,598.604736,1,1,0,1,0,,,,,,,,
565866,94160.796875,281.51,-2.102108,0.459686,-0.430956,0.820517,0.042569,-0.037247,286.39,4.01,624.20,51.80,-12.11,598.604736,1,1,0,1,0,,,,,,,,
565876,94142.109375,281.51,-2.236184,0.143652,-0.086191,0.820517,0.035119,-0.047890,286.49,4.01,624.97,51.92,-12.10,600.213745,1,1,0,1,0,,,,,,,,
565886,94160.796875,281.51,-2.331952,0.325611,-0.287304,0.816260,0.028734,-0.050018,286.39,4.01,625.14,51.47,-12.10,598.604736,1,1,0,1,0,,,,,,,,
565896,94145.609375,281.52,-2.207453,0.354341,-0.177170,0.815196,0.047890,-0.048954,286.54,4.01,625.60,51.29,-12.10,599.912353,1,1,0,1,0,,,,,,,,
565906,94123.406250,281.51,-2.197877,0.292092,0.201112,0.808811,0.068110,-0.050018,286.39,4.01,626.41,51.46,-12.09,601.824279,1,1,0,1,0,,,,,,,,
565916,94126.921875,281.52,-2.135627,0.215478,-0.253785,0.806682,0.069174,-0.048954,286.39,4.01,626.95,51.37,-12.07,601.521545,1,1,0,1,0,,,,,,,,
565926,94142.109375,281.51,-2.054224,0.330399,-0.306457,0.803490,0.081945,-0.053211,286.39,4.01,627.03,50.82,-12.05,600.213745,1,1,0,1,0,,,,,,,,
565936,94123.406250,281.51,-2.140416,0.411802,-0.263362,0.799233,0.081945,-0.055339,286.49,4.01,627.48,50.65,-12.04,601.824279,1,1,0,1,0,,,,,,,,
565946,94108.218750,281.52,-2.202665,0.258573,-0.565031,0.802425,0.084073,-0.055339,286.59,4.01,628.15,50.69,-12.04,603.132324,1,1,0,1,0,,,,,,,,
565956,94104.718750,281.51,-2.073378,0.225054,-0.330399,0.803490,0.094716,-0.056403,286.54,4.01,628.73,50.64,-12.02,603.433776,1,1,0,1,0,,,,,,,,
565966,94086.015625,281.51,-2.087743,0.201112,-0.134075,0.807746,0.085138,-0.054275,286.20,4.01,629.56,50.84,-12.01,605.044860,1,1,0,1,0,,,,,,,,
565976,94070.843750,281.52,-2.221819,0.186747,-0.474051,0.802425,0.081945,-0.053211,286.30,4.01,630.51,51.15,-12.01,606.351928,1,1,0,1,0,,,,,,,,
565986,94089.531250,281.52,-2.092532,0.162805,-0.526724,0.806682,0.083009,-0.047890,286.35,4.01,630.83,50.84,-12.00,604.742004,1,1,0,1,0,,,,,,,,
565996,94108.218750,281.52,-2.130839,0.095768,-0.359130,0.807746,0.079816,-0.047890,286.35,4.01,630.66,50.07,-11.99,603.132324,1,1,0,1,0,,,,,,,,
566006,94086.015625,281.51,-2.063801,0.244208,-0.349553,0.801361,0.075559,-0.042569,286.54,4.01,631.01,49.80,-11.98,605.044860,1,1,0,1,0,,,,,,,,
566016,94086.015625,281.51,-2.092532,-0.086191,-0.474051,0.805618,0.075559,-0.036183,286.30,4.00,631.27,49.45,-11.97,605.044860,1,1,0,1,0,,,,,,,,
566026,94070.843750,281.52,-2.274491,-0.110133,0.071826,0.810939,0.074495,-0.027669,286.54,3.99,631.78,49.35,-11.98,606.351928,1,1,0,1,0,,,,,,,,
566036,94067.328125,281.51,-2.039859,0.363918,-0.435744,0.804554,0.056403,-0.023412,286.35,3.98,632.25,49.20,-11.97,606.654846,1,1,0,1,0,,,,,,,,
566046,94029.937500,281.51,-2.068590,0.292092,-0.512359,0.817324,0.059596,-0.019156,286.30,3.98,633.40,49.72,-11.96,609.876953,1,1,0,1,0,,,,,,,,
566056,94048.640625,281.51,-2.068590,0.253785,-0.081402,0.809875,0.062789,-0.015963,286.35,3.98,633.86,49.57,-11.95,608.265136,1,1,0,1,0,,,,,,,,
566066,94048.640625,281.51,-1.948880,0.153228,-0.378283,0.800297,0.046825,-0.021284,286.54,3.98,634.21,49.31,-11.93,608.265136,1,1,0,1,0,,,,,,,,
566076,94029.937500,281.51,-2.030282,0.196324,-0.426167,0.809875,0.047890,-0.024477,286.39,3.98,634.87,49.36,-11.92,609.876953,1,1,0,1,0,,,,,,,,
566086,94011.250000,281.51,-2.135627,0.196324,-0.316034,0.805618,0.045761,-0.021284,286.54,3.98,635.77,49.63,-11.93,611.487731,1,1,0,1,0,,,,,,,,
566096,94014.750000,281.52,-2.087743,-0.014365,-0.114921,0.797104,0.036183,-0.026605,286.35,3.98,636.37,49.61,-11.92,611.186035,1,1,0,1,0,,,,,,,,
566106,94029.937500,281.51,-2.140416,0.205901,-0.445321,0.803490,0.036183,-0.022348,286.35,3.97,636.50,49.13,-11.92,609.876953,1,1,0,1,0,,,,,,,,
566116,94029.937500,281.51,-1.991975,0.335188,-0.454898,0.818389,0.044697,-0.018091,286.15,3.97,636.59,48.63,-11.91,609.876953,1,1,0,1,0,,,,,,,,
566126,94011.250000,281.51,-2.097320,0.134075,-0.062249,0.808811,0.039376,-0.023412,286.39,3.98,637.05,48.49,-11.91,611.487731,1,1,0,1,0,,,,,,,,
566136,93992.562500,281.51,-1.991975,0.148440,-0.454898,0.813068,0.027669,-0.030862,286.30,3.97,637.80,48.63,-11.90,613.098754,1,1,0,1,0,,,,,,,,
566146,93973.859375,281.51,-1.977610,0.373495,-0.517147,0.823710,0.029798,-0.032990,286.30,3.97,638.77,48.98,-11.89,614.711425,1,1,0,1,0,,,,,,,,
566156,93992.562500,281.51,-2.073378,0.320823,-0.363918,0.818389,0.029798,-0.043633,286.39,3.97,639.09,48.70,-11.89,613.098754,1,1,0,1,0,,,,,,,,
566166,93973.859375,281.51,-1.819593,0.186747,-0.430956,0.818389,0.012770,-0.044697,286.30,3.97,639.74,48.74,-11.86,614.711425,1,1,0,1,0,,,,,,,,
566176,93977.359375,281.52,-1.810016,0.253785,-0.512359,0.821581,0.013834,-0.039376,286.30,3.97,640.15,48.54,-11.84,614.409606,1,1,0,1,0,,,,,,,,
566186,93955.171875,281.51,-1.939303,-0.009576,-0.268150,0.823710,0.012770,-0.035119,286.20,3.97,640.93,48.71,-11.83,616.322998,1,1,0,1,0,,,,,,,,
566196,93977.359375,281.52,-1.944091,0.019153,-0.181959,0.819453,0.010642,-0.039376,286.54,3.97,641.04,48.23,-11.82,614.409606,1,1,0,1,0,,,,,,,,
566206,93958.671875,281.52,-1.991975,0.134075,-0.268150,0.825838,0.008513,-0.034055,286.54,3.97,641.52,48.12,-11.82,616.021118,1,1,0,1,0,,,,,,,,
566216,93958.671875,281.52,-1.872265,0.191536,-0.335188,0.815196,0.002128,-0.029798,286.30,3.99,641.88,47.88,-11.80,616.021118,1,1,0,1,0,,,,,,,,
566226,93958.671875,281.52,-1.972822,0.038307,-0.311246,0.814132,0.006385,-0.026605,286.49,4.00,642.15,47.56,-11.80,616.021118,1,1,0,1,0,,,,,,,,
566236,93936.468750,281.51,-1.886630,-0.033518,-0.454898,0.804554,0.009578,-0.023412,286.30,4.00,642.83,47.64,-11.79,617.936157,1,1,0,1,0,,,,,,,,
566246,93936.468750,281.51,-1.905784,0.344765,-0.234631,0.801361,0.003192,-0.026605,286.54,4.01,643.34,47.55,-11.78,617.936157,1,1,0,1,0,,,,,,,,
