	packetType	timestamp_ms	imu1_accel_x	imu1_accel_y	imu1_accel_z	imu1_gyro_x	imu1_gyro_y	imu1_gyro_z	imu1_mag_x	imu1_mag_y	imu1_mag_z	imu2_accel_x	imu2_accel_y	imu2_accel_z	imu2_gyro_x	imu2_gyro_y	imu2_gyro_z	imu2_mag_x	imu2_mag_y	imu2_mag_z	high_g_accel_x	high_g_accel_y	high_g_accel_z	baro1_temp	baro1_pres	baro2_temp	baro2_pres	gps_lat	gps_long	gps_alt	gps_fix_quality	gps_sats_tracked	gps_hdop	battery_voltage	pyro_cont	trigger_status	heading	vtg	pos_x	pos_y	pos_z	vel_x	vel_y	vel_z	acc_x	acc_y	acc_z	q_x	q_y	q_z	q_w	state	gps_lat_mod	gps_long_mod	imu1_accel_x_real	imu1_accel_y_real	imu1_accel_z_real	imu2_accel_x_real	imu2_accel_y_real	imu2_accel_z_real	imu1_gyro_x_real	imu1_gyro_y_real	imu1_gyro_z_real	imu2_gyro_x_real	imu2_gyro_y_real	imu2_gyro_z_real	imu1_mag_x_real	imu1_mag_y_real	imu1_mag_z_real	imu2_mag_x_real	imu2_mag_y_real	imu2_mag_z_real	imu_accel_x_avg	imu_accel_y_avg	imu_accel_z_avg	imu_gyro_x_avg	imu_gyro_y_avg	imu_gyro_z_avg	imu_mag_x_avg	imu_mag_y_avg	imu_mag_z_avg	high_g_accel_x_real	high_g_accel_y_real	high_g_accel_z_real	baro_pres_avg	baro_temp_avg
10147	0	1109633	1267	10	-17	68	-15	23	1267	10	-17	68	-15	23	-28610	-32765	-4890	-28610	-32765	-4890	64	-272	-208	61.34	0.9269676782630152	60.5	0.9261880088823096	3520.870361328125	-11748.560546875	622.7999877929688	1	12	0.6000000238418579	5.422500133514404	15	0	0.0	0.0	0.0	0.0	-0.0104567604099152	0.0	0.0	-0.5323232976503378	0.1220339526	0.0717846779999999	9.0951187026	0.0003372709907125	-0.7020878791809082	0.0005062601994723	0.7120901346206665	6	35.34783935546875	-117.80934244791666	9.0951187026	0.071784678	-0.12203395260000001	0.48813581040000004	-0.107677017	0.1651047594	0.08307767209599999	-0.01832595708	0.028099800855999998	-34.95370880392	-40.02999891508	-5.974262008079999	0.73486	0.0058	-0.00986	-16.5938	-19.0037	-2.8362	4.7916272565	-0.017946169499999998	0.021535403399999993	-17.435315565912	-20.02416243608	-2.9730811036119995	-7.929470000000001	-9.498949999999999	-1.42303	1.88288	-8.00224	-6.11936	0.9265778435726624	60.92
10148	0	1109739	1272	11	-25	70	-16	21	1272	11	-25	70	-16	21	-28677	-32765	-4885	-28677	-32765	-4885	32	-272	-224	61.34	0.9269676782630152	60.5	0.9260597088576364	3520.870361328125	-11748.560546875	622.7999877929688	1	12	0.6000000238418579	5.414999961853027	15	0	0.0	0.0	0.0	0.0	-0.0312507495493731	0.0	0.0	-0.5661716856412087	0.1794616949999999	0.0789631458	9.1310110416	0.0004317091952543	-0.7020630836486816	0.0005775219178758	0.7121145129203796	6	35.34783935546875	-117.80934244791666	9.1310110416	0.07896314580000001	-0.179461695	0.502492746	-0.1148554848	0.1507478238	0.08552113303999999	-0.019547687552	0.025656339912	-35.035564745544	-40.02999891508	-5.968153355719999	0.73776	0.00638	-0.0145	-16.63266	-19.0037	-2.8333	4.8167518938	-0.017946169499999998	-0.014356935599999995	-17.475021806252002	-20.024773301316	-2.971248507904	-7.947450000000001	-9.49866	-1.4239	0.94144	-8.00224	-6.59008	0.9265136935603258	60.92
10149	0	1109845	1269	1	-16	69	-16	26	1269	1	-16	69	-16	26	-28677	-32765	-4885	-28677	-32765	-4885	112	-256	-128	61.34	0.926908462867012	60.5	0.9261287934863064	3520.870361328125	-11748.560546875	622.7999877929688	1	12	0.6000000238418579	5.422500133514404	15	0	0.0	0.0	0.0	0.0	-0.064217174794935	0.0	0.0	-0.6075787880311533	0.1148554847999999	0.0071784677999999	9.1094756382	0.1470390558242797	-0.6844687461853027	0.143998771905899	0.6993900537490845	6	35.34783935546875	-117.80934244791666	9.109475638200001	0.0071784678	-0.1148554848	0.4953142782	-0.1148554848	0.1866401628	0.08429940256799999	-0.019547687552	0.031764992272	-35.035564745544	-40.02999891508	-5.968153355719999	0.73602	0.00058	-0.00928	-16.63266	-19.0037	-2.8333	4.802394958200001	-0.0538385085	0.035892339	-17.475632671488	-20.024773301316	-2.968194181724	-7.948320000000001	-9.50156	-1.42129	3.29504	-7.53152	-3.76576	0.9265186281766592	60.92
10150	0	1109950	1271	0	-15	66	-14	20	1271	0	-15	66	-14	20	-28669	-32765	-4886	-28669	-32765	-4886	96	-176	-240	61.34	0.9270663705896868	60.52	0.9262077473476438	3520.870361328125	-11748.560546875	622.7999877929688	1	12	0.6000000238418579	5.421249866485596	15	0	0.0	0.0	0.0	0.0	-0.1484820289246676	0.0	0.0	-0.6986504476521449	0.1076770169999999	0.0	9.1238325738	0.147052064538002	-0.684417724609375	0.1441098302602768	0.6994144320487976	6	35.34783935546875	-117.80934244791666	9.1238325738	0.0	-0.107677017	0.4737788748	-0.10049854920000001	0.143569356	0.080634211152	-0.017104226607999998	0.024434609439999998	-35.025790901768	-40.02999891508	-5.969375086192	0.7371800000000001	0.0	-0.0087	-16.62802	-19.0037	-2.83388	4.7988057243	-0.050249274600000005	0.017946169500000005	-17.472578345307998	-20.023551570844	-2.9724702383759998	-7.9454199999999995	-9.50185	-1.4212900000000002	2.82432	-5.17792	-7.0608	0.9266370589686652	60.93000000000001
10151	0	1110056	1271	-1	-25	69	-16	24	1271	-1	-25	69	-16	24	-28669	-32765	-4886	-28669	-32765	-4886	80	-272	-192	61.34	0.9269676782630152	60.51	0.9261978781149766	3520.870361328125	-11748.560546875	622.7999877929688	1	12	0.6000000238418579	5.422500133514404	15	0	0.0	0.0	0.0	0.0	-0.1925823134314822	0.0	0.0	-0.7388668420325281	0.1794616949999999	-0.0071784677999999	9.1238325738	0.1471039652824401	-0.6843513250350952	0.1441298425197601	0.6994643807411194	6	35.34783935546875	-117.80934244791666	9.1238325738	-0.0071784678	-0.179461695	0.4953142782	-0.1148554848	0.1722832272	0.08429940256799999	-0.019547687552	0.029321531328	-35.025790901768	-40.02999891508	-5.969375086192	0.7371800000000001	-0.00058	-0.0145	-16.62802	-19.0037	-2.83388	4.809573426	-0.061016976300000005	-0.0035892339000000023	-17.4707457496	-20.024773301316	-2.970026777432	-7.9454199999999995	-9.502139999999999	-1.42419	2.3536	-8.00224	-5.64864	0.9265827781889959	60.925
10152	0	1110161	1271	9	-19	70	-18	23	1271	9	-19	70	-18	23	-28670	-32765	-4891	-28670	-32765	-4891	32	-288	-160	61.34	0.9269183320996792	60.51	0.9262570935109796	3520.870361328125	-11748.560546875	622.7999877929688	1	12	0.6000000238418579	5.421249866485596	15	0	0.0	0.0	0.0	0.0	-0.1875470197265382	0.0	0.0	-0.7251740496554399	0.1363908881999999	0.0646062102	9.1238325738	0.1471759378910064	-0.6843477487564087	0.1441870033740997	0.6994408369064331	6	35.34783935546875	-117.80934244791666	9.1238325738	0.0646062102	-0.1363908882	0.502492746	-0.1292124204	0.1651047594	0.08552113303999999	-0.021991148496	0.028099800855999998	-35.027012632239995	-40.02999891508	-5.975483738552	0.7371800000000001	0.00522	-0.01102	-16.6286	-19.0037	-2.83678	4.8131626599	-0.0323031051	0.014356935599999995	-17.4707457496	-20.025995031788	-2.9736919688479997	-7.945709999999999	-9.499239999999999	-1.4239	0.94144	-8.47296	-4.7072	0.9265877128053295	60.925
10153	0	1110268	1265	8	-19	71	-16	22	1265	8	-19	71	-16	22	-28670	-32765	-4891	-28670	-32765	-4891	96	-272	-160	61.35	0.9269282013323464	60.51	0.9261287934863064	3520.870361328125	-11748.560546875	622.7999877929688	1	12	0.6000000238418579	5.414999961853027	15	0	0.0	0.0	0.0	0.0	-0.1740225619330611	0.0	0.0	-0.7060956807924934	0.1363908881999999	0.0574277423999999	9.080761766999998	0.1473382413387298	-0.6843122839927673	0.1443378180265426	0.6994102597236633	6	35.34783935546875	-117.80934244791666	9.080761767	0.0574277424	-0.1363908882	0.5096712138	-0.1148554848	0.15792629160000002	0.086742863512	-0.019547687552	0.026878070384	-35.027012632239995	-40.02999891508	-5.975483738552	0.7337	0.00464	-0.01102	-16.6286	-19.0037	-2.83678	4.7952164904000005	-0.0287138712	0.010767701700000007	-17.470134884363997	-20.024773301316	-2.974302834084	-7.947449999999999	-9.49953	-1.4239	2.82432	-8.00224	-4.7072	0.9265284974093264	60.93
10154	0	1110373	1266	7	-19	73	-14	24	1266	7	-19	73	-14	24	-28666	-32765	-4892	-28666	-32765	-4892	112	-272	-144	61.34	0.9270762398223538	60.51	0.9260794473229708	3520.870361328125	-11748.560546875	622.7999877929688	1	12	0.6000000238418579	5.421249866485596	15	0	0.0	0.0	0.0	0.0	-0.1656594692360777	0.0	0.0	-0.6927503955552278	0.1363908881999999	0.0502492746	9.0879402348	0.1473955065011978	-0.6842519044876099	0.1444420516490936	0.699435830116272	6	35.34783935546875	-117.80934244791666	9.0879402348	0.050249274600000005	-0.1363908882	0.5240281494	-0.10049854920000001	0.1722832272	0.089186324456	-0.017104226607999998	0.029321531328	-35.022125710352	-40.02999891508	-5.976705469024	0.73428	0.00406	-0.01102	-16.62628	-19.0037	-2.83736	4.8059841920999995	-0.025124637300000002	0.017946169499999998	-17.466469692948	-20.023551570844	-2.973691968848	-7.946000000000001	-9.49982	-1.4241899999999998	3.29504	-8.00224	-4.23648	0.9265778435726623	60.925
10155	0	1110478	1268	10	-21	66	-13	22	1270	7	-21	66	-13	24	-28666	-32765	-4892	-28666	-32765	-4892	64	-208	-208	61.34	0.927026893659018	60.51	0.9262570935109796	3520.870361328125	-11748.560546875	622.7999877929688	1	12	0.6000000238418579	5.413750171661377	15	0	0.0	0.0	0.0	0.0	-0.2273751483032988	0.0	0.0	-0.7543494188323188	0.1507478237999999	0.0610169763	9.1094756382	0.1474778652191162	-0.6841588020324707	0.1444308757781982	0.6995118260383606	6	35.34783935546875	-117.80934244791666	9.1022971704	0.071784678	-0.1507478238	0.4737788748	-0.0933200814	0.1722832272	0.080634211152	-0.015882496136	0.026878070384	-35.022125710352	-40.02999891508	-5.976705469024	0.7366	0.00406	-0.01218	-16.62628	-19.0037	-2.83736	4.7880380226	-0.0107677017	0.010767701699999993	-17.4707457496	-20.022940705608	-2.97491369932	-7.944840000000001	-9.49982	-1.4247699999999999	1.88288	-6.11936	-6.11936	0.9266419935849988	60.925
10156	0	1110584	1267	4	-12	67	-15	23	1267	4	-12	67	-15	23	-28654	-32765	-4885	-28654	-32765	-4885	96	-240	-208	61.35	0.9269874167283494	60.51	0.9261978781149766	3520.870361328125	-11748.560546875	622.7999877929688	1	12	0.6000000238418579	5.421249866485596	15	0	0.0	0.0	0.0	0.0	-0.198110606919195	0.0	0.0	-0.7137990919216873	0.0861416136	0.0287138711999999	9.0951187026	0.1474632024765014	-0.6840730905532837	0.1444868743419647	0.6995871663093567	6	35.34783935546875	-117.80934244791666	9.0951187026	0.0287138712	-0.0861416136	0.4809573426	-0.107677017	0.1651047594	0.08185594162399999	-0.01832595708	0.028099800855999998	-35.007464944687996	-40.02999891508	-5.968153355719999	0.73486	0.00232	-0.00696	-16.619320000000002	-19.0037	-2.8333	4.7880380226	-0.0394815729	0.0394815729	-17.462804501532	-20.02416243608	-2.9700267774319995	-7.942230000000001	-9.500689999999999	-1.42013	2.82432	-7.0608	-6.11936	0.926592647421663	60.93
10157	0	1110690	1269	0	-17	66	-16	22	1269	0	-17	66	-16	22	-28654	-32765	-4885	-28654	-32765	-4885	64	-240	-192	61.34	0.927026893659018	60.51	0.9261978781149766	3520.870361328125	-11748.560546875	622.7999877929688	1	12	0.6000000238418579	5.414999961853027	15	0	0.0	0.0	0.0	0.0	-0.2226702177316721	0.0	0.0	-0.7314552107097652	0.1220339526	0.0	9.1094756382	0.1475147157907486	-0.6840202212333679	0.1445200741291046	0.6996210813522339	6	35.34783935546875	-117.80934244791666	9.109475638200001	0.0	-0.12203395260000001	0.4737788748	-0.1148554848	0.15792629160000002	0.080634211152	-0.019547687552	0.026878070384	-35.007464944687996	-40.02999891508	-5.968153355719999	0.73602	0.0	-0.00986	-16.619320000000002	-19.0037	-2.8333	4.791627256500001	-0.0574277424	0.017946169500000005	-17.463415366767997	-20.024773301316	-2.9706376426679997	-7.941650000000001	-9.50185	-1.42158	1.88288	-7.0608	-5.64864	0.9266123858869972	60.925
10158	0	1110797	1266	7	-16	69	-13	23	1266	7	-16	69	-13	23	-28664	-32765	-4880	-28664	-32765	-4880	128	-240	-192	61.34	0.9271354552183568	60.51	0.9262570935109796	3520.870361328125	-11748.560546875	622.7999877929688	1	12	0.6000000238418579	5.421249866485596	15	0	0.0	0.0	0.0	0.0	-0.2287882082768432	0.0	0.0	-0.7307709452170551	0.1148554847999999	0.0502492746	9.0879402348	0.1430731415748596	-0.6884563565254211	0.1413070261478424	0.696843147277832	6	35.34783935546875	-117.80934244791666	9.0879402348	0.050249274600000005	-0.1148554848	0.4953142782	-0.0933200814	0.1651047594	0.08429940256799999	-0.015882496136	0.028099800855999998	-35.019682249408	-40.02999891508	-5.962044703359999	0.73428	0.00406	-0.00928	-16.62512	-19.0037	-2.8304	4.7916272565	-0.0215354034	0.025124637299999995	-17.46769142342	-20.022940705608	-2.9669724512519995	-7.9454199999999995	-9.49982	-1.41984	3.76576	-7.0608	-5.64864	0.9266962743646683	60.925
10159	0	1110902	1270	3	-21	69	-17	24	1270	3	-21	69	-17	24	-28664	-32765	-4880	-28664	-32765	-4880	112	-224	-224	61.34	0.9269183320996792	60.51	0.9262570935109796	3520.870361328125	-11748.560546875	622.7999877929688	1	12	0.6000000238418579	5.421249866485596	15	0	0.0	0.0	0.0	0.0	-0.1871345868251684	0.0	0.0	-0.6814346032971584	0.1507478237999999	0.0215354034	9.116654106	0.1430994421243667	-0.688383162021637	0.1413467973470688	0.6969019770622253	6	35.34783935546875	-117.80934244791666	9.116654106	0.0215354034	-0.1507478238	0.4953142782	-0.12203395260000001	0.1722832272	0.08429940256799999	-0.020769418023999998	0.029321531328	-35.019682249408	-40.02999891508	-5.962044703359999	0.7366	0.00174	-0.01218	-16.62512	-19.0037	-2.8304	4.8059841921	-0.050249274600000005	0.010767701699999993	-17.46769142342	-20.025384166552	-2.9663615860159998	-7.94426	-9.500979999999998	-1.42129	3.29504	-6.59008	-6.59008	0.9265877128053295	60.925
10160	0	1111008	1275	0	-14	70	-15	22	1275	0	-14	70	-15	22	-28647	-32765	-4902	-28647	-32765	-4902	144	-288	-176	61.34	0.9270663705896868	60.51	0.9263261781396496	3520.870361328125	-11748.560546875	622.7999877929688	1	12	0.6000000238418579	5.423749923706055	15	0	0.0	0.0	0.0	0.0	-0.2679476466355698	0.0	0.0	-0.7648239946903482	0.1004985492	0.0	9.152546445	0.1431463062763214	-0.6883788108825684	0.1413657665252685	0.6968926787376404	6	35.34783935546875	-117.80934244791666	9.152546445	0.0	-0.10049854920000001	0.502492746	-0.107677017	0.15792629160000002	0.08552113303999999	-0.01832595708	0.026878070384	-34.998912831384	-40.02999891508	-5.988922773744	0.7395	0.0	-0.00812	-16.61526	-19.0037	-2.84316	4.8275195955	-0.0538385085	0.028713871200000005	-17.456695849172	-20.02416243608	-2.98102235168	-7.93788	-9.50185	-1.42564	4.23648	-8.47296	-5.17792	0.9266962743646682	60.925
10161	0	1111113	1269	2	-14	70	-16	24	1269	2	-14	70	-16	24	-28647	-32765	-4902	-28647	-32765	-4902	48	-240	-208	61.34	0.9269183320996792	60.51	0.9261978781149766	3520.870361328125	-11748.560546875	622.7999877929688	1	12	0.6000000238418579	5.422500133514404	15	0	0.0	0.0	0.0	0.0	-0.3318051544991392	0.0	0.0	-0.8162560837681261	0.1004985492	0.0143569355999999	9.1094756382	0.1431828439235687	-0.688386857509613	0.141452670097351	0.6968597173690796	6	35.34783935546875	-117.80934244791666	9.109475638200001	0.0143569356	-0.10049854920000001	0.502492746	-0.1148554848	0.1722832272	0.08552113303999999	-0.019547687552	0.029321531328	-34.998912831384	-40.02999891508	-5.988922773744	0.73602	0.00116	-0.00812	-16.61526	-19.0037	-2.84316	4.8059841921	-0.050249274600000005	0.035892338999999995	-17.456695849172	-20.024773301316	-2.979800621208	-7.93962	-9.50127	-1.42564	1.41216	-7.0608	-6.11936	0.926558105107328	60.925
10162	0	1111220	1271	11	-16	68	-14	22	1271	11	-16	68	-14	22	-28644	-32765	-4904	-28644	-32765	-4904	48	-240	-208	61.34	0.927026893659018	60.52	0.9261485319516408	3520.870361328125	-11748.560546875	622.7999877929688	1	12	0.6000000238418579	5.414999961853027	15	0	0.0	0.0	0.0	0.0	-0.2471610606349351	0.0	0.0	-0.7126451403470183	0.1148554847999999	0.0789631458	9.1238325738	0.1432006955146789	-0.6883220076560974	0.1414562761783599	0.696919322013855	6	35.34783935546875	-117.80934244791666	9.1238325738	0.07896314580000001	-0.1148554848	0.48813581040000004	-0.10049854920000001	0.15792629160000002	0.08307767209599999	-0.017104226607999998	0.026878070384	-34.995247639968	-40.02999891508	-5.991366234688	0.7371800000000001	0.00638	-0.00928	-16.61352	-19.0037	-2.84432	4.8059841920999995	-0.0107677017	0.021535403400000007	-17.456084983935998	-20.023551570844	-2.982244082152	-7.93817	-9.49866	-1.4268	1.41216	-7.0608	-6.11936	0.9265877128053295	60.93000000000001
10163	0	1111325	1267	4	-18	67	-19	25	1267	4	-18	67	-19	25	-28644	-32765	-4904	-28644	-32765	-4904	32	-256	-176	61.35	0.9269775474956822	60.52	0.9261485319516408	3520.870361328125	-11748.560546875	622.7999877929688	1	12	0.6000000238418579	5.422500133514404	15	0	0.0	0.0	0.0	0.0	-0.3270915010668972	0.0	0.0	-0.7881748988478459	0.1292124204	0.0287138711999999	9.0951187026	0.143236443400383	-0.6883599758148193	0.1414865255355835	0.696868360042572	6	35.34783935546875	-117.80934244791666	9.0951187026	0.0287138712	-0.1292124204	0.4809573426	-0.1363908882	0.179461695	0.08185594162399999	-0.023212878968	0.0305432618	-34.995247639968	-40.02999891508	-5.991366234688	0.73486	0.00232	-0.01044	-16.61352	-19.0037	-2.84432	4.7880380226	-0.0538385085	0.025124637300000002	-17.456695849172	-20.026605897024	-2.980411486444	-7.939330000000001	-9.500689999999999	-1.42738	0.94144	-7.53152	-5.17792	0.9265630397236615	60.935
10164	0	1111433	1268	0	-14	67	-17	24	1268	0	-14	67	-17	24	-28648	-32765	-4929	-28648	-32765	-4929	96	-208	-208	61.35	0.927086109055021	60.51	0.9261386627189736	3520.870361328125	-11748.560546875	622.7999877929688	1	12	0.6000000238418579	5.414999961853027	15	0	0.0	0.0	0.0	0.0	-0.3308193393260482	0.0	0.0	-0.7765167677318061	0.1004985492	0.0	9.1022971704	0.1432362496852874	-0.6883519887924194	0.1415020376443863	0.696873128414154	6	35.34783935546875	-117.80934244791666	9.1022971704	0.0	-0.10049854920000001	0.4809573426	-0.12203395260000001	0.1722832272	0.08185594162399999	-0.020769418023999998	0.029321531328	-35.000134561856	-40.02999891508	-6.021909496488	0.73544	0.0	-0.00812	-16.61584	-19.0037	-2.85882	4.7916272565	-0.061016976300000005	0.035892338999999995	-17.459139310116	-20.025384166552	-2.99629398258	-7.940199999999999	-9.50185	-1.43347	2.82432	-6.11936	-6.11936	0.9266123858869972	60.93
10165	0	1111538	1269	6	-20	72	-15	26	1269	6	-20	72	-15	26	-28647	-32765	-4866	-28647	-32765	-4866	64	-208	-176	61.35	0.9270466321243525	60.52	0.9262077473476438	3520.870361328125	-11748.560546875	622.7999877929688	1	12	0.6000000238418579	5.422500133514404	15	0	0.0	0.0	0.0	0.0	-0.3766905672614048	0.0	0.0	-0.8093560284235568	0.1435693559999999	0.0430708068	9.1094756382	0.1432488411664962	-0.6883082985877991	0.1415557265281677	0.6969028115272522	6	35.34783935546875	-117.80934244791666	9.109475638200001	0.0430708068	-0.143569356	0.5168496816	-0.107677017	0.1866401628	0.087964593984	-0.01832595708	0.031764992272	-34.998912831384	-40.02999891508	-5.9449404767519995	0.73602	0.00348	-0.0116	-16.61526	-19.0037	-2.82228	4.813162659900001	-0.0323031051	0.0215354034	-17.4554741187	-20.02416243608	-2.95658774224	-7.93962	-9.50011	-1.41694	1.88288	-6.11936	-5.17792	0.9266271897359981	60.935
10166	0	1111643	1269	4	-14	66	-15	24	1269	4	-14	66	-15	24	-28647	-32765	-4866	-28647	-32765	-4866	80	-288	-224	61.35	0.9269775474956822	60.51	0.9261287934863064	3520.870361328125	-11748.560546875	622.7999877929688	1	12	0.6000000238418579	5.414999961853027	15	0	0.0	0.0	0.0	0.0	-0.3056523901940003	0.0	0.0	-0.7177988930004197	0.1004985492	0.0287138711999999	9.1094756382	0.1433260887861251	-0.6882744431495667	0.1415822654962539	0.6969149708747864	6	35.34783935546875	-117.80934244791666	9.109475638200001	0.0287138712	-0.10049854920000001	0.4737788748	-0.107677017	0.1722832272	0.080634211152	-0.01832595708	0.029321531328	-34.998912831384	-40.02999891508	-5.9449404767519995	0.73602	0.00232	-0.00812	-16.61526	-19.0037	-2.82228	4.791627256500001	-0.0394815729	0.035892338999999995	-17.459139310115997	-20.02416243608	-2.957809472712	-7.93962	-9.500689999999999	-1.4152	2.3536	-8.47296	-6.59008	0.9265531704909943	60.93
10167	0	1111749	1264	2	-17	71	-15	23	1264	2	-17	71	-15	23	-28628	-32765	-4895	-28628	-32765	-4895	128	-240	-240	61.34	0.927026893659018	60.52	0.926158401184308	3520.870361328125	-11748.560546875	622.7999877929688	1	12	0.6000000238418579	5.422500133514404	15	0	0.0	0.0	0.0	0.0	-0.3307166883951342	0.0	0.0	-0.7357507800696015	0.1220339526	0.0143569355999999	9.0735832992	0.1433914899826049	-0.6883264183998108	0.1416718512773513	0.6968319416046143	6	35.34783935546875	-117.80934244791666	9.073583299200001	0.0143569356	-0.12203395260000001	0.5096712138	-0.107677017	0.1651047594	0.086742863512	-0.01832595708	0.028099800855999998	-34.975699952416	-40.02999891508	-5.980370660439999	0.73312	0.00116	-0.00986	-16.60424	-19.0037	-2.8391	4.791627256500001	-0.0466600407	0.021535403399999993	-17.444478544452	-20.02416243608	-2.9761354297919995	-7.935560000000001	-9.50127	-1.4244800000000002	3.76576	-7.0608	-7.0608	0.926592647421663	60.93000000000001
10168	0	1111855	1271	2	-15	68	-15	22	1271	2	-15	68	-15	22	-28628	-32765	-4895	-28628	-32765	-4895	96	-272	-176	61.35	0.9270466321243525	60.51	0.9261978781149766	3520.870361328125	-11748.560546875	622.7999877929688	1	12	0.6000000238418579	5.414999961853027	15	0	0.0	0.0	0.0	0.0	-0.2755058934964997	0.0	0.0	-0.6709950758105593	0.1076770169999999	0.0143569355999999	9.1238325738	3.0353567126439884e-05	-0.7009438276290894	6.323397246887907e-05	0.7132165431976318	6	35.34783935546875	-117.80934244791666	9.1238325738	0.0143569356	-0.107677017	0.48813581040000004	-0.107677017	0.15792629160000002	0.08307767209599999	-0.01832595708	0.026878070384	-34.975699952416	-40.02999891508	-5.980370660439999	0.7371800000000001	0.00116	-0.0087	-16.60424	-19.0037	-2.8391	4.8059841920999995	-0.0466600407	0.02512463730000001	-17.44631114016	-20.02416243608	-2.9767462950279997	-7.93353	-9.50127	-1.4239000000000002	2.82432	-8.00224	-5.17792	0.9266222551196646	60.93
10169	0	1111961	1269	8	-17	68	-14	25	1269	8	-17	68	-14	25	-28663	-32765	-4877	-28663	-32765	-4877	128	-304	-208	61.35	0.9270466321243525	60.52	0.9262176165803108	3520.870361328125	-11748.560546875	622.7999877929688	1	12	0.6000000238418579	5.422500133514404	15	0	0.0	0.0	0.0	0.0	-0.2543162591142638	0.0	0.0	-0.6502004895701066	0.1220339526	0.0574277423999999	9.1094756382	9.595483425073326e-05	-0.7008530497550964	8.240001079684589e-06	0.7133057713508606	6	35.34783935546875	-117.80934244791666	9.109475638200001	0.0574277424	-0.12203395260000001	0.48813581040000004	-0.10049854920000001	0.179461695	0.08307767209599999	-0.017104226607999998	0.0305432618	-35.018460518935996	-40.02999891508	-5.958379511944	0.73602	0.00464	-0.00986	-16.62454	-19.0037	-2.82866	4.7988057243	-0.021535403400000003	0.028713871199999998	-17.467691423419996	-20.023551570844	-2.963918125072	-7.94426	-9.49953	-1.4192600000000002	3.76576	-8.94368	-6.11936	0.9266321243523317	60.935
10170	0	1112069	1263	8	-19	67	-16	21	1263	8	-19	67	-16	21	-28663	-32765	-4877	-28663	-32765	-4877	112	-240	-176	61.35	0.9270367628916852	60.52	0.9262077473476438	3520.870361328125	-11748.560546875	622.7999877929688	1	12	0.6000000238418579	5.414999961853027	15	0	0.0	0.0	0.0	0.0	-0.2999243714962188	0.0	0.0	-0.6975584178896077	0.1363908881999999	0.0574277423999999	9.0664048314	0.0001039911294355	-0.7008144855499268	3.798018224188127e-05	0.7133436799049377	6	35.34783935546875	-117.80934244791666	9.0664048314	0.0574277424	-0.1363908882	0.4809573426	-0.1148554848	0.1507478238	0.08185594162399999	-0.019547687552	0.025656339912	-35.018460518935996	-40.02999891508	-5.958379511944	0.73254	0.00464	-0.01102	-16.62454	-19.0037	-2.82866	4.773681087	-0.0287138712	0.007178467800000005	-17.468302288655998	-20.024773301316	-2.966361586016	-7.946	-9.49953	-1.41984	3.29504	-7.0608	-5.17792	0.9266222551196646	60.935
10171	0	1112175	1267	8	-15	68	-19	22	1267	8	-15	68	-19	22	-28644	-32765	-4857	-28644	-32765	-4857	128	-288	-224	61.35	0.9270367628916852	60.51	0.9262570935109796	3520.870361328125	-11748.560546875	622.7999877929688	1	12	0.6000000238418579	5.422500133514404	15	0	0.0	0.0	0.0	0.0	-0.3029552148841459	0.0	0.0	-0.6957943830356341	0.1076770169999999	0.0574277423999999	9.0951187026	6.71994494041428e-05	-0.7008412480354309	0.0001264240272575	0.713317334651947	6	35.34783935546875	-117.80934244791666	9.0951187026	0.0574277424	-0.107677017	0.48813581040000004	-0.1363908882	0.15792629160000002	0.08307767209599999	-0.023212878968	0.026878070384	-34.995247639968	-40.02999891508	-5.933944902504	0.73486	0.00464	-0.0087	-16.61352	-19.0037	-2.81706	4.7916272565	-0.0394815729	0.02512463730000001	-17.456084983935998	-20.026605897024	-2.95353341606	-7.939330000000001	-9.49953	-1.4128800000000001	3.76576	-8.47296	-6.59008	0.9266469282013324	60.93
10172	0	1112280	1269	-256	-20	69	-14	25	1269	-2	-15	70	-13	25	-28644	-32765	-4857	-28644	-32765	-4857	128	-304	-240	61.35	0.9269874167283494	60.52	0.9262176165803108	3520.870361328125	-11748.560546875	622.7999877929688	1	12	0.6000000238418579	5.413750171661377	15	0	0.0	0.0	0.0	0.0	-0.328635660245503	0.0	0.0	-0.7193434653201732	0.1256231864999999	-0.9260223462	9.1094756382	8.503667777404189e-05	-0.700825572013855	0.0001657910615904	0.7133327126502991	6	35.34783935546875	-117.80934244791666	9.109475638200001	-1.8376877568	-0.143569356	0.502492746	-0.0933200814	0.179461695	0.08429940256799999	-0.017104226607999998	0.0305432618	-34.995247639968	-40.02999891508	-5.933944902504	0.73602	-0.00116	-0.0087	-16.61352	-19.0037	-2.81706	4.8059841921	-0.9655039191	0.017946169499999998	-17.4554741187	-20.023551570844	-2.951700820352	-7.938750000000001	-9.502429999999999	-1.4128800000000001	3.76576	-8.94368	-7.0608	0.9266025166543301	60.935
10173	0	1112386	1266	9	-15	69	-15	21	1266	9	-15	69	-15	21	-28642	-32765	-4842	-28642	-32765	-4842	0	-224	-272	61.36	0.9268887244016778	60.52	0.9261485319516408	3520.870361328125	-11748.560546875	622.7999877929688	1	12	0.6000000238418579	5.422500133514404	15	0	0.0	0.0	0.0	0.0	-0.2561874367553672	0.0	0.0	-0.6365685592474462	0.1076770169999999	0.0646062102	9.0879402348	4.077919584233314e-05	-0.7008066177368164	0.0001441556232748	0.713351309299469	6	35.34783935546875	-117.80934244791666	9.0879402348	0.0646062102	-0.107677017	0.4953142782	-0.107677017	0.1507478238	0.08429940256799999	-0.01832595708	0.025656339912	-34.992804179024	-40.02999891508	-5.915618945424	0.73428	0.00522	-0.0087	-16.61236	-19.0037	-2.80836	4.7916272565	-0.0215354034	0.021535403400000007	-17.454252388228	-20.02416243608	-2.944981302756	-7.939039999999999	-9.499239999999999	-1.40853	0.0	-6.59008	-8.00224	0.9265186281766593	60.94
10174	0	1112491	1266	7	-13	73	-13	24	1266	7	-13	73	-13	24	-28642	-32765	-4842	-28642	-32765	-4842	32	-272	-240	61.36	0.9269972859610164	60.52	0.9262077473476438	3520.870361328125	-11748.560546875	622.7999877929688	1	12	0.6000000238418579	5.422500133514404	15	0	0.0	0.0	0.0	0.0	-0.2498698971358781	0.0	0.0	-0.6326306260840507	0.0933200813999999	0.0502492746	9.0879402348	8.802728552836925e-05	-0.700761616230011	0.0002124196471413	0.7133955955505371	6	35.34783935546875	-117.80934244791666	9.0879402348	0.050249274600000005	-0.0933200814	0.5240281494	-0.0933200814	0.1722832272	0.089186324456	-0.015882496136	0.029321531328	-34.992804179024	-40.02999891508	-5.915618945424	0.73428	0.00406	-0.00754	-16.61236	-19.0037	-2.80836	4.8059841920999995	-0.0215354034	0.0394815729	-17.451808927284	-20.022940705608	-2.943148707048	-7.939039999999999	-9.49982	-1.40795	0.94144	-8.00224	-7.0608	0.9266025166543301	60.94
10175	0	1112596	1266	2	-11	70	-13	25	1266	2	-11	70	-13	25	-28646	-32765	-4875	-28646	-32765	-4875	32	-272	-240	61.36	0.9269380705650136	60.52	0.9262176165803108	3520.870361328125	-11748.560546875	622.7999877929688	1	12	0.6000000238418579	5.421249866485596	15	0	0.0	0.0	0.0	0.0	-0.2094153061889632	0.0	0.0	-0.5954822867082277	0.0789631458	0.0143569355999999	9.0879402348	0.0001739150029607	-0.7007163763046265	0.0002544230374041	0.7134398818016052	6	35.34783935546875	-117.80934244791666	9.0879402348	0.0143569356	-0.07896314580000001	0.502492746	-0.0933200814	0.179461695	0.08552113303999999	-0.015882496136	0.0305432618	-34.997691100912	-40.02999891508	-5.955936050999999	0.73428	0.00116	-0.00638	-16.61468	-19.0037	-2.8275	4.7952164904	-0.039481572900000005	0.0502492746	-17.456084983936	-20.022940705608	-2.9626963945999996	-7.9402	-9.50127	-1.41694	0.94144	-8.00224	-7.0608	0.9265778435726622	60.94
10176	0	1112702	1265	5	-21	67	-15	24	1265	5	-21	67	-15	24	-28646	-32765	-4875	-28646	-32765	-4875	80	-256	-224	61.35	0.9269874167283494	60.51	0.9263261781396496	3520.870361328125	-11748.560546875	622.7999877929688	1	12	0.6000000238418579	5.422500133514404	15	0	0.0	0.0	0.0	0.0	-0.2636376323130254	0.0	0.0	-0.6599761265767037	0.1507478237999999	0.0358923389999999	9.080761766999998	0.0002145259932149	-0.7007104754447937	0.0003033027751371	0.7134456038475037	6	35.34783935546875	-117.80934244791666	9.080761767	0.035892339	-0.1507478238	0.4809573426	-0.107677017	0.1722832272	0.08185594162399999	-0.01832595708	0.029321531328	-34.997691100912	-40.02999891508	-5.955936050999999	0.7337	0.0029	-0.01218	-16.61468	-19.0037	-2.8275	4.7808595548	-0.035892338999999995	0.010767701699999993	-17.457917579644	-20.02416243608	-2.9633072598359997	-7.94049	-9.500399999999999	-1.41984	2.3536	-7.53152	-6.59008	0.9266567974339994	60.93
10177	0	1112808	1272	13	-21	68	-11	23	1272	13	-21	68	-11	23	-28655	-32765	-4877	-28655	-32765	-4877	96	-208	-176	61.36	0.9269972859610164	60.52	0.9262077473476438	3520.870361328125	-11748.560546875	622.7999877929688	1	12	0.6000000238418579	5.414999961853027	15	0	0.0	0.0	0.0	0.0	-0.2780060204309496	0.0	0.0	-0.674170883344341	0.1507478237999999	0.0933200813999999	9.1310110416	0.1634489446878433	-0.6839170455932617	0.1614646762609481	0.6924384832382202	6	35.34783935546875	-117.80934244791666	9.1310110416	0.0933200814	-0.1507478238	0.48813581040000004	-0.07896314580000001	0.1651047594	0.08307767209599999	-0.013439035192	0.028099800855999998	-35.00868667516	-40.02999891508	-5.958379511944	0.73776	0.00754	-0.01218	-16.6199	-19.0037	-2.82866	4.809573426	0.007178467799999998	0.007178467799999991	-17.462804501532	-20.021718975136	-2.965139855544	-7.941070000000001	-9.49808	-1.42042	2.82432	-6.11936	-5.17792	0.9266025166543301	60.94
10178	0	1112915	1268	0	-17	70	-15	21	1268	0	-17	70	-15	21	-28655	-32765	-4877	-28655	-32765	-4877	64	-272	-176	61.36	0.9271058475203552	60.52	0.9260893165556378	3520.870361328125	-11748.560546875	622.7999877929688	1	12	0.6000000238418579	5.413750171661377	15	0	0.0	0.0	0.0	0.0	-0.2237650337046265	0.0	0.0	-0.6186017344234924	0.1220339526	0.0	9.1022971704	0.1634580790996551	-0.6838932037353516	0.1615887433290481	0.6924310326576233	6	35.34783935546875	-117.80934244791666	9.1022971704	0.0	-0.12203395260000001	0.502492746	-0.107677017	0.1507478238	0.08552113303999999	-0.01832595708	0.025656339912	-35.00868667516	-40.02999891508	-5.958379511944	0.73544	0.0	-0.00986	-16.6199	-19.0037	-2.82866	4.8023949582	-0.0538385085	0.014356935600000002	-17.46158277106	-20.02416243608	-2.966361586016	-7.94223	-9.50185	-1.4192600000000002	1.88288	-8.00224	-5.17792	0.9265975820379965	60.94
10179	0	1113021	1264	8	-17	66	-12	21	1264	8	-17	66	-12	21	-28643	-32765	-4887	-28643	-32765	-4887	80	-288	-208	61.35	0.9269282013323464	60.52	0.9261485319516408	3520.870361328125	-11748.560546875	622.7999877929688	1	12	0.5899999737739563	5.414999961853027	15	0	0.0	0.0	0.0	0.0	-0.188736784660087	0.0	0.0	-0.5871491321950735	0.1220339526	0.0574277423999999	9.0735832992	0.1634299755096435	-0.6838845014572144	0.1615727990865707	0.6924499869346619	6	35.34783935546875	-117.80934244791666	9.073583299200001	0.0574277424	-0.12203395260000001	0.4737788748	-0.0861416136	0.1507478238	0.080634211152	-0.014660765664	0.025656339912	-34.994025909495996	-40.02999891508	-5.970596816664	0.73312	0.00464	-0.00986	-16.612940000000002	-19.0037	-2.83446	4.773681087000001	-0.014356935599999999	0.014356935600000002	-17.456695849171997	-20.022329840372	-2.972470238376	-7.939910000000001	-9.49953	-1.42216	2.3536	-8.47296	-6.11936	0.9265383666419936	60.935
10180	0	1113128	1262	3	-22	67	-17	23	1262	3	-22	67	-17	23	-28643	-32765	-4887	-28643	-32765	-4887	64	-224	-192	61.36	0.9269972859610164	60.52	0.9262176165803108	3520.870361328125	-11748.560546875	622.7999877929688	1	12	0.5899999737739563	5.421249866485596	15	0	0.0	0.0	0.0	0.0	-0.2113463287543491	0.0	0.0	-0.6175629403610394	0.1579262916	0.0215354034	9.0592263636	0.1634257584810257	-0.6838904023170471	0.1616468280553817	0.6924278140068054	6	35.34783935546875	-117.80934244791666	9.0592263636	0.0215354034	-0.15792629160000002	0.4809573426	-0.12203395260000001	0.1651047594	0.08185594162399999	-0.020769418023999998	0.028099800855999998	-34.994025909495996	-40.02999891508	-5.970596816664	0.73196	0.00174	-0.01276	-16.612940000000002	-19.0037	-2.83446	4.7700918531	-0.050249274600000005	0.0035892338999999884	-17.456084983935998	-20.025384166552	-2.971248507904	-7.9404900000000005	-9.500979999999998	-1.42361	1.88288	-6.59008	-5.64864	0.9266074512706636	60.94
10181	0	1113233	1274	4	-16	68	-17	25	1274	4	-16	68	-17	25	-28657	-32765	-4874	-28657	-32765	-4874	128	-288	-224	61.36	0.9269972859610164	60.52	0.9262176165803108	3520.870361328125	-11748.560546875	622.7999877929688	1	12	0.5899999737739563	5.414999961853027	15	0	0.0	0.0	0.0	0.0	-0.1661619636851313	0.0	0.0	-0.5774037335957783	0.1148554847999999	0.0287138711999999	9.1453679772	0.1634819507598877	-0.6838418245315552	0.1617105305194854	0.6924477219581604	6	35.34783935546875	-117.80934244791666	9.145367977200001	0.0287138712	-0.1148554848	0.48813581040000004	-0.12203395260000001	0.179461695	0.08307767209599999	-0.020769418023999998	0.0305432618	-35.011130136104	-40.02999891508	-5.954714320528	0.73892	0.00232	-0.00928	-16.62106	-19.0037	-2.82692	4.8167518938	-0.0466600407	0.0323031051	-17.464026232004	-20.025384166552	-2.962085529364	-7.94107	-9.500689999999999	-1.4181	3.76576	-8.47296	-6.59008	0.9266074512706636	60.94
10182	0	1113340	1262	3	-21	69	-15	24	1262	3	-21	69	-15	24	-28657	-32765	-4874	-28657	-32765	-4874	64	-240	-208	61.35	0.9269874167283494	60.52	0.9261485319516408	3520.870361328125	-11748.560546875	622.7999877929688	1	12	0.5899999737739563	5.422500133514404	15	0	0.0	0.0	0.0	0.0	-0.1297343449988762	0.0	0.0	-0.5482044180783368	0.1507478237999999	0.0215354034	9.0592263636	0.1634318977594375	-0.6838246583938599	0.1616913974285125	0.6924808621406555	6	35.34783935546875	-117.80934244791666	9.0592263636	0.0215354034	-0.1507478238	0.4953142782	-0.107677017	0.1722832272	0.08429940256799999	-0.01832595708	0.029321531328	-35.011130136104	-40.02999891508	-5.954714320528	0.73196	0.00174	-0.01218	-16.62106	-19.0037	-2.82692	4.7772703209000005	-0.0430708068	0.010767701699999993	-17.463415366768	-20.02416243608	-2.9626963946	-7.94455	-9.500979999999998	-1.4195499999999999	1.88288	-7.0608	-6.11936	0.926567974339995	60.935
10183	0	1113445	1271	2	-19	68	-15	24	1271	2	-19	68	-15	24	-28656	-32765	-4894	-28656	-32765	-4894	64	-304	-192	61.36	0.9270071551936836	60.52	0.926039970392302	3520.870361328125	-11748.560546875	622.7999877929688	1	12	0.5899999737739563	5.422500133514404	15	0	0.0	0.0	0.0	0.0	-0.1639335219977511	0.0	0.0	-0.5933753049966117	0.1363908881999999	0.0143569355999999	9.1238325738	0.1635191738605499	-0.6837385296821594	0.1617489606142044	0.692531943321228	6	35.34783935546875	-117.80934244791666	9.1238325738	0.0143569356	-0.1363908882	0.48813581040000004	-0.107677017	0.1722832272	0.08307767209599999	-0.01832595708	0.029321531328	-35.009908405632	-40.02999891508	-5.979148929968	0.7371800000000001	0.00116	-0.01102	-16.62048	-19.0037	-2.83852	4.8059841920999995	-0.0466600407	0.017946169499999998	-17.463415366767997	-20.02416243608	-2.97491369932	-7.94165	-9.50127	-1.4247699999999999	1.88288	-8.94368	-5.64864	0.9265235627929929	60.94
10184	0	1113550	1269	5	-24	72	-17	25	1269	5	-24	72	-17	25	-28656	-32765	-4894	-28656	-32765	-4894	128	-240	-240	61.36	0.9270071551936836	60.52	0.926158401184308	3520.870361328125	-11748.560546875	622.7999877929688	1	12	0.5899999737739563	5.422500133514404	15	0	0.0	0.0	0.0	0.0	-0.1525604059121473	0.0	0.0	-0.5900427086305656	0.1722832272	0.0358923389999999	9.1094756382	0.1635066717863083	-0.6837394833564758	0.1617425680160522	0.6925354599952698	6	35.34783935546875	-117.80934244791666	9.109475638200001	0.035892339	-0.1722832272	0.5168496816	-0.12203395260000001	0.179461695	0.087964593984	-0.020769418023999998	0.0305432618	-35.009908405632	-40.02999891508	-5.979148929968	0.73602	0.0029	-0.01392	-16.62048	-19.0037	-2.83852	4.813162659900001	-0.0430708068	0.0035892339000000023	-17.460971905824	-20.025384166552	-2.974302834084	-7.94223	-9.500399999999999	-1.42622	3.76576	-7.0608	-7.0608	0.9265827781889958	60.94
10185	0	1113656	1267	2	-21	67	-18	23	1267	2	-21	67	-18	23	-28646	-32765	-4860	-28646	-32765	-4860	-16	-224	-160	61.36	0.9270565013570194	60.52	0.926158401184308	3520.870361328125	-11748.560546875	622.7999877929688	1	12	0.5899999737739563	5.422500133514404	15	0	0.0	0.0	0.0	0.0	-0.1842824609716458	0.0	0.0	-0.6269629486071767	0.1507478237999999	0.0143569355999999	9.0951187026	0.1634471118450164	-0.6837381720542908	0.1617457270622253	0.6925500631332397	6	35.34783935546875	-117.80934244791666	9.0951187026	0.0143569356	-0.1507478238	0.4809573426	-0.1292124204	0.1651047594	0.08185594162399999	-0.021991148496	0.028099800855999998	-34.997691100912	-40.02999891508	-5.93761009392	0.73486	0.00116	-0.01218	-16.61468	-19.0037	-2.8188	4.7880380226	-0.0574277424	0.007178467799999991	-17.457917579644	-20.025995031788	-2.954755146532	-7.93991	-9.50127	-1.41549	-0.47072	-6.59008	-4.7072	0.9266074512706637	60.94
10186	0	1113762	1270	2	-16	68	-18	25	1270	2	-16	68	-18	25	-28669	-32765	-4860	-28669	-32765	-4860	80	-256	-256	61.36	0.9268887244016778	60.52	0.926099185788305	3520.870361328125	-11748.560546875	622.7999877929688	1	12	0.5899999737739563	5.414999961853027	15	0	0.0	0.0	0.0	0.0	-0.1675036645876602	0.0	0.0	-0.611488404073366	0.1148554847999999	0.0143569355999999	9.116654106	0.1634454876184463	-0.6837566494941711	0.1617537140846252	0.6925302147865295	6	35.34783935546875	-117.80934244791666	9.116654106	0.0143569356	-0.1148554848	0.48813581040000004	-0.1292124204	0.179461695	0.08307767209599999	-0.021991148496	0.0305432618	-35.025790901768	-40.02999891508	-5.93761009392	0.7366	0.00116	-0.00928	-16.62802	-19.0037	-2.8188	4.8023949582	-0.0574277424	0.0323031051	-17.471356614835997	-20.025995031788	-2.95353341606	-7.94571	-9.50127	-1.41404	2.3536	-7.53152	-7.53152	0.9264939550949913	60.94
10187	0	1113868	1254	6	-18	70	-16	22	1254	6	-18	70	-16	22	-28669	-32765	-4860	-28669	-32765	-4860	96	-336	-176	61.36	0.9270466321243525	60.52	0.926227485812978	3520.870361328125	-11748.560546875	622.7999877929688	1	12	0.5899999737739563	5.416250228881836	15	0	0.0	0.0	0.0	0.0	-0.2020297476014776	0.0	0.0	-0.6492071546735977	0.1292124204	0.0430708068	9.001798621199999	0.0394527167081832	-0.7009816765785217	0.0388537757098674	0.7110264897346497	6	35.34783935546875	-117.80934244791666	9.0017986212	0.0430708068	-0.1292124204	0.502492746	-0.1148554848	0.15792629160000002	0.08552113303999999	-0.019547687552	0.026878070384	-35.025790901768	-40.02999891508	-5.93761009392	0.72732	0.00348	-0.01044	-16.62802	-19.0037	-2.8188	4.7521456836	-0.035892339	0.01435693560000001	-17.470134884364	-20.024773301316	-2.955366011768	-7.950349999999999	-9.50011	-1.41462	2.82432	-9.88512	-5.17792	0.9266370589686652	60.94
10188	0	1113973	1269	8	-22	72	-16	21	1269	8	-22	72	-16	21	-28636	-32765	-4876	-28636	-32765	-4876	112	-272	-208	61.36	0.9269380705650136	60.52	0.926227485812978	3520.870361328125	-11748.560546875	622.7999877929688	1	12	0.5899999737739563	5.422500133514404	15	0	0.0	0.0	0.0	0.0	-0.1401436489596599	0.0	0.0	-0.5870868405047758	0.1579262916	0.0574277423999999	9.1094756382	0.0395086333155632	-0.7009702920913696	0.0389573536813259	0.7110288739204407	6	35.34783935546875	-117.80934244791666	9.109475638200001	0.0574277424	-0.15792629160000002	0.5168496816	-0.1148554848	0.1507478238	0.087964593984	-0.019547687552	0.025656339912	-34.985473796192	-40.02999891508	-5.957157781472	0.73602	0.00464	-0.01276	-16.60888	-19.0037	-2.82808	4.813162659900001	-0.0287138712	-0.0035892339000000023	-17.448754601104	-20.024773301316	-2.96575072078	-7.93643	-9.49953	-1.42042	3.29504	-8.00224	-6.11936	0.9265827781889958	60.94
10189	0	1114080	1274	0	-19	69	-14	24	1274	0	-19	69	-14	24	-28636	-32765	-4876	-28636	-32765	-4876	128	-272	-192	61.36	0.9269380705650136	60.52	0.9262176165803108	3520.870361328125	-11748.560546875	622.7999877929688	1	12	0.5899999737739563	5.416250228881836	15	0	0.0	0.0	0.0	0.0	-0.0892998889347477	0.0	0.0	-0.5442393864500218	0.1363908881999999	0.0	9.1453679772	0.039530724287033	-0.7009347081184387	0.0390561409294605	0.7110573053359985	6	35.34783935546875	-117.80934244791666	9.145367977200001	0.0	-0.1363908882	0.4953142782	-0.10049854920000001	0.1722832272	0.08429940256799999	-0.017104226607999998	0.029321531328	-34.985473796192	-40.02999891508	-5.957157781472	0.73892	0.0	-0.01102	-16.60888	-19.0037	-2.82808	4.820341127700001	-0.050249274600000005	0.017946169499999998	-17.450587196812	-20.023551570844	-2.963918125072	-7.9349799999999995	-9.50185	-1.4195499999999999	3.76576	-8.00224	-5.64864	0.9265778435726622	60.94
10190	0	1114185	1267	1	-14	69	-14	25	1267	1	-14	69	-14	25	-28629	-32765	-4862	-28629	-32765	-4862	96	-240	-192	61.36	0.9271157167530224	60.52	0.926099185788305	3520.870361328125	-11748.560546875	622.7999877929688	1	12	0.5899999737739563	5.422500133514404	15	0	0.0	0.0	0.0	0.0	-0.1539794624911169	0.0	0.0	-0.62629342878675	0.1004985492	0.0071784677999999	9.0951187026	0.0395984053611755	-0.7009095549583435	0.0390956625342369	0.7110762000083923	6	35.34783935546875	-117.80934244791666	9.0951187026	0.0071784678	-0.10049854920000001	0.4953142782	-0.10049854920000001	0.179461695	0.08429940256799999	-0.017104226607999998	0.0305432618	-34.976921682888	-40.02999891508	-5.940053554864	0.73486	0.00058	-0.00812	-16.60482	-19.0037	-2.81996	4.7952164904000005	-0.0466600407	0.0394815729	-17.44631114016	-20.023551570844	-2.954755146532	-7.93498	-9.50156	-1.41404	2.82432	-7.0608	-5.64864	0.9266074512706637	60.94
10191	0	1114291	1273	8	-24	69	-14	24	1273	8	-24	69	-14	24	-28629	-32765	-4862	-28629	-32765	-4862	48	-224	-176	61.36	0.9269479397976808	60.52	0.926158401184308	3520.870361328125	-11748.560546875	622.7999877929688	1	12	0.5899999737739563	5.423749923706055	15	0	0.0	0.0	0.0	0.0	-0.1665066602204035	0.0	0.0	-0.6395760639937609	0.1722832272	0.0574277423999999	9.1381895094	0.0396525152027606	-0.7008721232414246	0.0391489379107952	0.7111071348190308	6	35.34783935546875	-117.80934244791666	9.1381895094	0.0574277424	-0.1722832272	0.4953142782	-0.10049854920000001	0.1722832272	0.08429940256799999	-0.017104226607999998	0.029321531328	-34.976921682888	-40.02999891508	-5.940053554864	0.73834	0.00464	-0.01392	-16.60482	-19.0037	-2.81996	4.8167518938	-0.021535403400000003	0.0	-17.44631114016	-20.023551570844	-2.955366011768	-7.93324	-9.49953	-1.41694	1.41216	-6.59008	-5.17792	0.9265531704909944	60.94
10192	0	1114396	1264	5	-19	69	-18	24	1264	5	-19	70	-17	24	-28624	-32765	-4837	-28624	-32765	-4837	96	-272	-192	61.36	0.9271058475203552	60.53	0.926168270416975	3520.870361328125	-11748.560546875	622.7999877929688	1	12	0.5899999737739563	5.421249866485596	15	0	0.0	0.0	0.0	0.0	-0.2420692176853928	0.0	0.0	-0.7178624311619553	0.1363908881999999	0.0358923389999999	9.0735832992	0.0397169329226017	-0.700843870639801	0.0392112955451011	0.7111279964447021	6	35.34783935546875	-117.80934244791666	9.073583299200001	0.035892339	-0.1363908882	0.502492746	-0.12203395260000001	0.1722832272	0.08429940256799999	-0.021991148496	0.029321531328	-34.970813030528	-40.02999891508	-5.909510293064	0.73312	0.0029	-0.01102	-16.60192	-19.0037	-2.80546	4.7880380226	-0.0430708068	0.017946169499999998	-17.44325681398	-20.025995031788	-2.940094380868	-7.9344	-9.500399999999999	-1.40824	2.82432	-8.00224	-5.64864	0.9266370589686651	60.945
10193	0	1114501	1271	0	-15	67	-15	23	1271	0	-15	67	-15	23	-28624	-32765	-4837	-28624	-32765	-4837	64	-256	-208	61.37	0.9270170244263508	60.52	0.9262176165803108	3520.870361328125	-11748.560546875	622.7999877929688	1	12	0.5899999737739563	5.422500133514404	15	0	0.0	0.0	0.0	0.0	-0.1971078175105199	0.0	0.0	-0.6671137336786147	0.1076770169999999	0.0	9.1238325738	0.0396671704947948	-0.7008056044578552	0.0392656847834587	0.7111654281616211	6	35.34783935546875	-117.80934244791666	9.1238325738	0.0	-0.107677017	0.4809573426	-0.107677017	0.1651047594	0.08185594162399999	-0.01832595708	0.028099800855999998	-34.970813030528	-40.02999891508	-5.909510293064	0.7371800000000001	0.0	-0.0087	-16.60192	-19.0037	-2.80546	4.8023949582	-0.0538385085	0.028713871199999998	-17.444478544452	-20.02416243608	-2.9407052461039997	-7.93237	-9.50185	-1.40708	1.88288	-7.53152	-6.11936	0.9266173205033308	60.945
10194	0	1114607	1273	2	-15	70	-15	22	1273	2	-15	70	-15	22	-28630	-32765	-4826	-28630	-32765	-4826	64	-208	-208	61.36	0.9270565013570194	60.53	0.926227485812978	3520.870361328125	-11748.560546875	622.7999877929688	1	12	0.5899999737739563	5.422500133514404	15	0	0.0	0.0	0.0	0.0	-0.2200073059885291	0.0	0.0	-0.690148264382302	0.1076770169999999	0.0143569355999999	9.1381895094	0.0397756583988666	-0.7006996870040894	0.0392898246645927	0.7112624645233154	6	35.34783935546875	-117.80934244791666	9.1381895094	0.0143569356	-0.107677017	0.502492746	-0.107677017	0.15792629160000002	0.08552113303999999	-0.01832595708	0.026878070384	-34.97814341336	-40.02999891508	-5.896071257871999	0.73834	0.00116	-0.0087	-16.6054	-19.0037	-2.79908	4.8203411277	-0.0466600407	0.02512463730000001	-17.446311140160002	-20.02416243608	-2.9345965937439997	-7.933529999999999	-9.50127	-1.40389	1.88288	-6.11936	-6.11936	0.9266419935849988	60.945
10195	0	1114713	1268	6	-19	69	-15	26	1268	6	-19	69	-15	26	-28630	-32765	-4826	-28630	-32765	-4826	128	-288	-208	61.37	0.926908462867012	60.52	0.926099185788305	3520.870361328125	-11748.560546875	622.7999877929688	1	12	0.5899999737739563	5.414999961853027	15	0	0.0	0.0	0.0	0.0	-0.1543629854977049	0.0	0.0	-0.618252671950511	0.1363908881999999	0.0430708068	9.1022971704	0.0398361906409263	-0.700661838054657	0.0393365733325481	0.7112938165664673	6	35.34783935546875	-117.80934244791666	9.1022971704	0.0430708068	-0.1363908882	0.4953142782	-0.107677017	0.1866401628	0.08429940256799999	-0.01832595708	0.031764992272	-34.97814341336	-40.02999891508	-5.896071257871999	0.73544	0.00348	-0.01102	-16.6054	-19.0037	-2.79908	4.7988057243	-0.0323031051	0.025124637300000002	-17.446922005396	-20.02416243608	-2.9321531328	-7.9349799999999995	-9.50011	-1.40505	3.76576	-8.47296	-6.11936	0.9265038243276584	60.945
10196	0	1114819	1266	6	-20	71	-16	24	1266	6	-20	71	-16	24	-28625	-32765	-4904	-28625	-32765	-4904	48	-208	-176	61.36	0.9270565013570194	60.52	0.9263360473723168	3520.870361328125	-11748.560546875	622.7999877929688	1	12	0.5899999737739563	5.413750171661377	15	0	0.0	0.0	0.0	0.0	-0.2176098096932432	0.0	0.0	-0.6918281685300206	0.1435693559999999	0.0430708068	9.0879402348	0.0178139489144086	-0.7012407183647156	0.0175539869815111	0.7124857902526855	6	35.34783935546875	-117.80934244791666	9.0879402348	0.0430708068	-0.143569356	0.5096712138	-0.1148554848	0.1722832272	0.086742863512	-0.019547687552	0.029321531328	-34.972034760999996	-40.02999891508	-5.991366234688	0.73428	0.00348	-0.0116	-16.6025	-19.0037	-2.84432	4.7988057243	-0.035892339	0.014356935599999995	-17.442645948743998	-20.024773301316	-2.98102235168	-7.9341099999999996	-9.50011	-1.4279600000000001	1.41216	-6.11936	-5.17792	0.9266962743646681	60.94
10197	0	1114924	1274	-1	-18	69	-18	23	1274	-1	-18	69	-18	23	-28625	-32765	-4904	-28625	-32765	-4904	32	-272	-192	61.36	0.9270565013570194	60.53	0.926296570441648	3520.870361328125	-11748.560546875	622.7999877929688	1	12	0.5899999737739563	5.420000076293945	15	0	0.0	0.0	0.0	0.0	-0.1740561506859039	0.0	0.0	-0.647238209433415	0.1292124204	-0.0071784677999999	9.1453679772	0.0178267713636159	-0.7011979818344116	0.0175879746675491	0.7125267386436462	6	35.34783935546875	-117.80934244791666	9.145367977200001	-0.0071784678	-0.1292124204	0.4953142782	-0.1292124204	0.1651047594	0.08429940256799999	-0.021991148496	0.028099800855999998	-34.972034760999996	-40.02999891508	-5.991366234688	0.73892	-0.00058	-0.01044	-16.6025	-19.0037	-2.84432	4.820341127700001	-0.0681954441	0.017946169499999998	-17.443867679215998	-20.025995031788	-2.981633216916	-7.9317899999999995	-9.502139999999999	-1.42738	0.94144	-8.00224	-5.64864	0.9266765358993337	60.945
10198	0	1115030	1268	6	-21	66	-16	25	1268	6	-21	66	-16	25	-28627	-32765	-4857	-28627	-32765	-4857	80	-240	-256	61.36	0.9269479397976808	60.53	0.926109055020972	3520.870361328125	-11748.560546875	622.7999877929688	1	12	0.5899999737739563	5.416250228881836	15	0	0.0	0.0	0.0	0.0	-0.1717358610238282	0.0	0.0	-0.6441939324237828	0.1507478237999999	0.0430708068	9.1022971704	0.0178449433296918	-0.701233446598053	0.0176426377147436	0.7124899625778198	6	35.34783935546875	-117.80934244791666	9.1022971704	0.0430708068	-0.1507478238	0.4737788748	-0.1148554848	0.179461695	0.080634211152	-0.019547687552	0.0305432618	-34.974478221944	-40.02999891508	-5.933944902504	0.73544	0.00348	-0.01218	-16.60366	-19.0037	-2.81706	4.7880380226	-0.035892339	0.014356935599999995	-17.446922005395997	-20.024773301316	-2.951700820352	-7.93411	-9.50011	-1.41462	2.3536	-7.0608	-7.53152	0.9265284974093264	60.945
10199	0	1115135	1269	3	-25	68	-15	21	1269	3	-25	68	-15	21	-28627	-32765	-4857	-28627	-32765	-4857	32	-272	-192	61.37	0.926908462867012	60.53	0.926227485812978	3520.870361328125	-11748.560546875	622.7999877929688	1	12	0.5899999737739563	5.422500133514404	15	0	0.0	0.0	0.0	0.0	-0.1596653325162013	0.0	0.0	-0.6364032430795408	0.1794616949999999	0.0215354034	9.1094756382	0.0179206505417823	-0.7012349367141724	0.0177041366696357	0.7124851942062378	6	35.34783935546875	-117.80934244791666	9.109475638200001	0.0215354034	-0.179461695	0.48813581040000004	-0.107677017	0.1507478238	0.08307767209599999	-0.01832595708	0.025656339912	-34.974478221944	-40.02999891508	-5.933944902504	0.73602	0.00174	-0.0145	-16.60366	-19.0037	-2.81706	4.7988057243	-0.0430708068	-0.014356935599999995	-17.445700274923997	-20.02416243608	-2.954144281296	-7.933820000000001	-9.500979999999998	-1.41578	0.94144	-8.00224	-5.64864	0.926567974339995	60.95
10200	0	1115241	1266	3	-11	68	-13	23	1266	3	-11	68	-13	23	-28653	-32765	-4887	-28653	-32765	-4887	96	-272	-208	61.37	0.9270762398223538	60.53	0.926109055020972	3520.870361328125	-11748.560546875	622.7999877929688	1	12	0.5899999737739563	5.414999961853027	15	0	0.0	0.0	0.0	0.0	-0.1753460481707672	0.0	0.0	-0.6536929118472883	0.0789631458	0.0215354034	9.0879402348	0.0179254468530416	-0.7012576460838318	0.0177462734282016	0.7124615907669067	6	35.34783935546875	-117.80934244791666	9.0879402348	0.0215354034	-0.07896314580000001	0.48813581040000004	-0.0933200814	0.1651047594	0.08307767209599999	-0.015882496136	0.028099800855999998	-35.006243214216	-40.02999891508	-5.970596816664	0.73428	0.00174	-0.00638	-16.61874	-19.0037	-2.83446	4.788038022599999	-0.035892339	0.04307080679999999	-17.461582771059998	-20.022940705608	-2.971248507904	-7.9422299999999995	-9.500979999999998	-1.42042	2.82432	-8.00224	-6.11936	0.9265926474216628	60.95
10201	0	1115346	1273	7	-21	67	-16	24	1273	7	-21	67	-16	24	-28653	-32765	-4887	-28653	-32765	-4887	64	-304	-192	61.37	0.9270170244263508	60.52	0.926158401184308	3520.870361328125	-11748.560546875	622.7999877929688	1	12	0.5899999737739563	5.422500133514404	15	0	0.0	0.0	0.0	0.0	-0.2229479919969279	0.0	0.0	-0.7030261083096476	0.1507478237999999	0.0502492746	9.1381895094	0.0179294180124998	-0.7012346982955933	0.0178284272551536	0.7124820351600647	6	35.34783935546875	-117.80934244791666	9.1381895094	0.050249274600000005	-0.1507478238	0.4809573426	-0.1148554848	0.1722832272	0.08185594162399999	-0.019547687552	0.029321531328	-35.006243214216	-40.02999891508	-5.970596816664	0.73834	0.00406	-0.01218	-16.61874	-19.0037	-2.83446	4.809573426	-0.0323031051	0.010767701699999993	-17.462193636296	-20.024773301316	-2.970637642668	-7.940199999999999	-9.49982	-1.42332	1.88288	-8.94368	-5.64864	0.9265877128053295	60.945
10202	0	1115453	1270	4	-17	65	-17	24	1270	4	-17	65	-17	24	-28645	-32765	-4842	-28645	-32765	-4842	96	-240	-192	61.37	0.9269676782630152	60.53	0.9262373550456452	3520.870361328125	-11748.560546875	622.7999877929688	1	12	0.5899999737739563	5.422500133514404	15	0	0.0	0.0	0.0	0.0	-0.2177666020500935	0.0	0.0	-0.6942640404786443	0.1220339526	0.0287138711999999	9.116654106	0.0179936867207288	-0.7011971473693848	0.0177970733493566	0.7125182151794434	6	35.34783935546875	-117.80934244791666	9.116654106	0.0287138712	-0.12203395260000001	0.466600407	-0.12203395260000001	0.1722832272	0.07941248068	-0.020769418023999998	0.029321531328	-34.996469370439996	-40.02999891508	-5.915618945424	0.7366	0.00232	-0.00986	-16.6141	-19.0037	-2.80836	4.7916272565	-0.0466600407	0.025124637299999995	-17.45852844488	-20.025384166552	-2.943148707048	-7.938750000000001	-9.500689999999999	-1.40911	2.82432	-7.0608	-5.64864	0.9266025166543301	60.95
10203	0	1115558	1268	5	-20	69	-16	22	1268	5	-20	69	-16	22	-28645	-32765	-4842	-28645	-32765	-4842	96	-304	-208	61.37	0.9271354552183568	60.52	0.926227485812978	3520.870361328125	-11748.560546875	622.7999877929688	1	12	0.5899999737739563	5.422500133514404	15	0	0.0	0.0	0.0	0.0	-0.2508151382136655	0.0	0.0	-0.7251533364273717	0.1435693559999999	0.0358923389999999	9.1022971704	0.0180039349943399	-0.701180636882782	0.0178336724638938	0.7125332951545715	6	35.34783935546875	-117.80934244791666	9.1022971704	0.035892339	-0.143569356	0.4953142782	-0.1148554848	0.15792629160000002	0.08429940256799999	-0.019547687552	0.026878070384	-34.996469370439996	-40.02999891508	-5.915618945424	0.73544	0.0029	-0.0116	-16.6141	-19.0037	-2.80836	4.7988057243	-0.0394815729	0.007178467800000005	-17.456084983935998	-20.024773301316	-2.94437043752	-7.93933	-9.500399999999999	-1.40998	2.82432	-8.94368	-6.11936	0.9266814705156674	60.945
10204	0	1115664	1266	0	-12	69	-15	22	1266	0	-12	69	-15	22	-28655	-32765	-4870	-28655	-32765	-4870	80	-272	-256	61.37	0.926908462867012	60.53	0.9261189242536392	3520.870361328125	-11748.560546875	622.7999877929688	1	12	0.5899999737739563	5.414999961853027	15	0	0.0	0.0	0.0	0.0	-0.1957400471052143	0.0	0.0	-0.6581157175031597	0.0861416136	0.0	9.0879402348	0.018013909459114	-0.7011575102806091	0.0178574807941913	0.7125551104545593	6	35.34783935546875	-117.80934244791666	9.0879402348	0.0	-0.0861416136	0.4953142782	-0.107677017	0.15792629160000002	0.08429940256799999	-0.01832595708	0.026878070384	-35.00868667516	-40.02999891508	-5.94982739864	0.73428	0.0	-0.00696	-16.6199	-19.0037	-2.8246	4.7916272565	-0.0538385085	0.03589233900000001	-17.462193636296	-20.02416243608	-2.961474664128	-7.942810000000001	-9.50185	-1.41578	2.3536	-8.00224	-7.53152	0.9265136935603255	60.95
10205	0	1115771	1264	11	-23	71	-15	25	1264	11	-23	71	-15	25	-28655	-32765	-4870	-28655	-32765	-4870	64	-224	-192	61.37	0.9271354552183568	60.53	0.9262373550456452	3520.870361328125	-11748.560546875	622.7000122070312	1	12	0.5899999737739563	5.414999961853027	15	0	0.0	0.0	0.0	0.0	-0.2299965592965777	0.0	0.0	-0.695538695794407	0.1651047594	0.0789631458	9.0735832992	0.0180792994797229	-0.7011526823043823	0.0178641639649868	0.7125580906867981	6	35.34783935546875	-117.80934244791666	9.073583299200001	0.07896314580000001	-0.1651047594	0.5096712138	-0.107677017	0.179461695	0.086742863512	-0.01832595708	0.0305432618	-35.00868667516	-40.02999891508	-5.94982739864	0.73312	0.00638	-0.01334	-16.6199	-19.0037	-2.8246	4.791627256500001	-0.014356935599999995	0.007178467800000005	-17.460971905824	-20.02416243608	-2.95964206842	-7.943390000000001	-9.49866	-1.41897	1.88288	-6.59008	-5.64864	0.926686405132001	60.95
10206	0	1115876	1263	1	-20	64	-17	23	1263	1	-20	64	-17	23	-28619	-32765	-4892	-28619	-32765	-4892	80	-256	-240	61.37	0.926908462867012	60.53	0.9260498396249692	3520.870361328125	-11748.560546875	622.7000122070312	1	12	0.5899999737739563	5.421249866485596	15	0	0.0	0.0	0.0	0.0	-0.1599441352524222	0.0	0.0	-0.6136533338654266	0.1435693559999999	0.0071784677999999	9.0664048314	0.113810658454895	-0.6944686770439148	0.1127314493060112	0.7014641761779785	6	35.34783935546875	-117.80934244791666	9.0664048314	0.0071784678	-0.143569356	0.4594219392	-0.12203395260000001	0.1651047594	0.078190750208	-0.020769418023999998	0.028099800855999998	-34.964704378168	-40.02999891508	-5.976705469024	0.73254	0.00058	-0.0116	-16.59902	-19.0037	-2.83736	4.7629133853	-0.0574277424	0.010767701699999993	-17.44325681398	-20.025384166552	-2.974302834084	-7.93324	-9.50156	-1.42448	2.3536	-7.53152	-7.0608	0.9264791512459907	60.95
10207	0	1115983	1264	3	-13	73	-16	24	1264	3	-13	70	-16	24	-28623	-32765	-4879	-28623	-32765	-4879	96	-208	-192	61.37	0.9270762398223538	60.53	0.9261189242536392	3520.870361328125	-11748.560546875	622.7000122070312	1	12	0.5899999737739563	5.414999961853027	15	0	0.0	0.0	0.0	0.0	-0.12973656907087	0.0	0.0	-0.5897568069287092	0.0933200813999999	0.0215354034	9.0735832992	0.1138680055737495	-0.6944112181663513	0.1127905547618866	0.7015023231506348	6	35.34783935546875	-117.80934244791666	9.073583299200001	0.0215354034	-0.0933200814	0.502492746	-0.1148554848	0.1722832272	0.089186324456	-0.019547687552	0.029321531328	-34.969591300055995	-40.02999891508	-5.960822972888	0.73312	0.00174	-0.00754	-16.60134	-19.0037	-2.8298200000000002	4.7880380226	-0.0466600407	0.0394815729	-17.440202487799997	-20.024773301316	-2.96575072078	-7.93411	-9.500979999999998	-1.4186800000000002	2.82432	-6.11936	-5.64864	0.9265975820379965	60.95
10208	0	1116088	1270	3	-18	69	-16	24	1270	3	-18	69	-16	24	-28623	-32765	-4879	-28623	-32765	-4879	128	-272	-160	61.37	0.9269676782630152	60.53	0.9261781396496422	3520.870361328125	-11748.560546875	622.7000122070312	1	12	0.5899999737739563	5.414999961853027	15	0	0.0	0.0	0.0	0.0	-0.1515021409524119	0.0	0.0	-0.6193112790980835	0.1292124204	0.0215354034	9.116654106	0.1139507070183754	-0.6943297982215881	0.1127918809652328	0.7015692591667175	6	35.34783935546875	-117.80934244791666	9.116654106	0.0215354034	-0.1292124204	0.4953142782	-0.1148554848	0.1722832272	0.08429940256799999	-0.019547687552	0.029321531328	-34.969591300055995	-40.02999891508	-5.960822972888	0.7366	0.00174	-0.01044	-16.60134	-19.0037	-2.8298200000000002	4.8059841921	-0.0466600407	0.0215354034	-17.442645948743998	-20.024773301316	-2.96575072078	-7.932370000000001	-9.500979999999998	-1.4201300000000001	3.76576	-8.00224	-4.7072	0.9265729089563287	60.95
10209	0	1116194	1270	4	-21	69	-14	22	1270	4	-21	69	-14	22	-28650	-32765	-4884	-28650	-32765	-4884	80	-288	-176	61.37	0.926908462867012	60.54	0.9261880088823096	3520.870361328125	-11748.560546875	622.7000122070312	1	12	0.5899999737739563	5.422500133514404	15	0	0.0	0.0	0.0	0.0	-0.0445151155008108	0.0	0.0	-0.5145839439449095	0.1507478237999999	0.0287138711999999	9.116654106	0.1140486970543861	-0.6942592859268188	0.1128805801272392	0.7016088962554932	6	35.34783935546875	-117.80934244791666	9.116654106	0.0287138712	-0.1507478238	0.4953142782	-0.10049854920000001	0.15792629160000002	0.08429940256799999	-0.017104226607999998	0.026878070384	-35.002578022799995	-40.02999891508	-5.966931625248	0.7366	0.00232	-0.01218	-16.617	-19.0037	-2.83272	4.8059841921	-0.035892339	0.0035892339000000023	-17.459139310115997	-20.023551570844	-2.970026777432	-7.940200000000001	-9.500689999999999	-1.42245	2.3536	-8.47296	-5.17792	0.9265482358746608	60.955
10210	0	1116299	1265	3	-20	69	-15	23	1265	3	-20	69	-15	23	-28650	-32765	-4884	-28650	-32765	-4884	48	-288	-144	61.37	0.927026893659018	60.53	0.9262373550456452	3520.870361328125	-11748.560546875	622.7000122070312	1	12	0.5899999737739563	5.422500133514404	15	0	0.0	0.0	0.0	0.0	-0.0276626491333657	0.0	0.0	-0.5125084243538304	0.1435693559999999	0.0215354034	9.080761766999998	0.1140495836734771	-0.6942373514175415	0.1129773631691932	0.7016148567199707	6	35.34783935546875	-117.80934244791666	9.080761767	0.0215354034	-0.143569356	0.4953142782	-0.107677017	0.1651047594	0.08429940256799999	-0.01832595708	0.028099800855999998	-35.002578022799995	-40.02999891508	-5.966931625248	0.7337	0.00174	-0.0116	-16.617	-19.0037	-2.83272	4.7880380226	-0.0430708068	0.010767701699999993	-17.459139310115997	-20.02416243608	-2.9694159121959998	-7.94165	-9.500979999999998	-1.42216	1.41216	-8.47296	-4.23648	0.9266321243523317	60.95
10211	0	1116405	1270	0	-19	68	-17	25	1270	0	-19	68	-17	25	-28624	-32765	-4821	-28624	-32765	-4821	128	-272	-256	61.37	0.9269676782630152	60.53	0.9261781396496422	3520.870361328125	-11748.560546875	622.7000122070312	1	12	0.5899999737739563	5.422500133514404	15	0	0.0	0.0	0.0	0.0	0.0107108372537815	0.0	0.0	-0.4874595623041177	0.1363908881999999	0.0	9.116654106	0.1140977516770362	-0.6942242980003357	0.1130521297454834	0.7016079425811768	6	35.34783935546875	-117.80934244791666	9.116654106	0.0	-0.1363908882	0.48813581040000004	-0.12203395260000001	0.179461695	0.08307767209599999	-0.020769418023999998	0.0305432618	-34.970813030528	-40.02999891508	-5.889962605511999	0.7366	0.0	-0.01102	-16.60192	-19.0037	-2.79618	4.8023949582	-0.061016976300000005	0.0215354034	-17.443867679215998	-20.025384166552	-2.9297096718559996	-7.93266	-9.50185	-1.4036	3.76576	-8.00224	-7.53152	0.9265729089563287	60.95
10212	0	1116510	1262	2	-15	71	-13	23	1262	2	-15	71	-13	23	-28624	-32765	-4821	-28624	-32765	-4821	128	-192	-208	61.37	0.926908462867012	60.54	0.9262472242783124	3520.870361328125	-11748.560546875	622.7000122070312	1	12	0.5899999737739563	5.422500133514404	15	0	0.0	0.0	0.0	0.0	-0.0211656776801564	0.0	0.0	-0.5363583087251351	0.1076770169999999	0.0143569355999999	9.0592263636	0.1141343638300895	-0.6941403746604919	0.1131127923727035	0.7016751170158386	6	35.34783935546875	-117.80934244791666	9.0592263636	0.0143569356	-0.107677017	0.5096712138	-0.0933200814	0.1651047594	0.086742863512	-0.015882496136	0.028099800855999998	-34.970813030528	-40.02999891508	-5.889962605511999	0.73196	0.00116	-0.0087	-16.60192	-19.0037	-2.79618	4.784448788700001	-0.039481572900000005	0.028713871199999998	-17.442035083508	-20.022940705608	-2.9309314023279995	-7.9349799999999995	-9.50127	-1.4024400000000001	3.76576	-5.64864	-6.11936	0.9265778435726622	60.955
10213	0	1116618	1264	9	-22	69	-18	21	1264	9	-22	69	-18	21	-28655	-32765	-4867	-28655	-32765	-4867	80	-224	-224	61.37	0.9270170244263508	60.53	0.9262373550456452	3520.870361328125	-11748.560546875	622.7000122070312	1	12	0.5899999737739563	5.414999961853027	15	0	0.0	0.0	0.0	0.0	-0.0690754784509006	0.0	0.0	-0.5972255052180169	0.1579262916	0.0646062102	9.0735832992	0.1142468750476837	-0.6941201686859131	0.1131611093878746	0.7016690373420715	6	35.34783935546875	-117.80934244791666	9.073583299200001	0.0646062102	-0.15792629160000002	0.4953142782	-0.1292124204	0.1507478238	0.08429940256799999	-0.021991148496	0.025656339912	-35.00868667516	-40.02999891508	-5.946162207224	0.73312	0.00522	-0.01276	-16.6199	-19.0037	-2.82286	4.784448788700001	-0.0323031051	-0.0035892339000000023	-17.462193636296	-20.025995031788	-2.960252933656	-7.943390000000001	-9.499239999999999	-1.41781	2.3536	-6.59008	-6.59008	0.926627189735998	60.95
10214	0	1116724	1269	2	-16	70	-15	22	1269	2	-16	70	-15	22	-28655	-32765	-4867	-28655	-32765	-4867	96	-272	-176	61.37	0.927026893659018	60.54	0.9261287934863064	3520.870361328125	-11748.560546875	622.7000122070312	1	12	0.5899999737739563	5.414999961853027	15	0	0.0	0.0	0.0	0.0	-0.0130875156970158	0.0	0.0	-0.5482012415795156	0.1148554847999999	0.0143569355999999	9.1094756382	0.1142905801534652	-0.6941574811935425	0.1133304014801979	0.7015977501869202	6	35.34783935546875	-117.80934244791666	9.109475638200001	0.0143569356	-0.1148554848	0.502492746	-0.107677017	0.15792629160000002	0.08552113303999999	-0.01832595708	0.026878070384	-35.00868667516	-40.02999891508	-5.946162207224	0.73602	0.00116	-0.00928	-16.6199	-19.0037	-2.82286	4.8059841921	-0.0466600407	0.021535403400000007	-17.46158277106	-20.02416243608	-2.95964206842	-7.941940000000001	-9.50127	-1.41607	2.82432	-8.00224	-5.17792	0.9265778435726622	60.955
10215	0	1116829	1263	4	-12	67	-16	24	1263	4	-12	67	-16	24	-28617	-32765	-4878	-28617	-32765	-4878	96	-256	-240	61.38	0.9269874167283494	60.54	0.9261287934863064	3520.870361328125	-11748.560546875	622.7000122070312	1	12	0.5899999737739563	5.422500133514404	15	0	0.0	0.0	0.0	0.0	-0.0701976518889453	0.0	0.0	-0.6185503100667594	0.0861416136	0.0287138711999999	9.0664048314	0.0702330991625785	-0.6979936957359314	0.0690987482666969	0.7092936635017395	6	35.34783935546875	-117.80934244791666	9.0664048314	0.0287138712	-0.0861416136	0.4809573426	-0.1148554848	0.1722832272	0.08185594162399999	-0.019547687552	0.029321531328	-34.962260917224	-40.02999891508	-5.959601242415999	0.73254	0.00232	-0.00696	-16.59786	-19.0037	-2.82924	4.773681087	-0.0430708068	0.0430708068	-17.4402024878	-20.024773301316	-2.965139855544	-7.93266	-9.500689999999999	-1.4181	2.82432	-7.53152	-7.0608	0.926558105107328	60.96
10216	0	1116935	1273	8	-25	70	-18	22	1273	8	-25	70	-18	22	-28617	-32765	-4878	-28617	-32765	-4878	64	-240	-192	61.38	0.9269874167283494	60.54	0.9261880088823096	3520.870361328125	-11748.560546875	622.7000122070312	1	12	0.5899999737739563	5.420000076293945	15	0	0.0	0.0	0.0	0.0	-0.1486934892041691	0.0	0.0	-0.7044214693899385	0.1794616949999999	0.0574277423999999	9.1381895094	0.0702589154243469	-0.6979696154594421	0.069123201072216	0.7093124985694885	6	35.34783935546875	-117.80934244791666	9.1381895094	0.0574277424	-0.179461695	0.502492746	-0.1292124204	0.15792629160000002	0.08552113303999999	-0.021991148496	0.026878070384	-34.962260917224	-40.02999891508	-5.959601242415999	0.73834	0.00464	-0.0145	-16.59786	-19.0037	-2.82924	4.8203411277	-0.035892338999999995	-0.010767701699999993	-17.438369892092002	-20.025995031788	-2.9663615860159998	-7.92976	-9.49953	-1.42187	1.88288	-7.0608	-5.64864	0.9265877128053295	60.96
10217	0	1117040	1267	1	-13	70	-15	20	1267	1	-13	70	-15	20	-28615	-32765	-4891	-28615	-32765	-4891	144	-272	-128	61.37	0.9269183320996792	60.54	0.9261287934863064	3520.870361328125	-11748.560546875	622.7000122070312	1	12	0.5899999737739563	5.414999961853027	15	0	0.0	0.0	0.0	0.0	-0.1673834732807216	0.0	0.0	-0.7157384798984175	0.0933200813999999	0.0071784677999999	9.0951187026	0.0702487900853157	-0.6979785561561584	0.0691321939229965	0.7093038558959961	6	35.34783935546875	-117.80934244791666	9.0951187026	0.0071784678	-0.0933200814	0.502492746	-0.107677017	0.143569356	0.08552113303999999	-0.01832595708	0.024434609439999998	-34.95981745628	-40.02999891508	-5.975483738552	0.73486	0.00058	-0.00754	-16.5967	-19.0037	-2.83678	4.7988057243	-0.0502492746	0.025124637300000002	-17.43714816162	-20.02416243608	-2.975524564556	-7.9309199999999995	-9.50156	-1.42216	4.23648	-8.00224	-3.76576	0.9265235627929929	60.955
10218	0	1117146	1269	-1	-20	71	-16	23	1269	-1	-20	71	-16	23	-28615	-32765	-4891	-28615	-32765	-4891	64	-336	-160	61.37	0.9269775474956822	60.54	0.9262570935109796	3520.870361328125	-11748.560546875	622.7000122070312	1	12	0.5899999737739563	5.422500133514404	15	0	0.0	0.0	0.0	0.0	-0.2013164601955099	0.0	0.0	-0.7451799279001026	0.1435693559999999	-0.0071784677999999	9.1094756382	0.0702704340219497	-0.6979745626449585	0.0691999047994613	0.7092989087104797	6	35.34783935546875	-117.80934244791666	9.109475638200001	-0.0071784678	-0.143569356	0.5096712138	-0.1148554848	0.1651047594	0.086742863512	-0.019547687552	0.028099800855999998	-34.95981745628	-40.02999891508	-5.975483738552	0.73602	-0.00058	-0.0116	-16.5967	-19.0037	-2.83678	4.809573426000001	-0.061016976300000005	0.010767701699999993	-17.436537296384	-20.024773301316	-2.9736919688479997	-7.930339999999999	-9.502139999999999	-1.42419	1.88288	-9.88512	-4.7072	0.9266173205033309	60.955
10219	0	1117251	1258	9	-17	68	-14	24	1258	9	-17	68	-14	24	-28637	-32765	-4845	-28637	-32765	-4845	96	-272	-224	61.38	0.9269874167283494	60.53	0.9261189242536392	3520.870361328125	-11748.560546875	622.7000122070312	1	12	0.5899999737739563	5.422500133514404	15	0	0.0	0.0	0.0	0.0	-0.1561784578212056	0.0	0.0	-0.6880191820400442	0.1220339526	0.0646062102	9.0305124924	0.0703085064888	-0.6979426741600037	0.0692249089479446	0.7093241810798645	6	35.34783935546875	-117.80934244791666	9.0305124924	0.0646062102	-0.12203395260000001	0.48813581040000004	-0.10049854920000001	0.1722832272	0.08307767209599999	-0.017104226607999998	0.029321531328	-34.986695526664	-40.02999891508	-5.91928413684	0.72964	0.00522	-0.00986	-16.60946	-19.0037	-2.8101	4.7593241513999995	-0.017946169500000005	0.025124637299999995	-17.451808927284	-20.023551570844	-2.944981302756	-7.939909999999999	-9.499239999999999	-1.40998	2.82432	-8.00224	-6.59008	0.9265531704909943	60.955
10220	0	1117357	1268	3	-16	70	-16	23	1268	3	-16	70	-16	23	-28637	-32765	-4845	-28637	-32765	-4845	80	-272	-96	61.37	0.9269775474956822	60.54	0.9262570935109796	3520.870361328125	-11748.560546875	622.7000122070312	1	12	0.5899999737739563	5.422500133514404	15	0	0.0	0.0	0.0	0.0	-0.2251091840960813	0.0	0.0	-0.755796931702723	0.1148554847999999	0.0215354034	9.1022971704	0.0704638063907623	-0.6979122161865234	0.0692347958683967	0.7093377709388733	6	35.34783935546875	-117.80934244791666	9.1022971704	0.0215354034	-0.1148554848	0.502492746	-0.1148554848	0.1651047594	0.08552113303999999	-0.019547687552	0.028099800855999998	-34.986695526664	-40.02999891508	-5.91928413684	0.73544	0.00174	-0.00928	-16.60946	-19.0037	-2.8101	4.8023949582	-0.0466600407	0.025124637299999995	-17.450587196812002	-20.024773301316	-2.945592167992	-7.937009999999999	-9.500979999999998	-1.4096899999999999	2.3536	-8.00224	-2.82432	0.9266173205033309	60.955
10221	0	1117463	1271	0	-18	73	-15	23	1271	0	-18	73	-15	23	-28657	-32765	-4879	-28657	-32765	-4879	144	-256	-240	61.38	0.9269874167283494	60.54	0.9261880088823096	3520.870361328125	-11748.560546875	622.7000122070312	1	12	0.5899999737739563	5.413750171661377	15	0	0.0	0.0	0.0	0.0	-0.186487026915505	0.0	0.0	-0.7080435418015417	0.1292124204	0.0	9.1238325738	0.0705594271421432	-0.6978679895401001	0.0692793205380439	0.7093673944473267	6	35.34783935546875	-117.80934244791666	9.1238325738	0.0	-0.1292124204	0.5240281494	-0.107677017	0.1651047594	0.089186324456	-0.01832595708	0.028099800855999998	-35.011130136104	-40.02999891508	-5.960822972888	0.7371800000000001	0.0	-0.01044	-16.62106	-19.0037	-2.8298200000000002	4.8239303615999996	-0.0538385085	0.017946169499999998	-17.460971905824	-20.02416243608	-2.9663615860159998	-7.94194	-9.50185	-1.4201300000000001	4.23648	-7.53152	-7.0608	0.9265877128053295	60.96
10222	0	1117568	1266	-2	-16	69	-12	22	1266	-2	-16	69	-12	22	-28657	-32765	-4879	-28657	-32765	-4879	112	-240	-208	61.38	0.9269380705650136	60.54	0.9262570935109796	3520.870361328125	-11748.560546875	622.7000122070312	1	12	0.5899999737739563	5.421249866485596	15	0	0.0	0.0	0.0	0.0	-0.1777241900754395	0.0	0.0	-0.6942690449651568	0.1148554847999999	-0.0143569355999999	9.0879402348	0.0705975741147995	-0.6978033185005188	0.0693107545375824	0.7094241380691528	6	35.34783935546875	-117.80934244791666	9.0879402348	-0.0143569356	-0.1148554848	0.4953142782	-0.0861416136	0.15792629160000002	0.08429940256799999	-0.014660765664	0.026878070384	-35.011130136104	-40.02999891508	-5.960822972888	0.73428	-0.00116	-0.00928	-16.62106	-19.0037	-2.8298200000000002	4.7916272565	-0.0502492746	0.021535403400000007	-17.463415366768	-20.022329840372	-2.966972451252	-7.94339	-9.502429999999999	-1.41955	3.29504	-7.0608	-6.11936	0.9265975820379966	60.96
10223	0	1117675	1265	5	-20	71	-17	22	1265	5	-20	71	-17	22	-28658	-32765	-4853	-28658	-32765	-4853	112	-240	-208	61.38	0.9269874167283494	60.53	0.9261781396496422	3520.870361328125	-11748.560546875	622.5999755859375	1	12	0.6000000238418579	5.416250228881836	15	0	0.0	0.0	0.0	0.0	-0.1100349688766971	0.0	0.0	-0.6188817251564217	0.1435693559999999	0.0358923389999999	9.080761766999998	0.0706025138497352	-0.6977680921554565	0.0693044438958168	0.7094588875770569	6	35.34783935546875	-117.80934244791666	9.080761767	0.035892339	-0.143569356	0.5096712138	-0.12203395260000001	0.15792629160000002	0.086742863512	-0.020769418023999998	0.026878070384	-35.012351866576	-40.02999891508	-5.929057980615999	0.7337	0.0029	-0.0116	-16.62164	-19.0037	-2.81474	4.7952164904000005	-0.0430708068	0.007178467800000005	-17.462804501532	-20.025384166552	-2.9510899551159997	-7.943969999999999	-9.500399999999999	-1.41317	3.29504	-7.0608	-6.11936	0.9265827781889958	60.955
10224	0	1117780	1263	1	-18	72	-16	24	1263	1	-18	72	-16	24	-28658	-32765	-4853	-28658	-32765	-4853	112	-336	-224	61.38	0.9269874167283494	60.54	0.9260695780903034	3520.870361328125	-11748.560546875	622.5999755859375	1	12	0.6000000238418579	5.416250228881836	15	0	0.0	0.0	0.0	0.0	-0.0760727730818005	0.0	0.0	-0.5881207683136463	0.1292124204	0.0071784677999999	9.0664048314	0.0706677585840225	-0.6977466940879822	0.0693408399820327	0.7094699740409851	6	35.34783935546875	-117.80934244791666	9.0664048314	0.0071784678	-0.1292124204	0.5168496816	-0.1148554848	0.1722832272	0.087964593984	-0.019547687552	0.029321531328	-35.012351866576	-40.02999891508	-5.929057980615999	0.73254	0.00058	-0.01044	-16.62164	-19.0037	-2.81474	4.7916272565	-0.0538385085	0.0215354034	-17.462193636296	-20.024773301316	-2.949868224644	-7.94455	-9.50156	-1.41259	3.29504	-9.88512	-6.59008	0.9265284974093264	60.96
10225	0	1117886	1271	3	-17	68	-13	24	1271	3	-17	68	-13	24	-28634	-32765	-4860	-28634	-32765	-4860	64	-224	-272	61.38	0.9270466321243525	60.54	0.9261978781149766	3520.870361328125	-11748.560546875	622.5999755859375	1	12	0.6000000238418579	5.421249866485596	15	0	0.0	0.0	0.0	0.0	-0.0542893803092402	0.0	0.0	-0.5757044757909313	0.1220339526	0.0215354034	9.1238325738	0.0776891335844993	-0.697748064994812	0.0765723288059234	0.7079892754554749	6	35.34783935546875	-117.80934244791666	9.1238325738	0.0215354034	-0.12203395260000001	0.48813581040000004	-0.0933200814	0.1722832272	0.08307767209599999	-0.015882496136	0.029321531328	-34.983030335247996	-40.02999891508	-5.93761009392	0.7371800000000001	0.00174	-0.00986	-16.60772	-19.0037	-2.8188	4.8059841920999995	-0.035892339	0.025124637299999995	-17.449976331575996	-20.022940705608	-2.954144281296	-7.93527	-9.500979999999998	-1.41433	1.88288	-6.59008	-8.00224	0.9266222551196646	60.96
10226	0	1117991	1266	-1	-13	71	-15	28	1266	-1	-13	71	-15	28	-28634	-32765	-4860	-28634	-32765	-4860	144	-288	-224	61.38	0.9269282013323464	60.54	0.9261978781149766	3520.870361328125	-11748.560546875	622.5999755859375	1	12	0.6000000238418579	5.422500133514404	15	0	0.0	0.0	0.0	0.0	-0.0816646285809631	0.0	0.0	-0.6149782866937968	0.0933200813999999	-0.0071784677999999	9.0879402348	0.0777349025011062	-0.6977009773254395	0.0765790939331054	0.7080299258232117	6	35.34783935546875	-117.80934244791666	9.0879402348	-0.0071784678	-0.0933200814	0.5096712138	-0.107677017	0.20099709840000002	0.086742863512	-0.01832595708	0.034208453215999995	-34.983030335247996	-40.02999891508	-5.93761009392	0.73428	-0.00058	-0.00754	-16.60772	-19.0037	-2.8188	4.7988057243	-0.0574277424	0.05383850850000001	-17.448143735867998	-20.02416243608	-2.951700820352	-7.93672	-9.502139999999999	-1.41317	4.23648	-8.47296	-6.59008	0.9265630397236615	60.96
10227	0	1118097	1267	2	-15	71	-15	20	1267	2	-15	71	-15	20	-28617	-32765	-4873	-28617	-32765	-4873	112	-272	-176	61.39	0.9270071551936836	60.54	0.9260794473229708	3520.870361328125	-11748.560546875	622.5999755859375	1	12	0.6000000238418579	5.422500133514404	15	0	0.0	0.0	0.0	0.0	-0.0582323774783601	0.0	0.0	-0.5942624514234572	0.1076770169999999	0.0143569355999999	9.0951187026	0.0777259171009063	-0.6976894736289978	0.0765895321965217	0.7080410718917847	6	35.34783935546875	-117.80934244791666	9.0951187026	0.0143569356	-0.107677017	0.5096712138	-0.107677017	0.143569356	0.086742863512	-0.01832595708	0.024434609439999998	-34.962260917224	-40.02999891508	-5.953492590055999	0.73486	0.00116	-0.0087	-16.59786	-19.0037	-2.82634	4.802394958200001	-0.0466600407	0.017946169500000005	-17.437759026856	-20.02416243608	-2.9645289903079997	-7.931500000000001	-9.50127	-1.4175200000000001	3.29504	-8.00224	-5.17792	0.9265433012583272	60.965
10228	0	1118202	1269	6	-25	71	-19	22	1269	6	-25	71	-19	22	-28617	-32765	-4873	-28617	-32765	-4873	96	-224	-128	61.38	0.9269972859610164	60.54	0.9261287934863064	3520.870361328125	-11748.560546875	622.5999755859375	1	12	0.6000000238418579	5.422500133514404	15	0	0.0	0.0	0.0	0.0	-0.0539550673433217	0.0	0.0	-0.5956154311981046	0.1794616949999999	0.0430708068	9.1094756382	0.0777696743607521	-0.6976853609085083	0.0765724033117294	0.7080422043800354	6	35.34783935546875	-117.80934244791666	9.109475638200001	0.0430708068	-0.179461695	0.5096712138	-0.1363908882	0.15792629160000002	0.086742863512	-0.023212878968	0.026878070384	-34.962260917224	-40.02999891508	-5.953492590055999	0.73602	0.00348	-0.0145	-16.59786	-19.0037	-2.82634	4.809573426000001	-0.0466600407	-0.010767701699999993	-17.437759026856	-20.026605897024	-2.9633072598359997	-7.93092	-9.50011	-1.42042	2.82432	-6.59008	-3.76576	0.9265630397236614	60.96
10229	0	1118310	1268	0	-13	68	-18	24	1268	0	-13	68	-18	24	-28639	-32765	-4901	-28639	-32765	-4901	128	-272	-176	61.37	0.9268689859363436	60.54	0.9261287934863064	3520.870361328125	-11748.560546875	622.5999755859375	1	12	0.6000000238418579	5.416250228881836	15	0	0.0	0.0	0.0	0.0	-0.0365087661343232	0.0	0.0	-0.5822221195867185	0.0933200813999999	0.0	9.1022971704	0.0777908340096473	-0.6976509690284729	0.0765911638736724	0.7080717086791992	6	35.34783935546875	-117.80934244791666	9.1022971704	0.0	-0.0933200814	0.48813581040000004	-0.1292124204	0.1722832272	0.08307767209599999	-0.021991148496	0.029321531328	-34.989138987608	-40.02999891508	-5.987701043272	0.73544	0.0	-0.00754	-16.61062	-19.0037	-2.84258	4.7952164904	-0.0646062102	0.0394815729	-17.453030657756	-20.025995031788	-2.979189755972	-7.93759	-9.50185	-1.42506	3.76576	-8.00224	-5.17792	0.926498889711325	60.955
10230	0	1118416	1269	3	-18	70	-17	23	1269	3	-18	70	-17	23	-28639	-32765	-4868	-28639	-32765	-4868	160	-272	-208	61.38	0.9269874167283494	60.54	0.9263261781396496	3520.870361328125	-11748.560546875	622.5999755859375	1	12	0.6000000238418579	5.413750171661377	15	0	0.0	0.0	0.0	0.0	-0.0207885670453814	0.0	0.0	-0.5770940416591386	0.1292124204	0.0215354034	9.1094756382	0.0778851732611656	-0.6976906061172485	0.0766005590558052	0.708021342754364	6	35.34783935546875	-117.80934244791666	9.109475638200001	0.0215354034	-0.1292124204	0.502492746	-0.12203395260000001	0.1651047594	0.08552113303999999	-0.020769418023999998	0.028099800855999998	-34.989138987608	-40.02999891508	-5.947383937695999	0.73602	0.00174	-0.01044	-16.61062	-19.0037	-2.82344	4.8059841921	-0.050249274600000005	0.017946169499999998	-17.451808927284002	-20.025384166552	-2.9596420684199995	-7.9373000000000005	-9.500979999999998	-1.41694	4.7072	-8.00224	-6.11936	0.9266567974339994	60.96
10231	0	1118521	1272	9	-19	67	-15	25	1272	9	-19	67	-15	25	-28639	-32765	-4868	-28639	-32765	-4868	16	-256	-224	61.38	0.9269972859610164	60.54	0.9261386627189736	3520.870361328125	-11748.560546875	622.5999755859375	1	12	0.6000000238418579	5.422500133514404	15	0	0.0	0.0	0.0	0.0	-0.036563684405532	0.0	0.0	-0.6023853163805429	0.1363908881999999	0.0646062102	9.1310110416	0.0778790861368179	-0.6976197361946106	0.0765561610460281	0.7080966234207153	6	35.34783935546875	-117.80934244791666	9.1310110416	0.0646062102	-0.1363908882	0.4809573426	-0.107677017	0.179461695	0.08185594162399999	-0.01832595708	0.0305432618	-34.989138987608	-40.02999891508	-5.947383937695999	0.73776	0.00522	-0.01102	-16.61062	-19.0037	-2.82344	4.8059841921	-0.0215354034	0.0215354034	-17.453641522992	-20.02416243608	-2.9584203379479996	-7.9364300000000005	-9.499239999999999	-1.41723	0.47072	-7.53152	-6.59008	0.926567974339995	60.96
10232	0	1118628	1273	2	-19	71	-13	24	1273	2	-19	71	-13	24	-28654	-32765	-4860	-28654	-32765	-4860	112	-320	-176	61.38	0.927095978287688	60.54	0.9261287934863064	3520.870361328125	-11748.560546875	622.5999755859375	1	12	0.6000000238418579	5.414999961853027	15	0	0.0	0.0	0.0	0.0	-0.0816217751271028	0.0	0.0	-0.6566715791714943	0.1363908881999999	0.0143569355999999	9.1381895094	0.077882707118988	-0.6975445747375488	0.0765668004751205	0.7081691026687622	6	35.34783935546875	-117.80934244791666	9.1381895094	0.0143569356	-0.1363908882	0.5096712138	-0.0933200814	0.1722832272	0.086742863512	-0.015882496136	0.029321531328	-35.007464944687996	-40.02999891508	-5.93761009392	0.73834	0.00116	-0.01102	-16.619320000000002	-19.0037	-2.8188	4.8239303616	-0.039481572900000005	0.017946169499999998	-17.460361040587998	-20.022940705608	-2.954144281296	-7.9404900000000005	-9.50127	-1.41491	3.29504	-9.4144	-5.17792	0.9266123858869972	60.96
10233	0	1118733	1266	2	-19	68	-15	23	1266	2	-19	68	-15	23	-28654	-32765	-4860	-28654	-32765	-4860	48	-288	-256	61.39	0.9269972859610164	60.54	0.9262570935109796	3520.870361328125	-11748.560546875	622.5999755859375	1	12	0.6000000238418579	5.416250228881836	15	0	0.0	0.0	0.0	0.0	-0.0432493402066595	0.0	0.0	-0.6173095725043796	0.1363908881999999	0.0143569355999999	9.0879402348	0.0779022648930549	-0.6974971294403076	0.0765612423419952	0.7082142233848572	6	35.34783935546875	-117.80934244791666	9.0879402348	0.0143569356	-0.1363908882	0.48813581040000004	-0.107677017	0.1651047594	0.08307767209599999	-0.01832595708	0.028099800855999998	-35.007464944687996	-40.02999891508	-5.93761009392	0.73428	0.00116	-0.01102	-16.619320000000002	-19.0037	-2.8188	4.788038022599999	-0.0466600407	0.014356935599999995	-17.462193636295996	-20.02416243608	-2.954755146532	-7.942520000000001	-9.50127	-1.41491	1.41216	-8.47296	-7.53152	0.926627189735998	60.965
10234	0	1118839	1267	10	-23	65	-17	24	1267	10	-23	65	-17	24	-28628	-32765	-4927	-28628	-32765	-4927	32	-192	-192	61.38	0.9269972859610164	60.54	0.9260794473229708	3520.870361328125	-11748.560546875	622.5999755859375	1	12	0.6000000238418579	5.422500133514404	15	0	0.0	0.0	0.0	0.0	-0.0332153112813751	0.0	0.0	-0.6117319947911403	0.1651047594	0.0717846779999999	9.0951187026	0.0778970867395401	-0.6975245475769043	0.0765158832073211	0.7081927061080933	6	35.34783935546875	-117.80934244791666	9.0951187026	0.071784678	-0.1651047594	0.466600407	-0.12203395260000001	0.1722832272	0.07941248068	-0.020769418023999998	0.029321531328	-34.975699952416	-40.02999891508	-6.019466035543999	0.73486	0.0058	-0.01334	-16.60424	-19.0037	-2.85766	4.7808595548	-0.025124637300000002	0.0035892339000000023	-17.448143735868	-20.025384166552	-2.9950722521079998	-7.934690000000001	-9.498949999999999	-1.4355	0.94144	-5.64864	-5.64864	0.9265383666419935	60.96
10235	0	1118944	1265	4	-22	68	-17	21	1265	4	-22	68	-17	21	-28628	-32765	-4927	-28628	-32765	-4927	64	-192	-208	61.39	0.9269972859610164	60.54	0.9261978781149766	3520.870361328125	-11748.560546875	622.5999755859375	1	12	0.6000000238418579	5.422500133514404	15	0	0.0	0.0	0.0	0.0	-0.018379454489638	0.0	0.0	-0.6013596199471306	0.1579262916	0.0287138711999999	9.080761766999998	0.145437940955162	-0.6854161024093628	0.1425511091947555	0.6990936398506165	6	35.34783935546875	-117.80934244791666	9.080761767	0.0287138712	-0.15792629160000002	0.48813581040000004	-0.12203395260000001	0.1507478238	0.08307767209599999	-0.020769418023999998	0.025656339912	-34.975699952416	-40.02999891508	-6.019466035543999	0.7337	0.00232	-0.01276	-16.60424	-19.0037	-2.85766	4.7844487887	-0.0466600407	-0.0035892339000000023	-17.44631114016	-20.025384166552	-2.996904847816	-7.93527	-9.500689999999999	-1.43521	1.88288	-5.64864	-6.11936	0.9265975820379965	60.965
10236	0	1119050	1266	2	-17	68	-12	23	1266	2	-17	68	-12	23	-28646	-32765	-4865	-28646	-32765	-4865	64	-208	-240	61.38	0.9269380705650136	60.54	0.9261978781149766	3520.870361328125	-11748.560546875	622.5999755859375	1	12	0.6000000238418579	5.422500133514404	15	0	0.0	0.0	0.0	0.0	-0.0352415366924315	0.0	0.0	-0.6240044649002325	0.1220339526	0.0143569355999999	9.0879402348	0.1454578191041946	-0.6853447556495667	0.1426358968019485	0.6991420984268188	6	35.34783935546875	-117.80934244791666	9.0879402348	0.0143569356	-0.12203395260000001	0.48813581040000004	-0.0861416136	0.1651047594	0.08307767209599999	-0.014660765664	0.028099800855999998	-34.997691100912	-40.02999891508	-5.94371874628	0.73428	0.00116	-0.00986	-16.61468	-19.0037	-2.8217	4.788038022599999	-0.035892339	0.021535403399999993	-17.457306714408	-20.022329840372	-2.957809472712	-7.9402	-9.50127	-1.41578	1.88288	-6.11936	-7.0608	0.926567974339995	60.96
10237	0	1119155	1270	7	-19	70	-14	23	1270	7	-19	70	-14	23	-28646	-32765	-4865	-28646	-32765	-4865	32	-240	-192	61.38	0.9270466321243525	60.55	0.9262669627436468	3520.870361328125	-11748.560546875	622.5999755859375	1	12	0.6000000238418579	5.421249866485596	15	0	0.0	0.0	0.0	0.0	-0.0372391539056839	0.0	0.0	-0.6320440824070613	0.1363908881999999	0.0502492746	9.116654106	0.145439863204956	-0.6853314638137817	0.1427080035209655	0.699144184589386	6	35.34783935546875	-117.80934244791666	9.116654106	0.050249274600000005	-0.1363908882	0.502492746	-0.10049854920000001	0.1651047594	0.08552113303999999	-0.017104226607999998	0.028099800855999998	-34.997691100912	-40.02999891508	-5.94371874628	0.7366	0.00406	-0.01102	-16.61468	-19.0037	-2.8217	4.809573426	-0.025124637300000002	0.014356935599999995	-17.456084983936	-20.023551570844	-2.957809472712	-7.93904	-9.49982	-1.4163599999999998	0.94144	-7.0608	-5.64864	0.9266567974339996	60.965
10238	0	1119262	1262	1	-20	68	-16	22	1262	1	-20	68	-16	22	-28652	-32765	-4916	-28652	-32765	-4916	64	-288	-192	61.38	0.9269380705650136	60.55	0.9261485319516408	3520.870361328125	-11748.560546875	622.5999755859375	1	12	0.6000000238418579	5.414999961853027	15	0	0.0	0.0	0.0	0.0	0.007897626093558	0.0	0.0	-0.5881866242879441	0.1435693559999999	0.0071784677999999	9.0592263636	0.1454657763242721	-0.6852754950523376	0.1427482217550277	0.6991853713989258	6	35.34783935546875	-117.80934244791666	9.0592263636	0.0071784678	-0.143569356	0.48813581040000004	-0.1148554848	0.15792629160000002	0.08307767209599999	-0.019547687552	0.026878070384	-35.005021483743995	-40.02999891508	-6.006027000352	0.73196	0.00058	-0.0116	-16.61816	-19.0037	-2.85128	4.773681087	-0.0538385085	0.007178467800000005	-17.460971905823996	-20.024773301316	-2.989574464984	-7.943099999999999	-9.50156	-1.43144	1.88288	-8.47296	-5.64864	0.9265433012583273	60.965
10239	0	1119367	1268	2	-16	68	-14	22	1268	2	-16	68	-14	22	-28652	-32765	-4916	-28652	-32765	-4916	80	-304	-224	61.39	0.9270565013570194	60.55	0.9262176165803108	3520.870361328125	-11748.560546875	622.5999755859375	1	12	0.6000000238418579	5.422500133514404	15	0	0.0	0.0	0.0	0.0	-0.0390344465294492	0.0	0.0	-0.6465044477939303	0.1148554847999999	0.0143569355999999	9.1022971704	0.1454078555107116	-0.6852303743362427	0.1427842825651168	0.6992342472076416	6	35.34783935546875	-117.80934244791666	9.1022971704	0.0143569356	-0.1148554848	0.48813581040000004	-0.10049854920000001	0.15792629160000002	0.08307767209599999	-0.017104226607999998	0.026878070384	-35.005021483743995	-40.02999891508	-6.006027000352	0.73544	0.00116	-0.00928	-16.61816	-19.0037	-2.85128	4.7952164904	-0.04307080680000001	0.021535403400000007	-17.460971905823996	-20.023551570844	-2.989574464984	-7.9413599999999995	-9.50127	-1.43028	2.3536	-8.94368	-6.59008	0.9266370589686651	60.97
10240	0	1119473	1270	2	-22	69	-15	21	1270	2	-22	69	-15	21	-28631	-32765	-4882	-28631	-32765	-4882	32	-272	-144	61.39	0.9269479397976808	60.54	0.9261386627189736	3520.870361328125	-11748.560546875	622.5999755859375	1	12	0.6000000238418579	5.414999961853027	15	0	0.0	0.0	0.0	0.0	-0.0764684513385272	0.0	0.0	-0.6866353810356652	0.1579262916	0.0143569355999999	9.116654106	0.1454231888055801	-0.6851866841316223	0.142835333943367	0.6992634534835815	6	35.34783935546875	-117.80934244791666	9.116654106	0.0143569356	-0.15792629160000002	0.4953142782	-0.107677017	0.1507478238	0.08429940256799999	-0.01832595708	0.025656339912	-34.979365143832	-40.02999891508	-5.964488164304	0.7366	0.00116	-0.01276	-16.60598	-19.0037	-2.83156	4.8059841921	-0.0466600407	-0.0035892339000000023	-17.447532870632	-20.02416243608	-2.969415912196	-7.93469	-9.50127	-1.42216	0.94144	-8.00224	-4.23648	0.9265433012583272	60.965
10241	0	1119578	1277	6	-19	68	-14	21	1277	6	-19	68	-14	21	-28631	-32765	-4882	-28631	-32765	-4882	80	-256	-192	61.39	0.9269972859610164	60.54	0.9260794473229708	3520.870361328125	-11748.560546875	622.5999755859375	1	12	0.6000000238418579	5.422500133514404	15	0	0.0	0.0	0.0	0.0	0.0076269880054124	0.0	0.0	-0.5969120086524492	0.1363908881999999	0.0430708068	9.1669033806	0.1454796344041824	-0.6851344704627991	0.142876461148262	0.6992945671081543	6	35.34783935546875	-117.80934244791666	9.1669033806	0.0430708068	-0.1363908882	0.48813581040000004	-0.10049854920000001	0.1507478238	0.08307767209599999	-0.017104226607999998	0.025656339912	-34.979365143832	-40.02999891508	-5.964488164304	0.74066	0.00348	-0.01102	-16.60598	-19.0037	-2.83156	4.8275195955	-0.028713871200000005	0.007178467800000005	-17.448143735867998	-20.023551570844	-2.969415912196	-7.932659999999999	-9.50011	-1.42129	2.3536	-7.53152	-5.64864	0.9265383666419935	60.965
10242	0	1119683	1265	-1	-18	73	-14	24	1265	-1	-18	73	-14	24	-28637	-32765	-4905	-28637	-32765	-4905	128	-208	-256	61.39	0.9271058475203552	60.54	0.9262570935109796	3520.870361328125	-11748.560546875	622.5	1	12	0.6000000238418579	5.414999961853027	15	0	0.0	0.0	0.0	0.0	-0.0287405683576872	0.0	0.0	-0.6418888245152171	0.1292124204	-0.0071784677999999	9.080761766999998	0.1454836577177047	-0.6850695610046387	0.1429004669189453	0.6993523240089417	6	35.34783935546875	-117.80934244791666	9.080761767	-0.0071784678	-0.1292124204	0.5240281494	-0.10049854920000001	0.1722832272	0.089186324456	-0.017104226607999998	0.029321531328	-34.986695526664	-40.02999891508	-5.992587965159999	0.7337	-0.00058	-0.01044	-16.60946	-19.0037	-2.8449	4.8023949582	-0.05383850850000001	0.0215354034	-17.448754601104	-20.023551570844	-2.981633216916	-7.937879999999999	-9.502139999999999	-1.42767	3.76576	-6.11936	-7.53152	0.9266814705156674	60.965
10243	0	1119790	1273	3	-20	69	-15	22	1273	3	-20	69	-15	22	-28637	-32765	-4905	-28637	-32765	-4905	64	-240	-192	61.39	0.9269972859610164	60.55	0.9261485319516408	3520.870361328125	-11748.560546875	622.5	1	12	0.6000000238418579	5.422500133514404	15	0	0.0	0.0	0.0	0.0	-0.047562835794789	0.0	0.0	-0.6641729197547953	0.1435693559999999	0.0215354034	9.1381895094	0.1455302238464355	-0.6850495338439941	0.142945259809494	0.6993532180786133	6	35.34783935546875	-117.80934244791666	9.1381895094	0.0215354034	-0.143569356	0.4953142782	-0.107677017	0.15792629160000002	0.08429940256799999	-0.01832595708	0.026878070384	-34.986695526664	-40.02999891508	-5.992587965159999	0.73834	0.00174	-0.0116	-16.60946	-19.0037	-2.8449	4.8167518938	-0.0430708068	0.007178467800000005	-17.451198062048	-20.02416243608	-2.9828549473879997	-7.935559999999999	-9.500979999999998	-1.42825	1.88288	-7.0608	-5.64864	0.9265729089563286	60.97
10244	0	1119895	1269	3	-23	68	-19	26	1269	3	-23	68	-19	26	-28619	-32765	-4894	-28619	-32765	-4894	96	-272	-208	61.39	0.9269479397976808	60.54	0.9262570935109796	3520.870361328125	-11748.560546875	622.5	1	12	0.6000000238418579	5.422500133514404	15	0	0.0	0.0	0.0	0.0	-0.0608862007595629	0.0	0.0	-0.6784325510346283	0.1651047594	0.0215354034	9.1094756382	-0.0321519821882247	-0.7033116221427917	-0.0319475419819355	0.7094353437423706	6	35.34783935546875	-117.80934244791666	9.109475638200001	0.0215354034	-0.1651047594	0.48813581040000004	-0.1363908882	0.1866401628	0.08307767209599999	-0.023212878968	0.031764992272	-34.964704378168	-40.02999891508	-5.979148929968	0.73602	0.00174	-0.01334	-16.59902	-19.0037	-2.83852	4.7988057243	-0.0574277424	0.010767701700000007	-17.440813353036	-20.026605897024	-2.973691968848	-7.9315	-9.500979999999998	-1.42593	2.82432	-8.00224	-6.11936	0.9266025166543301	60.965
10245	0	1120002	1263	5	-24	67	-15	22	1263	5	-24	67	-15	22	-28619	-32765	-4894	-28619	-32765	-4894	48	-240	-208	61.39	0.9270663705896868	60.54	0.9260794473229708	3520.870361328125	-11748.560546875	622.5	1	12	0.6000000238418579	5.414999961853027	15	0	0.0	0.0	0.0	0.0	-0.0146349311527947	0.0	0.0	-0.6258752631091627	0.1722832272	0.0358923389999999	9.0664048314	-0.0322139114141464	-0.7032762169837952	-0.0319409668445587	0.7094678282737732	6	35.34783935546875	-117.80934244791666	9.0664048314	0.035892339	-0.1722832272	0.4809573426	-0.107677017	0.15792629160000002	0.08185594162399999	-0.01832595708	0.026878070384	-34.964704378168	-40.02999891508	-5.979148929968	0.73254	0.0029	-0.01392	-16.59902	-19.0037	-2.83852	4.773681087	-0.035892338999999995	-0.007178467799999991	-17.441424218272	-20.02416243608	-2.976135429792	-7.93324	-9.500399999999999	-1.42622	1.41216	-7.0608	-6.11936	0.9265729089563288	60.965
10246	0	1120107	1257	3	-12	68	-13	26	1257	3	-12	68	-13	26	-28658	-32765	-4863	-28658	-32765	-4863	96	-224	-192	61.39	0.9271157167530224	60.55	0.926099185788305	3520.870361328125	-11748.560546875	622.5	1	12	0.6000000238418579	5.414999961853027	15	0	0.0	0.0	0.0	0.0	0.0734158407964055	0.0	0.0	-0.5415158084159479	0.0861416136	0.0215354034	9.0233340246	-0.0321924947202205	-0.7032609581947327	-0.0319469720125198	0.7094836831092834	6	35.34783935546875	-117.80934244791666	9.0233340246	0.0215354034	-0.0861416136	0.48813581040000004	-0.0933200814	0.1866401628	0.08307767209599999	-0.015882496136	0.031764992272	-35.012351866576	-40.02999891508	-5.941275285335999	0.72906	0.00174	-0.00696	-16.62164	-19.0037	-2.82054	4.7557349175	-0.035892339	0.050249274600000005	-17.464637097239997	-20.022940705608	-2.954755146532	-7.946289999999999	-9.500979999999998	-1.4137499999999998	2.82432	-6.59008	-5.64864	0.9266074512706637	60.97
10247	0	1120213	1267	5	-19	69	-14	25	1267	5	-19	69	-14	25	-28658	-32765	-4863	-28658	-32765	-4863	80	-256	-208	61.39	0.9270565013570194	60.55	0.9260893165556378	3520.870361328125	-11748.560546875	622.5	1	12	0.6000000238418579	5.422500133514404	15	0	0.0	0.0	0.0	0.0	0.0074750598041468	0.0	0.0	-0.6252673917422199	0.1363908881999999	0.0358923389999999	9.0951187026	-0.0321175903081893	-0.7032091021537781	-0.031967919319868	0.7095376253128052	6	35.34783935546875	-117.80934244791666	9.0951187026	0.035892339	-0.1363908882	0.4953142782	-0.10049854920000001	0.179461695	0.08429940256799999	-0.017104226607999998	0.0305432618	-35.012351866576	-40.02999891508	-5.941275285335999	0.73486	0.0029	-0.01102	-16.62164	-19.0037	-2.82054	4.7952164904000005	-0.03230310510000001	0.0215354034	-17.464026232004	-20.023551570844	-2.9553660117679996	-7.94339	-9.500399999999999	-1.4157799999999998	2.3536	-7.53152	-6.11936	0.9265729089563286	60.97
10248	0	1120318	1268	1	-16	70	-19	23	1268	1	-16	70	-19	23	-28618	-32765	-4885	-28618	-32765	-4885	80	-256	-192	61.39	0.9270663705896868	60.55	0.9262077473476438	3520.870361328125	-11748.560546875	622.5	1	12	0.6000000238418579	5.422500133514404	15	0	0.0	0.0	0.0	0.0	-0.061468003339122	0.0	0.0	-0.6993010967074091	0.1148554847999999	0.0071784677999999	9.1022971704	-0.0320435017347335	-0.703183114528656	-0.0319100208580493	0.7095692753791809	6	35.34783935546875	-117.80934244791666	9.1022971704	0.0071784678	-0.1148554848	0.502492746	-0.1363908882	0.1651047594	0.08552113303999999	-0.023212878968	0.028099800855999998	-34.963482647696	-40.02999891508	-5.968153355719999	0.73544	0.00058	-0.00928	-16.59844	-19.0037	-2.8333	4.8023949582	-0.0646062102	0.025124637299999995	-17.438980757328	-20.026605897024	-2.9700267774319995	-7.9315	-9.50156	-1.42129	2.3536	-7.53152	-5.64864	0.9266370589686652	60.97
10249	0	1120426	1271	1	-18	69	-17	23	1271	1	-18	69	-17	23	-28618	-32765	-4885	-28618	-32765	-4885	128	-240	-224	61.39	0.926957809030348	60.55	0.9260301011596348	3520.870361328125	-11748.560546875	622.5	1	12	0.6000000238418579	5.414999961853027	15	0	0.0	0.0	0.0	0.0	0.0229457029344439	0.0	0.0	-0.6055819950402997	0.1292124204	0.0071784677999999	9.1238325738	-0.0320308618247509	-0.7032195329666138	-0.0319071747362613	0.7095338702201843	6	35.34783935546875	-117.80934244791666	9.1238325738	0.0071784678	-0.1292124204	0.4953142782	-0.12203395260000001	0.1651047594	0.08429940256799999	-0.020769418023999998	0.028099800855999998	-34.963482647696	-40.02999891508	-5.968153355719999	0.7371800000000001	0.00058	-0.01044	-16.59844	-19.0037	-2.8333	4.809573426	-0.0574277424	0.017946169499999998	-17.439591622564	-20.025384166552	-2.9700267774319995	-7.93063	-9.50156	-1.42187	3.76576	-7.0608	-6.59008	0.9264939550949913	60.97
10250	0	1120531	1271	9	-13	68	-14	23	1271	9	-13	68	-14	23	-28625	-32765	-4944	-28625	-32765	-4944	96	-272	-192	61.39	0.9270071551936836	60.55	0.9262176165803108	3520.870361328125	-11748.560546875	622.5	1	12	0.6000000238418579	5.421249866485596	15	0	0.0	0.0	0.0	0.0	0.0345786593302253	0.0	0.0	-0.5974487906482159	0.0933200813999999	0.0646062102	9.1238325738	-0.032036080956459	-0.7032225728034973	-0.0318862907588481	0.7095315456390381	6	35.34783935546875	-117.80934244791666	9.1238325738	0.0646062102	-0.0933200814	0.48813581040000004	-0.10049854920000001	0.1651047594	0.08307767209599999	-0.017104226607999998	0.028099800855999998	-34.972034760999996	-40.02999891508	-6.040235453568	0.7371800000000001	0.00522	-0.00754	-16.6025	-19.0037	-2.86752	4.8059841920999995	-0.017946169500000005	0.035892338999999995	-17.444478544451997	-20.023551570844	-3.006067826356	-7.932659999999999	-9.499239999999999	-1.43753	2.82432	-8.00224	-5.64864	0.9266123858869972	60.97
10251	0	1120636	1269	4	-17	68	-12	24	1269	4	-17	68	-12	24	-28652	-32765	-4922	-28652	-32765	-4922	128	-224	-160	61.39	0.9268492474710092	60.55	0.9262176165803108	3520.870361328125	-11748.560546875	622.5	1	12	0.6000000238418579	5.414999961853027	15	0	0.0	0.0	0.0	0.0	0.0613999349761483	0.0	0.0	-0.5773745662726961	0.1220339526	0.0287138711999999	9.1094756382	-0.0320079252123832	-0.7032010555267334	-0.0318990908563137	0.709553599357605	6	35.34783935546875	-117.80934244791666	9.109475638200001	0.0287138712	-0.12203395260000001	0.48813581040000004	-0.0861416136	0.1722832272	0.08307767209599999	-0.014660765664	0.029321531328	-35.005021483743995	-40.02999891508	-6.013357383183999	0.73602	0.00232	-0.00986	-16.61816	-19.0037	-2.85476	4.7988057243	-0.028713871199999998	0.025124637299999995	-17.460971905823996	-20.022329840372	-2.9920179259279998	-7.94107	-9.500689999999999	-1.4323100000000002	3.76576	-6.59008	-4.7072	0.92653343202566	60.97
10252	0	1120742	1263	6	-17	69	-17	25	1263	6	-17	69	-17	25	-28652	-32765	-4922	-28652	-32765	-4922	80	-272	-240	61.39	0.9268492474710092	60.55	0.9260301011596348	3520.870361328125	-11748.560546875	622.5	1	12	0.6000000238418579	5.422500133514404	15	0	0.0	0.0	0.0	0.0	0.0897370453287875	0.0	0.0	-0.5531823588725503	0.1220339526	0.0430708068	9.0664048314	-0.0319731049239635	-0.7031797766685486	-0.0318666212260723	0.709577739238739	6	35.34783935546875	-117.80934244791666	9.0664048314	0.0430708068	-0.12203395260000001	0.4953142782	-0.12203395260000001	0.179461695	0.08429940256799999	-0.020769418023999998	0.0305432618	-35.005021483743995	-40.02999891508	-6.013357383183999	0.73254	0.00348	-0.00986	-16.61816	-19.0037	-2.85476	4.7808595548	-0.039481572900000005	0.028713871199999998	-17.460361040587998	-20.025384166552	-2.9914070606919996	-7.94281	-9.50011	-1.4323100000000002	2.3536	-8.00224	-7.0608	0.926439674315322	60.97
10253	0	1120847	1268	4	-21	71	-18	26	1268	4	-21	71	-18	26	-28647	-32765	-4885	-28647	-32765	-4885	64	-304	-256	61.39	0.9267900320750062	60.55	0.926158401184308	3520.870361328125	-11748.560546875	622.5	1	12	0.6000000238418579	5.421249866485596	15	0	0.0	0.0	0.0	0.0	0.1241453022063024	0.0	0.0	-0.5256602676585741	0.1507478237999999	0.0287138711999999	9.1022971704	-0.0319261401891708	-0.7031785845756531	-0.0318203717470169	0.709583044052124	6	35.34783935546875	-117.80934244791666	9.1022971704	0.0287138712	-0.1507478238	0.5096712138	-0.1292124204	0.1866401628	0.086742863512	-0.021991148496	0.031764992272	-34.998912831384	-40.02999891508	-5.968153355719999	0.73544	0.00232	-0.01218	-16.61526	-19.0037	-2.8333	4.8059841921	-0.0502492746	0.017946169499999998	-17.456084983935998	-20.025995031788	-2.968194181724	-7.939909999999999	-9.500689999999999	-1.42274	1.88288	-8.94368	-7.53152	0.9264742166296571	60.97
10254	0	1120954	1268	0	-27	67	-14	23	1268	0	-27	67	-14	23	-28647	-32765	-4885	-28647	-32765	-4885	48	-256	-304	61.4	0.9270170244263508	60.55	0.9262077473476438	3520.870361328125	-11748.560546875	622.5	1	12	0.6000000238418579	5.416250228881836	15	0	0.0	0.0	0.0	0.0	0.0781324600719336	0.0	0.0	-0.5881714197856448	0.1938186305999999	0.0	9.1022971704	0.0670896098017692	-0.6979634165763855	0.0659372135996818	0.7099284529685974	6	35.34783935546875	-117.80934244791666	9.1022971704	0.0	-0.1938186306	0.4809573426	-0.10049854920000001	0.1651047594	0.08185594162399999	-0.017104226607999998	0.028099800855999998	-34.998912831384	-40.02999891508	-5.968153355719999	0.73544	0.0	-0.01566	-16.61526	-19.0037	-2.8333	4.7916272565	-0.050249274600000005	-0.01435693560000001	-17.45852844488	-20.023551570844	-2.9700267774319995	-7.939909999999999	-9.50185	-1.42448	1.41216	-7.53152	-8.94368	0.9266123858869972	60.974999999999994
10255	0	1121059	1265	10	-22	69	-17	23	1265	10	-22	69	-17	23	-28643	-32765	-4875	-28643	-32765	-4875	80	-272	-256	61.39	0.926957809030348	60.55	0.926158401184308	3520.870361328125	-11748.560546875	622.4000244140625	1	12	0.6000000238418579	5.414999961853027	15	0	0.0	0.0	0.0	0.0	0.0415511165043082	0.0	0.0	-0.630867662627298	0.1579262916	0.0717846779999999	9.080761766999998	0.0671614408493042	-0.6978890895843506	0.0659422427415847	0.7099943161010742	6	35.34783935546875	-117.80934244791666	9.080761767	0.071784678	-0.15792629160000002	0.4953142782	-0.12203395260000001	0.1651047594	0.08429940256799999	-0.020769418023999998	0.028099800855999998	-34.994025909495996	-40.02999891508	-5.955936050999999	0.7337	0.0058	-0.01276	-16.612940000000002	-19.0037	-2.8275	4.7880380226	-0.025124637300000002	0.0035892338999999884	-17.454863253463998	-20.025384166552	-2.9639181250719995	-7.939620000000001	-9.498949999999999	-1.4201300000000001	2.3536	-8.00224	-7.53152	0.926558105107328	60.97
10256	0	1121167	1265	4	-17	72	-17	21	1265	4	-17	72	-17	21	-28643	-32765	-4875	-28643	-32765	-4875	48	-192	-176	61.39	0.9268985936343448	60.55	0.9262768319763138	3520.870361328125	-11748.560546875	622.4000244140625	1	12	0.6000000238418579	5.422500133514404	15	0	0.0	0.0	0.0	0.0	0.0480421050187489	0.0	0.0	-0.6279592159560475	0.1220339526	0.0287138711999999	9.080761766999998	0.0672601163387298	-0.6978188753128052	0.0659980252385139	0.7100487947463989	6	35.34783935546875	-117.80934244791666	9.080761767	0.0287138712	-0.12203395260000001	0.5168496816	-0.12203395260000001	0.1507478238	0.087964593984	-0.020769418023999998	0.025656339912	-34.994025909495996	-40.02999891508	-5.955936050999999	0.7337	0.00232	-0.00986	-16.612940000000002	-19.0037	-2.8275	4.7988057243	-0.0466600407	0.014356935600000002	-17.453030657756	-20.025384166552	-2.965139855544	-7.939620000000001	-9.500689999999999	-1.4186800000000002	1.41216	-5.64864	-5.17792	0.9265877128053293	60.97
10257	0	1121273	1262	-1	-21	69	-17	22	1262	-1	-21	69	-17	22	-28627	-32765	-4857	-28627	-32765	-4857	64	-272	-160	61.39	0.9270071551936836	60.55	0.9262176165803108	3520.870361328125	-11748.560546875	622.4000244140625	1	12	0.6000000238418579	5.414999961853027	15	0	0.0	0.0	0.0	0.0	-0.0067092662675879	0.0	0.0	-0.6884687018002299	0.1507478237999999	-0.0071784677999999	9.0592263636	0.0672247484326362	-0.6978400945663452	0.0661185905337333	0.7100200057029724	6	35.34783935546875	-117.80934244791666	9.0592263636	-0.0071784678	-0.1507478238	0.4953142782	-0.12203395260000001	0.15792629160000002	0.08429940256799999	-0.020769418023999998	0.026878070384	-34.974478221944	-40.02999891508	-5.933944902504	0.73196	-0.00058	-0.01218	-16.60366	-19.0037	-2.81706	4.7772703209000005	-0.0646062102	0.0035892339000000023	-17.445089409688	-20.025384166552	-2.95353341606	-7.93585	-9.502139999999999	-1.41462	1.88288	-8.00224	-4.7072	0.9266123858869972	60.97
10258	0	1121379	1271	2	-23	70	-15	24	1271	2	-23	70	-15	24	-28627	-32765	-4857	-28627	-32765	-4857	32	-272	-208	61.4	0.9270170244263508	60.55	0.926158401184308	3520.870361328125	-11748.560546875	622.4000244140625	1	12	0.6000000238418579	5.421249866485596	15	0	0.0	0.0	0.0	0.0	0.0029080265583932	0.0	0.0	-0.6772434806078965	0.1651047594	0.0143569355999999	9.1238325738	0.067253328859806	-0.6977896094322205	0.0661350563168525	0.710065484046936	6	35.34783935546875	-117.80934244791666	9.1238325738	0.0143569356	-0.1651047594	0.502492746	-0.107677017	0.1722832272	0.08552113303999999	-0.01832595708	0.029321531328	-34.974478221944	-40.02999891508	-5.933944902504	0.7371800000000001	0.00116	-0.01334	-16.60366	-19.0037	-2.81706	4.8131626599	-0.0466600407	0.0035892339000000023	-17.444478544452	-20.02416243608	-2.952311685588	-7.9332400000000005	-9.50127	-1.4152	0.94144	-8.00224	-6.11936	0.9265877128053295	60.974999999999994
10259	0	1121484	1274	2	-16	67	-18	22	1274	2	-16	67	-18	22	-28627	-32765	-4838	-28627	-32765	-4838	96	-288	-176	61.4	0.9269676782630152	60.55	0.926099185788305	3520.870361328125	-11748.560546875	622.4000244140625	1	12	0.6000000238418579	5.416250228881836	15	0	0.0	0.0	0.0	0.0	0.0797947599105616	0.0	0.0	-0.5942664118315457	0.1148554847999999	0.0143569355999999	9.1453679772	0.0672664567828178	-0.6977798342704773	0.0661802291870117	0.7100695371627808	6	35.34783935546875	-117.80934244791666	9.145367977200001	0.0143569356	-0.1148554848	0.4809573426	-0.1292124204	0.15792629160000002	0.08185594162399999	-0.021991148496	0.026878070384	-34.974478221944	-40.02999891508	-5.910732023535999	0.73892	0.00116	-0.00928	-16.60366	-19.0037	-2.80604	4.813162659900001	-0.0574277424	0.021535403400000007	-17.44631114016	-20.025995031788	-2.9419269765759997	-7.932370000000001	-9.50127	-1.40766	2.82432	-8.47296	-5.17792	0.9265334320256601	60.974999999999994
10260	0	1121589	1264	7	-14	68	-15	22	1264	7	-14	68	-15	22	-28627	-32765	-4838	-28627	-32765	-4838	96	-192	-160	61.4	0.9270170244263508	60.56	0.926227485812978	3520.870361328125	-11748.560546875	622.4000244140625	1	12	0.6000000238418579	5.421249866485596	15	0	0.0	0.0	0.0	0.0	0.1322996407377222	0.0	0.0	-0.5487702787566466	0.1004985492	0.0502492746	9.0735832992	0.067184217274189	-0.6977264881134033	0.0662053376436233	0.7101274132728577	6	35.34783935546875	-117.80934244791666	9.073583299200001	0.050249274600000005	-0.10049854920000001	0.48813581040000004	-0.107677017	0.15792629160000002	0.08307767209599999	-0.01832595708	0.026878070384	-34.974478221944	-40.02999891508	-5.910732023535999	0.73312	0.00406	-0.00812	-16.60366	-19.0037	-2.80604	4.7808595548	-0.028713871199999998	0.028713871200000005	-17.445700274923997	-20.02416243608	-2.9419269765759997	-7.935270000000001	-9.49982	-1.4070799999999999	2.82432	-5.64864	-4.7072	0.9266222551196643	60.980000000000004
10261	0	1121695	1270	2	-18	69	-15	23	1270	2	-18	69	-15	23	-28668	-32765	-4885	-28668	-32765	-4885	80	-272	-192	61.4	0.9269676782630152	60.56	0.926227485812978	3520.870361328125	-11748.560546875	622.4000244140625	1	12	0.6000000238418579	5.422500133514404	15	0	0.0	0.0	0.0	0.0	0.0478220612364255	0.0	0.0	-0.6481205885982064	0.1292124204	0.0143569355999999	9.116654106	0.067208208143711	-0.6976960301399231	0.0662264600396156	0.7101531624794006	6	35.34783935546875	-117.80934244791666	9.116654106	0.0143569356	-0.1292124204	0.4953142782	-0.107677017	0.1651047594	0.08429940256799999	-0.01832595708	0.028099800855999998	-35.024569171296	-40.02999891508	-5.968153355719999	0.7366	0.00116	-0.01044	-16.62744	-19.0037	-2.8333	4.8059841921	-0.0466600407	0.017946169499999998	-17.470134884364	-20.02416243608	-2.9700267774319995	-7.94542	-9.50127	-1.42187	2.3536	-8.00224	-5.64864	0.9265975820379966	60.980000000000004
10262	0	1121800	1266	0	-19	68	-12	24	1266	0	-19	68	-12	24	-28668	-32765	-4885	-28668	-32765	-4885	64	-240	-208	61.4	0.9269676782630152	60.55	0.926099185788305	3520.870361328125	-11748.560546875	622.4000244140625	1	12	0.6000000238418579	5.422500133514404	15	0	0.0	0.0	0.0	0.0	0.098235244799117	0.0	0.0	-0.5977527751734893	0.1363908881999999	0.0	9.0879402348	0.0672329887747764	-0.6976063251495361	0.0662337094545364	0.7102381587028503	6	35.34783935546875	-117.80934244791666	9.0879402348	0.0	-0.1363908882	0.48813581040000004	-0.0861416136	0.1722832272	0.08307767209599999	-0.014660765664	0.029321531328	-35.024569171296	-40.02999891508	-5.968153355719999	0.73428	0.0	-0.01102	-16.62744	-19.0037	-2.8333	4.788038022599999	-0.0430708068	0.017946169499999998	-17.4707457496	-20.022329840372	-2.9694159121959998	-7.94658	-9.50185	-1.4221599999999999	1.88288	-7.0608	-6.11936	0.9265334320256601	60.974999999999994
10263	0	1121908	1265	6	-22	70	-14	23	1265	6	-22	70	-14	23	-28635	-32765	-4848	-28635	-32765	-4848	64	-208	-224	61.39	0.9268985936343448	60.56	0.926227485812978	3520.870361328125	-11748.560546875	622.4000244140625	1	12	0.6000000238418579	5.414999961853027	15	0	0.0	0.0	0.0	0.0	0.0772741205275464	0.0	0.0	-0.6260613567442235	0.1579262916	0.0430708068	9.080761766999998	0.1788378357887268	-0.6788625121116638	0.175975352525711	0.6900691986083984	6	35.34783935546875	-117.80934244791666	9.080761767	0.0430708068	-0.15792629160000002	0.502492746	-0.10049854920000001	0.1651047594	0.08552113303999999	-0.017104226607999998	0.028099800855999998	-34.98425206572	-40.02999891508	-5.922949328255999	0.7337	0.00348	-0.01276	-16.6083	-19.0037	-2.81184	4.7916272565	-0.028713871200000005	0.0035892338999999884	-17.44936546634	-20.023551570844	-2.9474247636999995	-7.9373	-9.50011	-1.4123	1.88288	-6.11936	-6.59008	0.9265630397236614	60.975
10264	0	1122013	1269	4	-15	68	-16	24	1269	4	-15	68	-16	24	-28635	-32765	-4848	-28635	-32765	-4848	64	-224	-224	61.4	0.9268591167036764	60.56	0.926168270416975	3520.870361328125	-11748.560546875	622.4000244140625	1	12	0.6000000238418579	5.414999961853027	15	0	0.0	0.0	0.0	0.0	0.0606241937945945	0.0	0.0	-0.64666927895271	0.1076770169999999	0.0287138711999999	9.1094756382	0.1788539141416549	-0.6788681149482727	0.1760538518428802	0.6900395154953003	6	35.34783935546875	-117.80934244791666	9.109475638200001	0.0287138712	-0.107677017	0.48813581040000004	-0.1148554848	0.1722832272	0.08307767209599999	-0.019547687552	0.029321531328	-34.98425206572	-40.02999891508	-5.922949328255999	0.73602	0.00232	-0.0087	-16.6083	-19.0037	-2.81184	4.7988057243	-0.0430708068	0.0323031051	-17.450587196812	-20.024773301316	-2.9468138984639998	-7.93614	-9.500689999999999	-1.4102700000000001	1.88288	-6.59008	-6.59008	0.9265136935603258	60.980000000000004
10265	0	1122120	1268	9	-12	69	-14	24	1271	3	-13	69	-12	24	-28650	-32765	-4867	-28650	-32765	-4867	80	-272	-208	61.4	0.926908462867012	60.56	0.926109055020972	3520.870361328125	-11748.560546875	622.4000244140625	1	12	0.6000000238418579	5.422500133514404	15	0	0.0	0.0	0.0	0.0	0.0517378984977414	0.0	0.0	-0.6531807907326189	0.0897308474999999	0.0430708068	9.1130648721	0.1788709610700607	-0.6788260340690613	0.1761060804128646	0.6900631189346313	6	35.34783935546875	-117.80934244791666	9.1022971704	0.0646062102	-0.0861416136	0.4953142782	-0.0861416136	0.1722832272	0.08429940256799999	-0.017104226607999998	0.029321531328	-35.002578022799995	-40.02999891508	-5.946162207224	0.7371800000000001	0.00174	-0.00754	-16.617	-19.0037	-2.82286	4.7988057243	-0.0107677017	0.0430708068	-17.459139310115997	-20.023551570844	-2.958420337948	-7.93991	-9.500979999999998	-1.4152	2.3536	-8.00224	-6.11936	0.926508758943992	60.980000000000004
10266	0	1122226	1269	11	-27	68	-13	23	1269	11	-27	68	-13	23	-28650	-32765	-4867	-28650	-32765	-4867	32	-224	-176	61.4	0.9269676782630152	60.56	0.926168270416975	3520.870361328125	-11748.560546875	622.4000244140625	1	12	0.6000000238418579	5.413750171661377	15	0	0.0	0.0	0.0	0.0	0.0946831067488928	0.0	0.0	-0.6093275577912779	0.1938186305999999	0.0789631458	9.1094756382	0.1788990497589111	-0.6787474751472473	0.1761977225542068	0.6901096701622009	6	35.34783935546875	-117.80934244791666	9.109475638200001	0.07896314580000001	-0.1938186306	0.48813581040000004	-0.0933200814	0.1651047594	0.08307767209599999	-0.015882496136	0.028099800855999998	-35.002578022799995	-40.02999891508	-5.946162207224	0.73602	0.00638	-0.01566	-16.617	-19.0037	-2.82286	4.7988057243	-0.007178467799999998	-0.01435693560000001	-17.459750175351996	-20.022940705608	-2.959031203184	-7.9404900000000005	-9.49866	-1.41926	0.94144	-6.59008	-5.17792	0.926567974339995	60.980000000000004
10267	0	1122332	1266	7	-17	69	-16	21	1266	7	-17	69	-16	21	-28659	-32765	-4857	-28659	-32765	-4857	80	-208	-144	61.4	0.9269676782630152	60.56	0.926227485812978	3520.870361328125	-11748.560546875	622.4000244140625	1	12	0.6000000238418579	5.422500133514404	15	0	0.0	0.0	0.0	0.0	0.0441849754373764	0.0	0.0	-0.6682546363235172	0.1220339526	0.0502492746	9.0879402348	0.1789113283157348	-0.6787506937980652	0.1762865036725998	0.6900806427001953	6	35.34783935546875	-117.80934244791666	9.0879402348	0.050249274600000005	-0.12203395260000001	0.4953142782	-0.1148554848	0.1507478238	0.08429940256799999	-0.019547687552	0.025656339912	-35.013573597048	-40.02999891508	-5.933944902504	0.73428	0.00406	-0.00986	-16.62222	-19.0037	-2.81706	4.7916272565	-0.0323031051	0.014356935600000002	-17.46463709724	-20.024773301316	-2.954144281296	-7.943969999999999	-9.49982	-1.4134600000000002	2.3536	-6.11936	-4.23648	0.9265975820379966	60.980000000000004
10268	0	1122437	1270	0	-18	72	-12	24	1270	0	-18	72	-12	24	-28659	-32765	-4857	-28659	-32765	-4857	32	-192	-224	61.4	0.9269183320996792	60.56	0.926109055020972	3520.870361328125	-11748.5595703125	622.4000244140625	1	12	0.6000000238418579	5.414999961853027	15	0	0.0	0.0	0.0	0.0	0.084897359317522	0.0	0.0	-0.6253685560440853	0.1292124204	0.0	9.116654106	0.1789112091064453	-0.6787199378013611	0.1763435304164886	0.6900964379310608	6	35.34783935546875	-117.809326171875	9.116654106	0.0	-0.1292124204	0.5168496816	-0.0861416136	0.1722832272	0.087964593984	-0.014660765664	0.029321531328	-35.013573597048	-40.02999891508	-5.933944902504	0.7366	0.0	-0.01044	-16.62222	-19.0037	-2.81706	4.8167518938	-0.0430708068	0.0215354034	-17.462804501532002	-20.022329840372	-2.952311685588	-7.94281	-9.50185	-1.41375	0.94144	-5.64864	-6.59008	0.9265136935603255	60.980000000000004
10269	0	1122542	1267	0	-25	70	-15	25	1267	0	-25	70	-15	25	-28625	-32765	-4878	-28625	-32765	-4878	64	-304	-160	61.4	0.9268591167036764	60.56	0.926158401184308	3520.870361328125	-11748.5595703125	622.4000244140625	1	12	0.6000000238418579	5.422500133514404	15	0	0.0	0.0	0.0	0.0	0.0994186465557286	0.0	0.0	-0.6096363801586075	0.1794616949999999	0.0	9.0951187026	0.1789607107639312	-0.6786491870880127	0.1763627529144287	0.6901482939720154	6	35.34783935546875	-117.809326171875	9.0951187026	0.0	-0.179461695	0.502492746	-0.107677017	0.179461695	0.08552113303999999	-0.01832595708	0.0305432618	-34.972034760999996	-40.02999891508	-5.959601242415999	0.73486	0.0	-0.0145	-16.6025	-19.0037	-2.82924	4.7988057243	-0.0538385085	0.0	-17.44325681398	-20.02416243608	-2.9645289903079997	-7.93382	-9.50185	-1.42187	1.88288	-8.94368	-4.7072	0.9265087589439922	60.980000000000004
10270	0	1122648	1269	2	-22	69	-13	23	1269	2	-22	69	-13	23	-28625	-32765	-4878	-28625	-32765	-4878	80	-304	-176	61.4	0.9270762398223538	60.56	0.926168270416975	3520.870361328125	-11748.5595703125	622.4000244140625	1	12	0.6000000238418579	5.422500133514404	15	0	0.0	0.0	0.0	0.0	0.1380849445725726	0.0	0.0	-0.5765860157949481	0.1579262916	0.0143569355999999	9.1094756382	0.1789599359035492	-0.6785913109779358	0.1763698607683181	0.6902034878730774	6	35.34783935546875	-117.809326171875	9.109475638200001	0.0143569356	-0.15792629160000002	0.4953142782	-0.0933200814	0.1651047594	0.08429940256799999	-0.015882496136	0.028099800855999998	-34.972034760999996	-40.02999891508	-5.959601242415999	0.73602	0.00116	-0.01276	-16.6025	-19.0037	-2.82924	4.802394958200001	-0.039481572900000005	0.0035892338999999884	-17.443867679215998	-20.022940705608	-2.9657507207799996	-7.93324	-9.50127	-1.421	2.3536	-8.94368	-5.17792	0.9266222551196643	60.980000000000004
10271	0	1122753	1271	8	-20	71	-14	23	1271	8	-20	71	-14	23	-28649	-32765	-4870	-28649	-32765	-4870	128	-272	-160	61.4	0.9270762398223538	60.56	0.926168270416975	3520.870361328125	-11748.5595703125	622.2999877929688	1	12	0.6000000238418579	5.421249866485596	15	0	0.0	0.0	0.0	0.0	0.1866129736212565	0.0	0.0	-0.5334418076427434	0.1435693559999999	0.0574277423999999	9.1238325738	0.1790022850036621	-0.6785428524017334	0.1764469891786575	0.6902205348014832	6	35.34783935546875	-117.809326171875	9.1238325738	0.0574277424	-0.143569356	0.5096712138	-0.10049854920000001	0.1651047594	0.086742863512	-0.017104226607999998	0.028099800855999998	-35.001356292328	-40.02999891508	-5.94982739864	0.7371800000000001	0.00464	-0.0116	-16.61642	-19.0037	-2.8246	4.8167518938	-0.021535403400000003	0.010767701699999993	-17.457306714408	-20.023551570844	-2.960863798892	-7.939620000000001	-9.49953	-1.4181000000000001	3.76576	-8.00224	-4.7072	0.9266222551196643	60.980000000000004
10272	0	1122859	1260	2	-22	71	-16	23	1260	2	-22	71	-16	23	-28649	-32765	-4870	-28649	-32765	-4870	112	-288	-224	61.4	0.9269183320996792	60.56	0.926109055020972	3520.870361328125	-11748.5595703125	622.2999877929688	1	12	0.6000000238418579	5.422500133514404	15	0	0.0	0.0	0.0	0.0	0.1511700901291912	0.0	0.0	-0.5810159782678653	0.1579262916	0.0143569355999999	9.044869427999998	0.1791040301322937	-0.6784921884536743	0.1764889806509018	0.6902331709861755	6	35.34783935546875	-117.809326171875	9.044869428	0.0143569356	-0.15792629160000002	0.5096712138	-0.1148554848	0.1651047594	0.086742863512	-0.019547687552	0.028099800855999998	-35.001356292328	-40.02999891508	-5.94982739864	0.7308	0.00116	-0.01276	-16.61642	-19.0037	-2.8246	4.7772703209000005	-0.050249274600000005	0.0035892338999999884	-17.457306714408	-20.024773301316	-2.960863798892	-7.942810000000001	-9.50127	-1.4186800000000002	3.29504	-8.47296	-6.59008	0.9265136935603255	60.980000000000004
10273	0	1122965	1274	3	-20	68	-13	27	1274	3	-20	68	-13	27	-28647	-32765	-4919	-28647	-32765	-4919	80	-192	-192	61.4	0.9269183320996792	60.56	0.9259906242289662	3520.870361328125	-11748.5595703125	622.2999877929688	1	12	0.6000000238418579	5.414999961853027	15	0	0.0	0.0	0.0	0.0	0.1716013769671621	0.0	0.0	-0.5664699016756528	0.1435693559999999	0.0215354034	9.1453679772	0.0322304181754589	-0.7032288312911987	0.0318528190255165	0.7095180153846741	6	35.34783935546875	-117.809326171875	9.145367977200001	0.0215354034	-0.143569356	0.48813581040000004	-0.0933200814	0.1938186306	0.08307767209599999	-0.015882496136	0.032986722744	-34.998912831384	-40.02999891508	-6.009692191768	0.73892	0.00174	-0.0116	-16.61526	-19.0037	-2.85302	4.8167518938	-0.035892339	0.025124637300000002	-17.457917579643997	-20.022940705608	-2.988352734512	-7.9381699999999995	-9.500979999999998	-1.43231	2.3536	-5.64864	-5.64864	0.9264544781643227	60.980000000000004
10274	0	1123071	1269	2	-17	71	-12	25	1269	2	-17	71	-12	25	-28646	-32765	-4895	-28646	-32765	-4895	128	-256	-160	61.4	0.9269676782630152	60.56	0.926168270416975	3520.870361328125	-11748.5595703125	622.2999877929688	1	12	0.6000000238418579	5.412499904632568	15	0	0.0	0.0	0.0	0.0	0.1170224535969321	0.0	0.0	-0.629112260201399	0.1220339526	0.0143569355999999	9.1094756382	0.032326940447092	-0.7031409740447998	0.0318399667739868	0.7096012830734253	6	35.34783935546875	-117.809326171875	9.109475638200001	0.0143569356	-0.12203395260000001	0.5096712138	-0.0861416136	0.179461695	0.086742863512	-0.014660765664	0.0305432618	-34.997691100912	-40.02999891508	-5.980370660439999	0.73602	0.00116	-0.00986	-16.61468	-19.0037	-2.8391	4.809573426000001	-0.035892339	0.028713871199999998	-17.4554741187	-20.022329840372	-2.9749136993199996	-7.93933	-9.50127	-1.4244800000000002	3.76576	-7.53152	-4.7072	0.926567974339995	60.980000000000004
