	packetType	timestamp_s	timestamp_ms	imu1_accel_x	imu1_accel_y	imu1_accel_z	imu1_gyro_x	imu1_gyro_y	imu1_gyro_z	imu1_mag_x	imu1_mag_y	imu1_mag_z	imu2_accel_x	imu2_accel_y	imu2_accel_z	imu2_gyro_x	imu2_gyro_y	imu2_gyro_z	imu2_mag_x	imu2_mag_y	imu2_mag_z	high_g_accel_x	high_g_accel_y	high_g_accel_z	baro1_temp	baro1_pres	baro2_temp	baro2_pres	gps_lat	gps_long	gps_alt	battery_voltage	pyro_cont	pyro_status	heading	vtg	pos_x	pos_y	pos_z	vel_x	vel_y	vel_z	acc_x	acc_y	acc_z	q_x	q_y	q_z	q_w	state	gps_lat_mod	gps_long_mod	imu1_accel_x_real	imu1_accel_y_real	imu1_accel_z_real	imu2_accel_x_real	imu2_accel_y_real	imu2_accel_z_real	imu1_gyro_x_real	imu1_gyro_y_real	imu1_gyro_z_real	imu2_gyro_x_real	imu2_gyro_y_real	imu2_gyro_z_real	imu1_mag_x_real	imu1_mag_y_real	imu1_mag_z_real	imu2_mag_x_real	imu2_mag_y_real	imu2_mag_z_real	imu_accel_x_avg	imu_accel_y_avg	imu_accel_z_avg	imu_gyro_x_avg	imu_gyro_y_avg	imu_gyro_z_avg	imu_mag_x_avg	imu_mag_y_avg	imu_mag_z_avg	high_g_accel_x_real	high_g_accel_y_real	high_g_accel_z_real	baro_pres_avg	baro_temp_avg
8074	0	857.285	0	-172	1330	-61	-37	99	92	-103	-2568	-2647	-183	1331	-87	36	6	59	905	-1018	-640	-176	32	304	34.29	0.995993091537133	37.56	0.9968319763138416	4449.48779296875	-7309.8701171875	26.5	11.9818115234375	3	0	0.0	0.0	0.0	0.0	0.2493383607966151	0.0	0.0	-0.1700742778434327	0.5312066172	1.2741780344999998	9.5509514079	0.4253633022308349	-0.5410261750221252	0.3691832423210144	0.6245481967926025	6	44.82479654947917	-73.164501953125	-1.2346964616	9.547362174	-0.43788653580000003	-1.3136596074	9.554540641800001	-0.6245266986	-0.011301006866	0.030237829182	0.028099800855999998	0.010995574248	0.001832595708	0.018020524462	-0.05974	-1.48944	-1.53526	0.5249	-0.59044	-0.3712	-1.2741780345	9.550951407900001	-0.5312066172000001	-0.00015271630899999986	0.016035212445	0.023060162659	0.23258	-1.03994	-0.95323	-5.17792	0.94144	8.94368	0.9964125339254872	35.925
8075	0	857.391	0	-172	1323	-56	-46	113	96	-101	-2586	-2660	-185	1331	-84	43	9	70	905	-1018	-640	-128	80	416	34.29	0.9961115223291388	37.56	0.9967628916851716	4449.48779296875	-7309.8701171875	26.700000762939453	11.9818115234375	3	0	0.0	0.0	0.0	0.0	0.2577392786231839	0.0	0.0	-0.1693295469583981	0.5024927459999999	1.2813565023	9.525826770599998	0.4253729581832886	-0.540977418422699	0.3691803216934204	0.6245856881141663	6	44.82479654947917	-73.164501953125	-1.2346964616	9.497112899400001	-0.40199419680000004	-1.3280165430000002	9.554540641800001	-0.6029912952	-0.014049900427999999	0.034513885833999995	0.029321531328	0.013133602574	0.002748893562	0.021380283259999997	-0.05858	-1.49988	-1.5428	0.5249	-0.59044	-0.3712	-1.2813565023	9.525826770600002	-0.502492746	-0.00045814892699999957	0.018631389697999996	0.025350907293999997	0.23316	-1.04516	-0.957	-3.76576	2.3536	12.23872	0.9964372070071552	35.925
8076	0	857.496	0	-173	1331	-61	-48	123	96	-101	-2586	-2660	-187	1332	-84	38	27	69	909	-1010	-716	-192	16	320	34.28	0.9960325684678016	37.56	0.9967135455218356	4449.48779296875	-7309.8701171875	26.700000762939453	11.9490966796875	3	0	0.0	0.0	0.0	0.0	0.2050328329512737	0.0	0.0	-0.2329922354952233	0.5204389155	1.2921242039999998	9.5581298757	0.4254283607006073	-0.5408501625061035	0.3692488670349121	0.6246176362037659	6	44.82479654947917	-73.164501953125	-1.2418749294	9.554540641800001	-0.43788653580000003	-1.3423734786000001	9.5617191096	-0.6029912952	-0.014660765664	0.037568212014	0.029321531328	0.011606439484	0.008246680686	0.021074850641999997	-0.05858	-1.49988	-1.5428	0.52722	-0.5858	-0.41528	-1.292124204	9.5581298757	-0.5204389155	-0.0015271630900000003	0.02290744635	0.025198190985	0.23432	-1.04284	-0.9790399999999999	-5.64864	0.47072	9.4144	0.9963730569948186	35.92
8077	0	857.602	0	-175	1326	-61	-41	109	97	-76	-2564	-2640	-181	1335	-83	35	13	59	909	-1010	-716	-128	-32	352	34.28	0.9962595608191464	37.56	0.9967727609178386	4449.48779296875	-7309.8701171875	26.700000762939453	11.9654541015625	3	0	0.0	0.0	0.0	0.0	0.0970734262115206	0.0	0.0	-0.3489710710724469	0.5168496816	1.2777672684	9.5509514079	0.4254314005374908	-0.5407847762107849	0.3692881762981415	0.624648928642273	6	44.82479654947917	-73.164501953125	-1.256231865	9.5186483028	-0.43788653580000003	-1.2993026718	9.583254513	-0.5958128274000001	-0.012522737337999999	0.033292155361999996	0.029626963946	0.010690141629999999	0.003970624034	0.018020524462	-0.04408	-1.48712	-1.5312000000000001	0.52722	-0.5858	-0.41528	-1.2777672683999999	9.550951407900001	-0.5168496816000001	-0.000916297854	0.018631389697999996	0.023823744204	0.24157	-1.03646	-0.9732400000000001	-3.76576	-0.94144	10.35584	0.9965161608684925	35.92
8078	0	857.707	0	-175	1328	-66	-43	124	94	-76	-2564	-2640	-182	1336	-79	37	22	72	884	-1047	-709	-16	-16	352	34.27	0.9959634838391316	37.57	0.9966839378238342	4449.48779296875	-7309.8701171875	26.700000762939453	11.9654541015625	3	0	0.0	0.0	0.0	0.0	0.1543917207060886	0.0	0.0	-0.277248981056321	0.5204389155	1.2813565023	9.561719109599998	0.4254135191440582	-0.5407647490501404	0.3693372309207916	0.6246494650840759	6	44.82479654947917	-73.164501953125	-1.256231865	9.533005238400001	-0.4737788748	-1.3064811396	9.590432980800001	-0.5670989562000001	-0.013133602574	0.037873644632	0.028710666091999997	0.011301006866	0.006719517596	0.021991148496	-0.04408	-1.48712	-1.5312000000000001	0.51272	-0.60726	-0.41122000000000003	-1.2813565023	9.561719109600002	-0.5204389155	-0.000916297854	0.022296581114	0.025350907293999997	0.23431999999999997	-1.04719	-0.9712100000000001	-0.47072	-0.47072	10.35584	0.9963237108314829	35.92
8079	0	857.813	0	-170	1327	-64	-47	108	96	-106	-2596	-2630	-180	1338	-84	51	18	65	884	-1047	-709	-112	80	352	34.28	0.9961016530964716	37.56	0.9967826301505058	4449.48779296875	-7309.8701171875	26.700000762939453	11.9981689453125	3	0	0.0	0.0	0.0	0.0	0.1275181829867171	0.0	0.0	-0.3029352819655885	0.5312066172	1.2562318649999995	9.5653083435	0.4166294634342193	-0.54676753282547	0.3618477880954742	0.629707396030426	6	44.82479654947917	-73.164501953125	-1.220339526	9.5258267706	-0.4594219392	-1.292124204	9.6047899164	-0.6029912952	-0.014355333045999999	0.032986722744	0.029321531328	0.015577063518	0.005497787124	0.01985312017	-0.06148	-1.50568	-1.5254	0.51272	-0.60726	-0.41122000000000003	-1.2562318650000002	9.5653083435	-0.5312066172000001	0.0006108652360000003	0.019242254934	0.024587325749	0.22562	-1.05647	-0.96831	-3.29504	2.3536	10.35584	0.9964421416234888	35.92
8080	0	857.918	0	-166	1327	-61	-62	112	103	-106	-2596	-2630	-181	1336	-83	33	16	62	910	-1033	-644	-128	32	288	34.29	0.995993091537133	37.56	0.99673328398717	4449.48779296875	-7309.8701171875	26.700000762939453	11.9490966796875	3	0	0.0	0.0	0.0	0.0	0.1180678955126395	0.0	0.0	-0.3049653021810785	0.5168496816	1.2454641633	9.5581298757	0.4165809452533722	-0.5467371344566345	0.3618459403514862	0.6297669410705566	6	44.82479654947917	-73.164501953125	-1.1916256548000002	9.5258267706	-0.43788653580000003	-1.2993026718	9.590432980800001	-0.5958128274000001	-0.018936822316	0.034208453215999995	0.031459559654	0.010079276394	0.004886921888	0.018936822316	-0.06148	-1.50568	-1.5254	0.5278	-0.59914	-0.37352	-1.2454641633	9.5581298757	-0.5168496816000001	-0.004428772961	0.019547687552	0.025198190985	0.23316000000000003	-1.05241	-0.9494600000000001	-3.76576	0.94144	8.47296	0.9963631877621515	35.925
8081	0	858.024	0	-179	1329	-49	-51	120	105	-95	-2588	-2655	-179	1339	-82	42	21	76	910	-1033	-644	-192	96	320	34.29	0.9960029607698	37.56	0.9967826301505058	4449.48779296875	-7309.8701171875	26.700000762939453	11.9490966796875	3	0	0.0	0.0	0.0	0.0	0.1221280792319657	0.0	0.0	-0.292377724425756	0.4701896409	1.2849457362	9.5760760452	0.4165697395801544	-0.5466394424438477	0.3618740737438202	0.62984299659729	6	44.82479654947917	-73.164501953125	-1.2849457362	9.5401837062	-0.35174492220000003	-1.2849457362	9.6119683842	-0.5886343596	-0.015577063518	0.03665191416	0.03207042489	0.012828169956	0.006414084978	0.023212878968	-0.0551	-1.50104	-1.5399	0.5278	-0.59914	-0.37352	-1.2849457362	9.5760760452	-0.47018964090000004	-0.0013744467809999996	0.021532999569	0.027641651928999998	0.23635000000000003	-1.05009	-0.9567100000000001	-5.64864	2.82432	9.4144	0.9963927954601529	35.925
8082	0	858.129	0	-174	1330	-59	-53	122	100	-95	-2588	-2655	-178	1331	-76	44	10	67	916	-1032	-615	-144	64	416	34.27	0.9960621761658032	37.57	0.9966839378238342	4449.48779296875	-7309.8701171875	26.700000762939453	11.9818115234375	3	0	0.0	0.0	0.0	0.0	0.0745796609448362	0.0	0.0	-0.3356017890663469	0.4845465764999999	1.2634103328	9.5509514079	0.4165225625038147	-0.5466001033782959	0.3618969023227691	0.6298952698707581	6	44.82479654947917	-73.164501953125	-1.2490533972	9.547362174	-0.4235296002	-1.2777672684	9.554540641800001	-0.5455635528	-0.016187928754	0.037262779396	0.0305432618	0.013439035192	0.0030543261799999997	0.020463985405999998	-0.0551	-1.50104	-1.5399	0.53128	-0.59856	-0.3567	-1.2634103328	9.550951407900001	-0.4845465765	-0.0013744467809999996	0.020158552788	0.025503623603	0.23809	-1.0497999999999998	-0.9483	-4.23648	1.88288	12.23872	0.9963730569948187	35.92
8083	0	858.234	0	-172	1328	-54	-53	118	106	-67	-2590	-2608	-174	1334	-76	34	8	66	916	-1032	-615	-224	-32	224	34.29	0.995993091537133	37.56	0.9968418455465088	4449.48779296875	-7309.8701171875	26.700000762939453	11.9654541015625	3	0	0.0	0.0	0.0	0.0	0.1080851346338064	0.0	0.0	-0.2922578752447649	0.4666004069999999	1.2418749293999998	9.5545406418	0.4165194034576416	-0.5465388298034668	0.3619740009307861	0.629906177520752	6	44.82479654947917	-73.164501953125	-1.2346964616	9.533005238400001	-0.3876372612	-1.2490533972	9.5760760452	-0.5455635528	-0.016187928754	0.036041048924	0.032375857508	0.010384709011999999	0.002443460944	0.020158552788	-0.03886	-1.5022	-1.51264	0.53128	-0.59856	-0.3567	-1.2418749294	9.554540641800001	-0.46660040700000005	-0.002901609871	0.019242254934	0.026267205147999996	0.24620999999999998	-1.05038	-0.93467	-6.59008	-0.94144	6.59008	0.9964174685418209	35.925
8084	0	858.34	0	-172	1328	-63	-49	115	102	-67	-2590	-2608	-174	1339	-83	33	10	68	889	-1031	-691	-176	48	368	34.29	0.9962694300518136	37.56	0.9968911917098444	4449.48779296875	-7309.8701171875	26.899999618530277	11.9654541015625	3	0	0.0	0.0	0.0	0.0	0.1623474579502579	0.0	0.0	-0.2344558389501072	0.5240281494	1.2418749293999998	9.5724868113	0.4165040254592895	-0.5464555621147156	0.3620520830154419	0.6299436688423157	6	44.82479654947917	-73.164501953125	-1.2346964616	9.533005238400001	-0.45224347140000004	-1.2490533972	9.6119683842	-0.5958128274000001	-0.014966198282	0.035124751069999995	0.031154127036	0.010079276394	0.0030543261799999997	0.020769418023999998	-0.03886	-1.5022	-1.51264	0.51562	-0.59798	-0.40078	-1.2418749294	9.572486811300001	-0.5240281494000001	-0.0024434609440000003	0.019089538624999996	0.025961772529999996	0.23837999999999998	-1.05009	-0.95671	-5.17792	1.41216	10.82656	0.996580310880829	35.925
8085	0	858.445	0	-168	1331	-57	-37	110	97	-91	-2580	-2630	-177	1330	-80	40	2	71	889	-1031	-691	-128	64	320	34.27	0.9960720453984704	37.56	0.996674068591167	4449.48779296875	-7309.8701171875	26.899999618530277	11.9654541015625	3	0	0.0	0.0	0.0	0.0	0.1933505266693859	0.0	0.0	-0.2055960116579999	0.4917250442999999	1.2382856955	9.5509514079	0.4164673984050751	-0.546396791934967	0.3620629012584686	0.6300126910209656	6	44.82479654947917	-73.164501953125	-1.2059825904	9.554540641800001	-0.4091726646	-1.2705888006000001	9.547362174	-0.574277424	-0.011301006866	0.033597587979999996	0.029626963946	0.012217304719999999	0.000610865236	0.021685715878	-0.05278	-1.4964	-1.5254	0.51562	-0.59798	-0.40078	-1.2382856955000001	9.550951407900001	-0.4917250443	0.00045814892699999957	0.017104226607999998	0.025656339912	0.23142	-1.04719	-0.96309	-3.76576	1.88288	9.4144	0.9963730569948187	35.915000000000006
8086	0	858.551	0	-181	1328	-74	-46	118	101	-73	-2584	-2626	-189	1331	-85	43	14	74	886	-1034	-704	-144	16	432	34.27	0.9960029607698	37.57	0.9967431532198372	4449.48779296875	-7309.8701171875	26.899999618530277	11.9654541015625	3	0	0.0	0.0	0.0	0.0	0.1635630911461545	0.0	0.0	-0.2377379274080697	0.5706881900999999	1.328016543	9.543772940099998	0.4165104031562805	-0.5462966561317444	0.3620911240577698	0.6300548315048218	6	44.82479654947917	-73.164501953125	-1.2993026718	9.533005238400001	-0.5312066172000001	-1.3567304142	9.554540641800001	-0.610169763	-0.014049900427999999	0.036041048924	0.030848694418	0.013133602574	0.004276056651999999	0.022602013732	-0.04234	-1.49872	-1.52308	0.51388	-0.59972	-0.40832	-1.328016543	9.543772940100002	-0.5706881901	-0.00045814892699999957	0.020158552788000002	0.026725354075	0.23577	-1.04922	-0.9657	-4.23648	0.47072	12.70944	0.9963730569948186	35.92
8087	0	858.656	0	-173	1327	-63	-50	95	98	-73	-2584	-2626	-184	1332	-85	51	-1	68	877	-1046	-655	-192	32	384	34.29	0.9961115223291388	37.56	0.9967234147545028	4449.48779296875	-7309.8701171875	26.899999618530277	11.9981689453125	3	0	0.0	0.0	0.0	0.0	0.1527871098089808	0.0	0.0	-0.2512460330851208	0.5312066172	1.2813565023	9.543772940099998	0.4164592325687408	-0.5462979674339294	0.3620429039001465	0.630115270614624	6	44.82479654947917	-73.164501953125	-1.2418749294	9.5258267706	-0.45224347140000004	-1.3208380752	9.5617191096	-0.610169763	-0.0152716309	0.029016098709999997	0.029932396564	0.015577063518	-0.000305432618	0.020769418023999998	-0.04234	-1.49872	-1.52308	0.50866	-0.60668	-0.3799	-1.2813565023	9.5437729401	-0.5312066172000001	0.00015271630899999986	0.014355333045999999	0.025350907293999997	0.23316	-1.0527	-0.95149	-5.64864	0.94144	11.29728	0.9964174685418208	35.925
8088	0	858.762	0	-176	1323	-59	-47	111	103	-92	-2596	-2656	-184	1340	-83	41	22	75	877	-1046	-655	-160	0	288	34.27	0.9960819146311374	37.56	0.9967826301505058	4449.48779296875	-7309.8701171875	26.700000762939453	11.9818115234375	3	0	0.0	0.0	0.0	0.0	0.1838759337435709	0.0	0.0	-0.2197552541231815	0.5096712137999999	1.2921242039999998	9.5581298757	0.4203998744487762	-0.5441315174102783	0.3641898334026336	0.6281326413154602	6	44.82479654947917	-73.164501953125	-1.2634103328000001	9.497112899400001	-0.4235296002	-1.3208380752	9.619146852	-0.5958128274000001	-0.014355333045999999	0.033903020597999996	0.031459559654	0.012522737337999999	0.006719517596	0.02290744635	-0.05336	-1.50568	-1.54048	0.50866	-0.60668	-0.3799	-1.292124204	9.5581298757	-0.5096712138	-0.000916297854	0.020311269096999998	0.027183503002	0.22765	-1.05618	-0.9601900000000001	-4.7072	0.0	8.47296	0.9964322723908217	35.915000000000006
8089	0	858.867	0	-175	1328	-69	-45	125	94	-92	-2596	-2656	-184	1335	-86	39	21	71	887	-1061	-719	-160	128	384	34.27	0.9961312607944732	37.57	0.996851714779176	4449.48779296875	-7309.8701171875	26.700000762939453	11.9327392578125	3	0	0.0	0.0	0.0	0.0	0.1500417453910305	0.0	0.0	-0.254016894923271	0.5563312544999999	1.2885349701	9.5581298757	0.4204325079917907	-0.5440428853034973	0.3642564713954925	0.6281489729881287	6	44.82479654947917	-73.164501953125	-1.256231865	9.533005238400001	-0.4953142782	-1.3208380752	9.583254513	-0.6173482308	-0.01374446781	0.03817907725	0.028710666091999997	0.011911872102	0.006414084978	0.021685715878	-0.05336	-1.50568	-1.54048	0.51446	-0.61538	-0.41702	-1.2885349701	9.5581298757	-0.5563312545	-0.000916297854	0.022296581114	0.025198190985	0.23055	-1.06053	-0.97875	-4.7072	3.76576	11.29728	0.9964914877868246	35.92
8090	0	858.972	0	-176	1325	-58	-55	123	105	-115	-2572	-2633	-182	1332	-83	43	14	64	887	-1061	-719	-256	-16	336	34.29	0.9961608684924748	37.57	0.9967431532198372	4449.48779296875	-7309.8701171875	26.700000762939453	11.9981689453125	3	0	0.0	0.0	0.0	0.0	0.2086095149817333	0.0	0.0	-0.1927353885581487	0.5060819799	1.2849457362	9.5365944723	0.4204406142234802	-0.5439354181289673	0.3643485009670257	0.6281833052635193	6	44.82479654947917	-73.164501953125	-1.2634103328000001	9.511469835	-0.4163511324	-1.3064811396	9.5617191096	-0.5958128274000001	-0.016798793989999998	0.037568212014	0.03207042489	0.013133602574	0.004276056651999999	0.019547687552	-0.0667	-1.49176	-1.52714	0.51446	-0.61538	-0.41702	-1.2849457362	9.5365944723	-0.5060819799	-0.0018325957079999991	0.020922134332999998	0.025809056221	0.22388000000000002	-1.0535700000000001	-0.9720799999999999	-7.53152	-0.47072	9.88512	0.996452010856156	35.93
8091	0	859.078	0	-174	1330	-67	-48	124	102	-115	-2572	-2633	-183	1337	-85	47	23	65	875	-1043	-648	-192	64	384	34.27	0.9960226992351344	37.58	0.9968615840118432	4449.48779296875	-7309.8701171875	26.700000762939453	11.9654541015625	3	0	0.0	0.0	0.0	0.0	0.1502197503653428	0.0	0.0	-0.2554721655241746	0.5455635527999999	1.2813565023	9.5724868113	0.4204649627208709	-0.5438702702522278	0.3643969297409057	0.6281951665878296	6	44.82479654947917	-73.164501953125	-1.2490533972	9.547362174	-0.4809573426	-1.3136596074	9.5976114486	-0.610169763	-0.014660765664	0.037873644632	0.031154127036	0.014355333045999999	0.0070249502139999994	0.01985312017	-0.0667	-1.49176	-1.52714	0.5075	-0.60494	-0.37584	-1.2813565023	9.5724868113	-0.5455635528	-0.00015271630900000072	0.022449297423	0.025503623603	0.22039999999999998	-1.0483500000000001	-0.95149	-5.64864	1.88288	11.29728	0.9964421416234888	35.925
8092	0	859.183	0	-168	1325	-62	-39	101	91	-95	-2558	-2621	-180	1332	-77	42	18	65	875	-1043	-648	-192	-32	320	34.29	0.9960621761658032	37.56	0.9968319763138416	4449.48779296875	-7309.8701171875	26.700000762939453	11.9818115234375	3	0	0.0	0.0	0.0	0.0	0.1110190856715157	0.0	0.0	-0.294659694955714	0.4989035120999999	1.2490533972	9.5365944723	0.4204041659832001	-0.5438786745071411	0.3644173443317413	0.6282168030738831	6	44.82479654947917	-73.164501953125	-1.2059825904	9.511469835	-0.4450650036	-1.292124204	9.5617191096	-0.5527420206	-0.011911872102	0.030848694418	0.027794368237999998	0.012828169956	0.005497787124	0.01985312017	-0.0551	-1.48364	-1.52018	0.5075	-0.60494	-0.37584	-1.2490533972	9.5365944723	-0.4989035121	0.00045814892700000043	0.018173240771	0.023823744204	0.22619999999999998	-1.0442900000000002	-0.94801	-5.64864	-0.94144	9.4144	0.9964470762398223	35.925
8093	0	859.289	0	-172	1326	-55	-47	123	97	-95	-2558	-2621	-178	1330	-72	52	17	66	893	-1052	-630	-144	16	368	34.27	0.9961806069578092	37.57	0.9966938070565012	4449.48779296875	-7309.8701171875	26.700000762939453	11.9654541015625	3	0	0.0	0.0	0.0	0.0	0.0815695368690031	0.0	0.0	-0.3209478348435755	0.4558327053	1.2562318649999995	9.5330052384	0.4203330278396606	-0.5439181923866272	0.3644177615642547	0.6282299757003784	6	44.82479654947917	-73.164501953125	-1.2346964616	9.5186483028	-0.394815729	-1.2777672684	9.547362174	-0.5168496816	-0.014355333045999999	0.037568212014	0.029626963946	0.015882496136	0.005192354505999999	0.020158552788	-0.0551	-1.48364	-1.52018	0.51794	-0.61016	-0.3654	-1.2562318650000002	9.533005238400001	-0.4558327053	0.0007635815450000001	0.02138028326	0.024892758367	0.23142	-1.0469	-0.94279	-4.23648	0.47072	10.82656	0.9964372070071552	35.92
8094	0	859.394	0	-173	1325	-55	-52	114	95	-94	-2563	-2674	-181	1331	-78	47	15	65	893	-1052	-630	-128	96	384	34.27	0.9959733530717988	37.57	0.9968418455465088	4449.4873046875	-7309.8701171875	26.399999618530277	11.9654541015625	3	0	0.0	0.0	0.0	0.0	0.1105455605632253	0.0	0.0	-0.2804792391132978	0.4773681086999999	1.2705888006	9.5330052384	0.4203257262706756	-0.5438780188560486	0.3644752502441406	0.6282362341880798	6	44.824788411458336	-73.164501953125	-1.2418749294	9.511469835	-0.394815729	-1.2993026718	9.554540641800001	-0.5599204884	-0.015882496136	0.034819318451999995	0.029016098709999997	0.014355333045999999	0.00458148927	0.01985312017	-0.05452	-1.48654	-1.55092	0.51794	-0.61016	-0.3654	-1.2705888006000001	9.533005238400001	-0.4773681087	-0.0007635815450000001	0.019700403861	0.024434609439999998	0.23170999999999997	-1.0483500000000001	-0.95816	-3.76576	2.82432	11.29728	0.9964075993091538	35.92
8095	0	859.5	0	-168	1326	-59	-69	119	103	-94	-2563	-2674	-177	1332	-82	39	21	74	885	-1044	-699	-144	112	368	34.28	0.9961509992598075	37.56	0.9967234147545028	4449.4873046875	-7309.8701171875	26.399999618530277	11.9654541015625	3	0	0.0	0.0	0.0	0.0	0.1187432030517479	0.0	0.0	-0.2692473784516808	0.5060819799	1.2382856955	9.5401837062	0.420329749584198	-0.5437428951263428	0.3645545542240143	0.6283046007156372	6	44.824788411458336	-73.164501953125	-1.2059825904	9.5186483028	-0.4235296002	-1.2705888006000001	9.5617191096	-0.5886343596	-0.021074850641999997	0.036346481542	0.031459559654	0.011911872102	0.006414084978	0.022602013732	-0.05452	-1.48654	-1.55092	0.5133	-0.6055200000000001	-0.40542	-1.2382856955000001	9.5401837062	-0.5060819799	-0.004581489269999999	0.02138028326	0.027030786693	0.22938999999999998	-1.04603	-0.97817	-4.23648	3.29504	10.82656	0.9964372070071552	35.92
8096	0	859.605	0	-175	1329	-66	-52	118	103	-114	-2589	-2669	-176	1329	-95	32	13	56	885	-1044	-699	-144	-16	368	34.29	0.9961115223291388	37.57	0.996851714779176	4449.4873046875	-7309.8701171875	26.399999618530277	11.9818115234375	3	0	0.0	0.0	0.0	0.0	0.154448420380621	0.0	0.0	-0.2307479420811123	0.5778666578999999	1.2598210988999998	9.5401837062	0.4202893376350403	-0.543621301651001	0.3646647036075592	0.628372848033905	6	44.824788411458336	-73.164501953125	-1.256231865	9.5401837062	-0.4737788748	-1.2634103328000001	9.5401837062	-0.681954441	-0.015882496136	0.036041048924	0.031459559654	0.009773843776	0.003970624034	0.017104226607999998	-0.06612	-1.50162	-1.54802	0.5133	-0.6055200000000001	-0.40542	-1.2598210989	9.5401837062	-0.5778666579	-0.0030543261799999997	0.020005836479	0.024281893130999998	0.22358999999999998	-1.0535700000000001	-0.97672	-4.23648	-0.47072	10.82656	0.9964816185541574	35.93
8097	0	859.711	0	-166	1326	-62	-48	111	98	-114	-2589	-2669	-183	1332	-81	53	7	69	881	-1041	-614	-32	80	480	34.28	0.99593387614113	37.58	0.9968122378485073	4449.4873046875	-7309.8701171875	26.200000762939453	11.9654541015625	3	0	0.0	0.0	0.0	0.0	0.1063502085246924	0.0	0.0	-0.2813002482125025	0.5132604476999999	1.2526426311	9.5401837062	0.4202941358089447	-0.5435472726821899	0.3646920323371887	0.6284177899360657	6	44.824788411458336	-73.164501953125	-1.1916256548000002	9.5186483028	-0.4450650036	-1.3136596074	9.5617191096	-0.5814558918	-0.014660765664	0.033903020597999996	0.029932396564	0.016187928754	0.0021380283259999997	0.021074850641999997	-0.06612	-1.50162	-1.54802	0.51098	-0.60378	-0.35612	-1.2526426311	9.5401837062	-0.5132604477	0.0007635815449999993	0.018020524461999997	0.025503623603	0.22243	-1.0527	-0.95207	-0.94144	2.3536	14.1216	0.9963730569948186	35.93
8098	0	859.816	0	-171	1325	-57	-34	91	94	-112	-2589	-2658	-182	1331	-85	61	5	69	881	-1041	-614	-144	32	480	34.28	0.995993091537133	37.57	0.9969504071058476	4449.4873046875	-7309.8701171875	26.200000762939453	11.9818115234375	3	0	0.0	0.0	0.0	0.0	0.0802190627113294	0.0	0.0	-0.3015713174069787	0.5096712137999999	1.2669995666999998	9.5330052384	0.4228686988353729	-0.5426176190376282	0.3661511838436126	0.6266430616378784	6	44.824788411458336	-73.164501953125	-1.2275179938	9.511469835	-0.4091726646	-1.3064811396	9.554540641800001	-0.610169763	-0.010384709011999999	0.027794368237999998	0.028710666091999997	0.018631389698	0.0015271630899999999	0.021074850641999997	-0.06496	-1.50162	-1.54164	0.51098	-0.60378	-0.35612	-1.2669995667	9.533005238400001	-0.5096712138	0.0041233403430000004	0.014660765663999998	0.024892758366999997	0.22300999999999999	-1.0527	-0.94888	-4.23648	0.94144	14.1216	0.9964717493214903	35.925
8099	0	859.921	0	-171	1321	-56	-52	118	98	-112	-2589	-2658	-185	1338	-77	39	22	64	906	-994	-584	-112	64	416	34.27	0.99586479151246	37.58	0.9968122378485073	4449.4873046875	-7309.8701171875	26.200000762939453	11.9654541015625	3	0	0.0	0.0	0.0	0.0	0.2176591776152243	0.0	0.0	-0.150658607331836	0.4773681087	1.2777672684	9.543772940099998	0.4228099286556244	-0.542617917060852	0.3661736249923706	0.6266693472862244	6	44.824788411458336	-73.164501953125	-1.2275179938	9.4827559638	-0.40199419680000004	-1.3280165430000002	9.6047899164	-0.5527420206	-0.015882496136	0.036041048924	0.029932396564	0.011911872102	0.006719517596	0.019547687552	-0.06496	-1.50162	-1.54164	0.5254800000000001	-0.57652	-0.33872	-1.2777672684	9.5437729401	-0.4773681087	-0.001985312017	0.02138028326	0.024740042057999997	0.23026000000000002	-1.03907	-0.94018	-3.29504	1.88288	12.23872	0.9963385146804836	35.925
8100	0	860.027	0	-175	1326	-62	-54	123	99	-88	-2593	-2644	-180	1324	-85	33	15	66	906	-994	-584	-192	64	320	34.29	0.996052306933136	37.58	0.9968615840118432	4449.4873046875	-7309.8701171875	26.299999237060547	11.9654541015625	3	0	0.0	0.0	0.0	0.0	0.2169851333219608	0.0	0.0	-0.1609998697135565	0.5276173833	1.2741780344999998	9.511469835	0.422782689332962	-0.5424549579620361	0.3663031756877899	0.6267530918121338	6	44.824788411458336	-73.164501953125	-1.256231865	9.5186483028	-0.4450650036	-1.292124204	9.5042913672	-0.610169763	-0.016493361372	0.037568212014	0.030237829182	0.010079276394	0.00458148927	0.020158552788	-0.05104	-1.50394	-1.53352	0.5254800000000001	-0.57652	-0.33872	-1.2741780345	9.511469835	-0.5276173833	-0.0032070424889999996	0.021074850642	0.025198190985	0.23722000000000004	-1.04023	-0.9361200000000001	-5.64864	1.88288	9.4144	0.9964569454724896	35.935
8101	0	860.132	0	-172	1329	-67	-55	116	105	-88	-2593	-2644	-184	1329	-86	36	29	72	887	-1022	-657	-144	80	304	34.28	0.9961509992598075	37.57	0.9968418455465088	4449.4873046875	-7309.8701171875	26.299999237060547	11.9654541015625	3	0	0.0	0.0	0.0	0.0	0.1473464801569674	0.0	0.0	-0.2414942693220422	0.5491527866999999	1.2777672684	9.5401837062	0.4228231906890869	-0.5422882437705994	0.3664068281650543	0.6268095374107361	6	44.824788411458336	-73.164501953125	-1.2346964616	9.5401837062	-0.4809573426	-1.3208380752	9.5401837062	-0.6173482308	-0.016798793989999998	0.035430183688	0.03207042489	0.010995574248	0.008857545922	0.021991148496	-0.05104	-1.50394	-1.53352	0.51446	-0.59276	-0.38106	-1.2777672683999999	9.5401837062	-0.5491527867	-0.002901609870999999	0.022143864805	0.027030786693	0.23171000000000003	-1.0483500000000001	-0.95729	-4.23648	2.3536	8.94368	0.9964964224031582	35.925
8102	0	860.238	0	-171	1321	-63	-43	110	96	-87	-2585	-2661	-182	1333	-86	41	10	75	887	-1022	-657	-160	-32	368	34.3	0.9959634838391316	37.57	0.9966345916604984	4449.4873046875	-7309.8701171875	26.299999237060547	11.9818115234375	3	0	0.0	0.0	0.0	0.0	0.1202485622858884	0.0	0.0	-0.2681684675303351	0.5347958510999999	1.2669995666999998	9.525826770599998	0.4228204190731048	-0.5421892404556274	0.3664587736129761	0.6268666386604309	6	44.824788411458336	-73.164501953125	-1.2275179938	9.4827559638	-0.45224347140000004	-1.3064811396	9.5688975774	-0.6173482308	-0.013133602574	0.033597587979999996	0.029321531328	0.012522737337999999	0.0030543261799999997	0.02290744635	-0.05046	-1.4993	-1.54338	0.51446	-0.59276	-0.38106	-1.2669995667	9.5258267706	-0.5347958511	-0.0003054326180000006	0.018325957079999997	0.026114488839	0.232	-1.04603	-0.96222	-4.7072	-0.94144	10.82656	0.996299037749815	35.935
8103	0	860.343	0	-177	1329	-60	-54	115	97	-78	-2562	-2632	-180	1340	-86	45	3	71	874	-1035	-660	-224	-32	288	34.27	0.9960226992351344	37.57	0.9968023686158402	4449.4873046875	-7309.8701171875	26.200000762939453	11.9654541015625	3	0	0.0	0.0	0.0	0.0	0.2015812266825855	0.0	0.0	-0.1841739372374295	0.5240281493999999	1.2813565023	9.5796652791	0.4227745532989502	-0.5421629548072815	0.366479218006134	0.6269082427024841	6	44.824788411458336	-73.164501953125	-1.2705888006000001	9.5401837062	-0.430708068	-1.292124204	9.619146852	-0.6173482308	-0.016493361372	0.035124751069999995	0.029626963946	0.01374446781	0.000916297854	0.021685715878	-0.04524	-1.48596	-1.52656	0.50692	-0.6003000000000001	-0.38280000000000003	-1.2813565023	9.5796652791	-0.5240281494	-0.0013744467809999996	0.018020524461999997	0.025656339912	0.23084000000000002	-1.0431300000000001	-0.95468	-6.59008	-0.94144	8.47296	0.9964125339254872	35.92
8104	0	860.449	0	-177	1329	-60	-42	111	95	-78	-2562	-2632	-177	1330	-78	43	13	52	874	-1035	-660	-224	144	272	34.28	0.9961016530964716	37.57	0.996851714779176	4449.4873046875	-7309.8701171875	26.200000762939453	11.9654541015625	3	0	0.0	0.0	0.0	0.0	0.1626111509918625	0.0	0.0	-0.2286417034180236	0.4953142781999999	1.2705888006	9.543772940099998	0.4226863086223602	-0.5421525239944458	0.3664982318878174	0.6269658207893372	6	44.824788411458336	-73.164501953125	-1.2705888006000001	9.5401837062	-0.430708068	-1.2705888006000001	9.547362174	-0.5599204884	-0.012828169956	0.033903020597999996	0.029016098709999997	0.013133602574	0.003970624034	0.015882496136	-0.04524	-1.48596	-1.52656	0.50692	-0.6003000000000001	-0.38280000000000003	-1.2705888006000001	9.5437729401	-0.49531427819999996	0.00015271630899999986	0.018936822315999996	0.022449297422999996	0.23084000000000002	-1.0431300000000001	-0.95468	-6.59008	4.23648	8.00224	0.9964766839378238	35.925
8105	0	860.554	0	-170	1329	-62	-48	124	101	-79	-2573	-2635	-180	1335	-81	36	13	68	892	-1006	-624	-112	48	384	34.29	0.9961115223291388	37.58	0.9968714532445102	4449.4873046875	-7309.8701171875	26.200000762939453	11.9981689453125	3	0	0.0	0.0	0.0	0.0	0.1717944742362089	0.0	0.0	-0.2221872383163146	0.5132604476999999	1.2562318649999995	9.561719109599998	0.4226411581039428	-0.5420787930488586	0.3665729761123657	0.6270161867141724	6	44.824788411458336	-73.164501953125	-1.220339526	9.5401837062	-0.4450650036	-1.292124204	9.583254513	-0.5814558918	-0.014660765664	0.037873644632	0.030848694418	0.010995574248	0.003970624034	0.020769418023999998	-0.04582	-1.49234	-1.5283	0.51736	-0.58348	-0.36192	-1.2562318650000002	9.5617191096	-0.5132604477	-0.001832595708	0.020922134332999998	0.025809056221	0.23577000000000004	-1.03791	-0.94511	-3.29504	1.41216	11.29728	0.9964914877868245	35.935
8106	0	860.66	0	-170	1325	-64	-50	113	98	-79	-2573	-2635	-184	1328	-86	39	5	70	892	-1006	-624	-176	16	320	34.28	0.9958746607451272	37.57	0.9968418455465088	4449.4873046875	-7309.8701171875	26.200000762939453	11.9818115234375	3	0	0.0	0.0	0.0	0.0	0.2165311004550644	0.0	0.0	-0.1795730646073959	0.5383850849999999	1.2705888006	9.5222375367	0.4226158559322357	-0.541970431804657	0.3666755855083465	0.6270668506622314	6	44.824788411458336	-73.164501953125	-1.220339526	9.511469835	-0.4594219392	-1.3208380752	9.533005238400001	-0.6173482308	-0.0152716309	0.034513885833999995	0.029932396564	0.011911872102	0.0015271630899999999	0.021380283259999997	-0.04582	-1.49234	-1.5283	0.51736	-0.58348	-0.36192	-1.2705888006000001	9.5222375367	-0.538385085	-0.0016798793990000001	0.018020524461999997	0.025656339911999997	0.23577000000000004	-1.03791	-0.94511	-5.17792	0.47072	9.4144	0.9963582531458179	35.925
8107	0	860.765	0	-172	1328	-62	-49	112	104	-114	-2568	-2658	-178	1333	-81	44	13	66	888	-1043	-667	-272	-16	272	34.28	0.9962102146558104	37.56	0.9969997532691832	4449.4873046875	-7309.8701171875	26.299999237060547	11.9818115234375	3	0	0.0	0.0	0.0	0.0	0.2080716508606071	0.0	0.0	-0.1975934386269553	0.5132604476999999	1.2562318649999995	9.5509514079	0.4226032793521881	-0.5418822765350342	0.3667620718479156	0.6271010041236877	6	44.824788411458336	-73.164501953125	-1.2346964616	9.533005238400001	-0.4450650036	-1.2777672684	9.5688975774	-0.5814558918	-0.014966198282	0.034208453215999995	0.031764992272	0.013439035192	0.003970624034	0.020158552788	-0.06612	-1.48944	-1.54164	0.51504	-0.60494	-0.38686	-1.2562318650000002	9.550951407900001	-0.5132604477	-0.0007635815450000001	0.019089538625	0.025961772529999996	0.22446000000000002	-1.04719	-0.9642499999999999	-8.00224	-0.47072	8.00224	0.9966049839624969	35.92
8108	0	860.87	0	-173	1327	-60	-51	118	97	-114	-2568	-2658	-182	1337	-89	51	14	74	888	-1043	-667	-176	160	416	34.29	0.9960621761658032	37.57	0.9966444608931656	4449.4873046875	-7309.8701171875	26.299999237060547	11.9654541015625	3	0	0.0	0.0	0.0	0.0	0.1960890971406149	0.0	0.0	-0.2141667163650854	0.5347958510999999	1.2741780344999998	9.561719109599998	0.4210338592529297	-0.5440983772277832	0.3655276298522949	0.6269586682319641	6	44.824788411458336	-73.164501953125	-1.2418749294	9.5258267706	-0.430708068	-1.3064811396	9.5976114486	-0.6388836342	-0.015577063518	0.036041048924	0.029626963946	0.015577063518	0.004276056651999999	0.022602013732	-0.06612	-1.48944	-1.54164	0.51504	-0.60494	-0.38686	-1.2741780345	9.5617191096	-0.5347958511	0.0	0.020158552788000002	0.026114488839	0.22446000000000002	-1.04719	-0.9642499999999999	-5.17792	4.7072	12.23872	0.9963533185294844	35.93
8109	0	860.976	0	-167	1330	-61	-39	116	105	-104	-2569	-2617	-177	1337	-80	51	5	63	855	-1061	-705	-128	0	320	34.27	0.9960226992351344	37.57	0.9969109301751788	4449.4873046875	-7309.8701171875	26.299999237060547	11.9818115234375	3	0	0.0	0.0	0.0	0.0	0.1279732715000919	0.0	0.0	-0.2867389596491305	0.5060819798999999	1.2346964616	9.5724868113	0.4209826588630676	-0.54411381483078	0.3654833734035492	0.6270054578781128	6	44.824788411458336	-73.164501953125	-1.1988041226000001	9.547362174	-0.43788653580000003	-1.2705888006000001	9.5976114486	-0.574277424	-0.011911872102	0.035430183688	0.03207042489	0.015577063518	0.0015271630899999999	0.019242254934	-0.06032	-1.49002	-1.51786	0.4959	-0.61538	-0.4089	-1.2346964616	9.5724868113	-0.5060819799	0.001832595708	0.018478673389	0.025656339911999997	0.21779	-1.0527	-0.96338	-3.76576	0.0	9.4144	0.9964668147051566	35.92
8110	0	861.081	0	-166	1329	-61	-46	99	94	-104	-2569	-2617	-180	1332	-75	42	15	70	855	-1061	-705	-144	48	416	34.28	0.9960424377004689	37.57	0.996851714779176	4449.4873046875	-7309.8701171875	26.299999237060547	11.9654541015625	3	0	0.0	0.0	0.0	0.0	0.1562834276708803	0.0	0.0	-0.2511445350137512	0.4881358104	1.2418749293999998	9.550951407899998	0.4209153056144714	-0.5440710783004761	0.3655388653278351	0.627055287361145	6	44.824788411458336	-73.164501953125	-1.1916256548000002	9.5401837062	-0.43788653580000003	-1.292124204	9.5617191096	-0.538385085	-0.014049900427999999	0.030237829182	0.028710666091999997	0.012828169956	0.00458148927	0.021380283259999997	-0.06032	-1.49002	-1.51786	0.4959	-0.61538	-0.4089	-1.2418749294000002	9.550951407900001	-0.48813581040000004	-0.0006108652359999994	0.017409659226	0.025045474675999997	0.21779	-1.0527	-0.96338	-4.23648	1.41216	12.23872	0.9964470762398224	35.925
8111	0	861.187	0	-174	1329	-59	-56	119	98	-64	-2595	-2655	-181	1330	-84	40	26	64	896	-1021	-580	-128	112	464	34.29	0.9961608684924748	37.56	0.9967826301505058	4449.4873046875	-7309.8701171875	26.299999237060547	11.9654541015625	3	0	0.0	0.0	0.0	0.0	0.1427954958815243	0.0	0.0	-0.2644884733464003	0.5132604477	1.2741780344999998	9.543772940099998	0.4208661317825317	-0.543967068195343	0.3657010793685913	0.6270840167999268	6	44.824788411458336	-73.164501953125	-1.2490533972	9.5401837062	-0.4235296002	-1.2993026718	9.547362174	-0.6029912952	-0.017104226607999998	0.036346481542	0.029932396564	0.012217304719999999	0.007941248068	0.019547687552	-0.03712	-1.5051	-1.5399	0.51968	-0.59218	-0.3364	-1.2741780345	9.5437729401	-0.5132604477	-0.0024434609439999994	0.022143864805	0.024740042057999997	0.24128000000000002	-1.04864	-0.93815	-3.76576	3.29504	13.65088	0.9964717493214903	35.925
8112	0	861.292	0	-173	1326	-65	-58	119	102	-64	-2595	-2655	-176	1330	-80	34	16	64	896	-1021	-580	-208	128	352	34.29	0.9961608684924748	37.58	0.9968714532445102	4449.4873046875	-7309.8701171875	26.299999237060547	11.9654541015625	3	0	0.0	0.0	0.0	0.0	0.1486947775354379	0.0	0.0	-0.2567264310946294	0.5204389155	1.2526426311	9.5330052384	0.4208152890205383	-0.5438859462738037	0.3657853603363037	0.6271393299102783	6	44.824788411458336	-73.164501953125	-1.2418749294	9.5186483028	-0.466600407	-1.2634103328000001	9.547362174	-0.574277424	-0.017715091844	0.036346481542	0.031154127036	0.010384709011999999	0.004886921888	0.019547687552	-0.03712	-1.5051	-1.5399	0.51968	-0.59218	-0.3364	-1.2526426311	9.533005238400001	-0.5204389155	-0.003665191416000001	0.020616701715	0.025350907293999997	0.24128000000000002	-1.04864	-0.93815	-6.11936	3.76576	10.35584	0.9965161608684925	35.935
8113	0	861.398	0	-175	1326	-55	-46	115	101	-93	-2573	-2650	-183	1333	-87	51	17	67	898	-1034	-665	-176	96	384	34.29	0.9960029607698	37.57	0.9967431532198372	4449.4873046875	-7309.8701171875	26.100000381469727	11.9818115234375	3	0	0.0	0.0	0.0	0.0	0.1531756373267636	0.0	0.0	-0.2477228271036243	0.5096712137999999	1.2849457362	9.543772940099998	0.4207621216773987	-0.543855607509613	0.3658173084259033	0.62718266248703	6	44.824788411458336	-73.164501953125	-1.256231865	9.5186483028	-0.394815729	-1.3136596074	9.5688975774	-0.6245266986	-0.014049900427999999	0.035124751069999995	0.030848694418	0.015577063518	0.005192354505999999	0.020463985405999998	-0.05394	-1.49234	-1.537	0.52084	-0.59972	-0.3857	-1.2849457362	9.5437729401	-0.5096712138	0.0007635815450000001	0.020158552788	0.025656339911999997	0.23345	-1.04603	-0.9613499999999999	-5.17792	2.82432	11.29728	0.9963730569948186	35.93
8114	0	861.503	0	-179	1330	-63	-58	121	102	-93	-2573	-2650	-178	1336	-78	48	17	76	898	-1034	-665	-144	-16	384	34.29	0.995993091537133	37.57	0.9969010609425116	4449.4873046875	-7309.8701171875	26.100000381469727	11.9654541015625	3	0	0.0	0.0	0.0	0.0	0.1878912834384487	0.0	0.0	-0.2132397160887603	0.5060819799	1.2813565023	9.5688975774	0.420737475156784	-0.5438284277915955	0.3657858371734619	0.6272410750389099	6	44.824788411458336	-73.164501953125	-1.2849457362	9.547362174	-0.45224347140000004	-1.2777672684	9.590432980800001	-0.5599204884	-0.017715091844	0.036957346778	0.031154127036	0.014660765664	0.005192354505999999	0.023212878968	-0.05394	-1.49234	-1.537	0.52084	-0.59972	-0.3857	-1.2813565023	9.568897577400001	-0.5060819799	-0.0015271630900000003	0.021074850642	0.027183503002	0.23345	-1.04603	-0.9613499999999999	-4.23648	-0.47072	11.29728	0.9964470762398223	35.93
8115	0	862.045	0	-174	1331	-60	-47	104	99	-99	-2566	-2676	-180	1336	-68	37	9	71	878	-1050	-655	-192	48	368	34.21	0.9960029607698	37.53	0.997039230199852	4449.4873046875	-7309.8701171875	25.899999618530277	11.9654541015625	3	0	0.0	0.0	0.0	0.0	0.1890369850702886	0.0	0.0	-0.2157794476172848	0.4594219391999999	1.2705888006	9.5724868113	0.4250987768173218	-0.5413601994514465	0.3682529330253601	0.6249880194664001	6	44.824788411458336	-73.164501953125	-1.2490533972	9.554540641800001	-0.430708068	-1.292124204	9.590432980800001	-0.48813581040000004	-0.014355333045999999	0.031764992272	0.030237829182	0.011301006866	0.002748893562	0.021685715878	-0.05742	-1.48828	-1.55208	0.50924	-0.609	-0.3799	-1.2705888006000001	9.572486811300001	-0.4594219392	-0.0015271630899999994	0.017256942916999998	0.02596177253	0.22591	-1.04864	-0.9659899999999999	-5.64864	1.41216	10.82656	0.996521095484826	35.870000000000005
8116	0	862.15	0	-172	1329	-53	-53	116	93	-105	-2576	-2645	-186	1336	-80	24	18	70	884	-1017	-709	-160	0	384	34.23	0.9960424377004689	37.56	0.9969405378731804	4449.4873046875	-7309.8701171875	25.899999618530277	11.9981689453125	3	0	0.0	0.0	0.0	0.0	0.2568200769724574	0.0	0.0	-0.1505890956309356	0.4773681086999999	1.2849457362	9.5653083435	0.4250478446483612	-0.5412537455558777	0.368394136428833	0.625031590461731	6	44.824788411458336	-73.164501953125	-1.2346964616	9.5401837062	-0.3804587934	-1.3351950108000001	9.590432980800001	-0.574277424	-0.016187928754	0.035430183688	0.028405233473999997	0.007330382832	0.005497787124	0.021380283259999997	-0.0609	-1.49408	-1.5341	0.51272	-0.58986	-0.41122000000000003	-1.2849457362	9.5653083435	-0.4773681087	-0.004428772960999999	0.020463985406	0.024892758366999997	0.22590999999999997	-1.04197	-0.9726600000000001	-4.7072	0.0	11.29728	0.9964914877868246	35.894999999999996
8117	0	862.26	0	-169	1322	-56	-52	91	87	-105	-2576	-2645	-179	1332	-79	30	8	69	884	-1017	-709	-208	96	304	34.24	0.9960029607698	37.58	0.996920799407846	4449.4873046875	-7309.8701171875	25.899999618530277	11.9981689453125	3	0	0.0	0.0	0.0	0.0	0.2821721037655751	0.0	0.0	-0.1357756440194366	0.4845465765	1.2490533972	9.525826770599998	0.4249430298805237	-0.5411396622657776	0.3685901463031769	0.6250861287117004	6	44.824788411458336	-73.164501953125	-1.2131610582	9.4899344316	-0.40199419680000004	-1.2849457362	9.5617191096	-0.5670989562000001	-0.015882496136	0.027794368237999998	0.026572637766	0.00916297854	0.002443460944	0.021074850641999997	-0.0609	-1.49408	-1.5341	0.51272	-0.58986	-0.41122000000000003	-1.2490533972	9.5258267706	-0.48454657650000005	-0.0033597587979999994	0.015118914591	0.023823744204	0.22590999999999997	-1.04197	-0.9726600000000001	-6.11936	2.82432	8.94368	0.996461880088823	35.91
8118	0	862.366	0	-176	1322	-63	-50	110	102	-86	-2592	-2623	-178	1331	-92	51	16	75	893	-1029	-594	-224	48	384	34.25	0.9958746607451272	37.58	0.9968221070811744	4449.4873046875	-7309.8701171875	26.100000381469727	11.9654541015625	3	0	0.0	0.0	0.0	0.0	0.2831636766148078	0.0	0.0	-0.1459792145018569	0.5563312545	1.2705888006	9.5222375367	0.4248791933059692	-0.5410879254341125	0.3686867952346802	0.6251173615455627	6	44.824788411458336	-73.164501953125	-1.2634103328000001	9.4899344316	-0.45224347140000004	-1.2777672684	9.554540641800001	-0.6604190376	-0.0152716309	0.033597587979999996	0.031154127036	0.015577063518	0.004886921888	0.02290744635	-0.04988	-1.50336	-1.52134	0.51794	-0.59682	-0.34452	-1.2705888006000001	9.5222375367	-0.5563312545	0.00015271630899999986	0.019242254934	0.027030786693	0.23403	-1.05009	-0.9329299999999999	-6.59008	1.41216	11.29728	0.9963483839131508	35.915
8119	0	862.471	0	-169	1330	-64	-42	101	102	-86	-2592	-2623	-178	1331	-80	55	4	76	893	-1029	-594	-272	32	272	34.26	0.9959437453737972	37.59	0.9967727609178386	4449.4873046875	-7309.8701171875	26.100000381469727	11.9654541015625	3	0	0.0	0.0	0.0	0.0	0.2391474996384947	0.0	0.0	-0.2032365163564993	0.5168496815999999	1.2454641633	9.5509514079	0.4248365461826324	-0.5411360859870911	0.3686331510543823	0.6251363158226013	6	44.824788411458336	-73.164501953125	-1.2131610582	9.547362174	-0.4594219392	-1.2777672684	9.554540641800001	-0.574277424	-0.012828169956	0.030848694418	0.031154127036	0.016798793989999998	0.001221730472	0.023212878968	-0.04988	-1.50336	-1.52134	0.51794	-0.59682	-0.34452	-1.2454641633	9.550951407900001	-0.5168496816	0.001985312016999999	0.016035212445	0.027183503002	0.23403	-1.05009	-0.9329299999999999	-8.00224	0.94144	8.00224	0.9963582531458179	35.925
8120	0	862.577	0	-177	1324	-55	-47	117	104	-108	-2562	-2672	-185	1335	-74	46	18	68	864	-1003	-627	-224	-32	320	34.27	0.996121391561806	37.58	0.9967530224525044	4449.4873046875	-7309.8701171875	26.100000381469727	11.9818115234375	3	0	0.0	0.0	0.0	0.0	0.2756410002652126	0.0	0.0	-0.1690129714168946	0.4630111730999999	1.2993026718	9.543772940099998	0.4248116910457611	-0.5411942005157471	0.3685359954833984	0.6251601576805115	6	44.824788411458336	-73.164501953125	-1.2705888006000001	9.5042913672	-0.394815729	-1.3280165430000002	9.583254513	-0.5312066172000001	-0.014355333045999999	0.035735616306	0.031764992272	0.014049900427999999	0.005497787124	0.020769418023999998	-0.06264	-1.48596	-1.54976	0.50112	-0.58174	-0.36366	-1.2993026718	9.5437729401	-0.46301117310000006	-0.00015271630899999986	0.020616701715	0.026267205147999996	0.21924	-1.03385	-0.95671	-6.59008	-0.94144	9.4144	0.9964372070071552	35.925
8121	0	862.682	0	-168	1330	-56	-67	115	95	-108	-2562	-2672	-185	1331	-78	42	16	60	864	-1003	-627	-192	128	464	34.27	0.9960029607698	37.59	0.9968319763138416	4449.48681640625	-7309.8701171875	25.799999237060547	11.9654541015625	3	0	0.0	0.0	0.0	0.0	0.2261061623452747	0.0	0.0	-0.2306317722144807	0.4809573426	1.2669995667	9.5509514079	0.4247803390026092	-0.5410933494567871	0.368655800819397	0.6251980066299438	6	44.8247802734375	-73.164501953125	-1.2059825904	9.547362174	-0.40199419680000004	-1.3280165430000002	9.554540641800001	-0.5599204884	-0.020463985405999998	0.035124751069999995	0.029016098709999997	0.012828169956	0.004886921888	0.01832595708	-0.06264	-1.48596	-1.54976	0.50112	-0.58174	-0.36366	-1.2669995667	9.550951407900001	-0.4809573426	-0.003817907724999999	0.020005836479	0.023671027895	0.21924	-1.03385	-0.95671	-5.64864	3.76576	13.65088	0.9964174685418208	35.93000000000001
8122	0	862.788	0	-168	1330	-67	-58	109	99	-88	-2586	-2646	-176	1333	-85	29	21	70	876	-1013	-703	-192	96	320	34.27	0.996121391561806	37.6	0.996920799407846	4449.48681640625	-7309.8701171875	25.799999237060547	11.9654541015625	3	0	0.0	0.0	0.0	0.0	0.2471553969702134	0.0	0.0	-0.2095012306660955	0.5455635527999999	1.2346964616	9.5581298757	0.4247101545333862	-0.540969729423523	0.3688218295574188	0.6252548098564148	6	44.8247802734375	-73.164501953125	-1.2059825904	9.547362174	-0.4809573426	-1.2634103328000001	9.5688975774	-0.610169763	-0.017715091844	0.033292155361999996	0.030237829182	0.008857545922	0.006414084978	0.021380283259999997	-0.05104	-1.49988	-1.53468	0.50808	-0.58754	-0.40774	-1.2346964616	9.5581298757	-0.5455635528	-0.004428772961	0.01985312017	0.025809056221	0.22852	-1.04371	-0.97121	-5.64864	2.82432	9.4144	0.996521095484826	35.935
8123	0	862.893	0	-168	1326	-62	-57	120	98	-88	-2586	-2646	-178	1334	-88	48	3	70	876	-1013	-703	-80	0	352	34.29	0.996052306933136	37.58	0.9967135455218356	4449.48681640625	-7309.8701171875	25.799999237060547	11.9654541015625	3	0	0.0	0.0	0.0	0.0	0.2371932454026659	0.0	0.0	-0.2225394732698991	0.5383850849999999	1.2418749293999998	9.547362174	0.4246866405010223	-0.5409014225006104	0.3689427971839905	0.6252585649490356	6	44.8247802734375	-73.164501953125	-1.2059825904	9.5186483028	-0.4450650036	-1.2777672684	9.5760760452	-0.6317051664000001	-0.017409659225999997	0.03665191416	0.029932396564	0.014660765664	0.000916297854	0.021380283259999997	-0.05104	-1.49988	-1.53468	0.50808	-0.58754	-0.40774	-1.2418749294000002	9.547362174	-0.538385085	-0.0013744467809999987	0.018784106007	0.025656339911999997	0.22852	-1.04371	-0.97121	-2.3536	0.0	10.35584	0.9963829262274857	35.935
8124	0	862.998	0	-174	1330	-64	-39	94	109	-110	-2570	-2644	-182	1331	-82	55	8	76	897	-1033	-672	-192	64	384	34.26	0.9961115223291388	37.59	0.9967826301505058	4449.48681640625	-7309.8701171875	25.799999237060547	11.9654541015625	3	0	0.0	0.0	0.0	0.0	0.1542872573516042	0.0	0.0	-0.3107678664335052	0.5240281494	1.2777672684	9.5509514079	0.4178576171398163	-0.5451614856719971	0.361100971698761	0.630713939666748	6	44.8247802734375	-73.164501953125	-1.2490533972	9.547362174	-0.4594219392	-1.3064811396	9.554540641800001	-0.5886343596	-0.011911872102	0.028710666091999997	0.033292155361999996	0.016798793989999998	0.002443460944	0.023212878968	-0.0638	-1.4906	-1.53352	0.5202600000000001	-0.59914	-0.38976	-1.2777672683999999	9.550951407900001	-0.5240281494	0.0024434609439999994	0.015577063518	0.028252517164999998	0.22823000000000004	-1.04487	-0.96164	-5.64864	1.88288	11.29728	0.9964470762398223	35.925
8125	0	863.104	0	-175	1328	-52	-43	109	96	-110	-2570	-2644	-188	1339	-80	62	6	61	897	-1033	-672	-160	128	384	34.27	0.9960621761658032	37.6	0.9966938070565012	4449.48681640625	-7309.8701171875	25.5	11.9654541015625	3	0	0.0	0.0	0.0	0.0	0.2150016766044439	0.0	0.0	-0.2415696682600107	0.4737788747999999	1.3028919057	9.5724868113	0.4177924692630768	-0.5452661514282227	0.3610312640666961	0.6307065486907959	6	44.8247802734375	-73.164501953125	-1.256231865	9.533005238400001	-0.3732803256	-1.3495519464	9.6119683842	-0.574277424	-0.013133602574	0.033292155361999996	0.029321531328	0.018936822316	0.001832595708	0.018631389698	-0.0638	-1.4906	-1.53352	0.5202600000000001	-0.59914	-0.38976	-1.3028919057000001	9.572486811300001	-0.4737788748	0.002901609871	0.017562375534999997	0.023976460513	0.22823000000000004	-1.04487	-0.96164	-4.7072	3.76576	11.29728	0.9963779916111521	35.935
8126	0	863.209	0	-174	1327	-55	-40	115	89	-77	-2571	-2671	-173	1336	-81	38	14	67	876	-1000	-605	-176	128	288	34.27	0.9960128300024672	37.59	0.99673328398717	4449.48681640625	-7309.8701171875	25.5	11.9981689453125	3	0	0.0	0.0	0.0	0.0	0.2763643777274306	0.0	0.0	-0.1790942349949175	0.4881358103999999	1.2454641633	9.5581298757	0.4177083075046539	-0.5452762246131897	0.361113578081131	0.6307064294815063	6	44.8247802734375	-73.164501953125	-1.2490533972	9.5258267706	-0.394815729	-1.2418749294	9.590432980800001	-0.5814558918	-0.012217304719999999	0.035124751069999995	0.027183503002	0.011606439484	0.004276056651999999	0.020463985405999998	-0.04466	-1.49118	-1.54918	0.50808	-0.58	-0.3509	-1.2454641632999999	9.5581298757	-0.4881358104	-0.0003054326179999997	0.019700403861	0.023823744204	0.23171	-1.03559	-0.95004	-5.17792	3.76576	8.47296	0.9963730569948186	35.93000000000001
8127	0	863.315	0	-167	1328	-62	-47	114	98	-77	-2571	-2671	-179	1327	-79	23	25	62	876	-1000	-605	-160	96	352	34.27	0.9960029607698	37.59	0.9968319763138416	4449.48681640625	-7309.8701171875	25.5	11.9818115234375	3	0	0.0	0.0	0.0	0.0	0.2826102930181027	0.0	0.0	-0.1756681809173797	0.5060819798999999	1.2418749293999998	9.5294160045	0.4176381230354309	-0.5451447367668152	0.3613461256027221	0.6307333707809448	6	44.8247802734375	-73.164501953125	-1.1988041226000001	9.533005238400001	-0.4450650036	-1.2849457362	9.5258267706	-0.5670989562000001	-0.014355333045999999	0.034819318451999995	0.029932396564	0.0070249502139999994	0.00763581545	0.018936822316	-0.04466	-1.49118	-1.54918	0.50808	-0.58	-0.3509	-1.2418749294000002	9.5294160045	-0.5060819799	-0.0036651914159999996	0.021227566950999997	0.024434609439999998	0.23171	-1.03559	-0.95004	-4.7072	2.82432	10.35584	0.9964174685418208	35.93000000000001
8128	0	863.42	0	-173	1325	-62	-63	122	111	-73	-2580	-2643	-178	1326	-85	36	25	81	887	-1052	-750	-96	64	400	34.28	0.9959832223044658	37.59	0.9966345916604984	4449.48681640625	-7309.8701171875	25.600000381469727	11.9981689453125	3	0	0.0	0.0	0.0	0.0	0.2144150943435478	0.0	0.0	-0.2501235957564807	0.5276173833	1.2598210988999998	9.5150590689	0.4176486134529114	-0.5449540019035339	0.3614998757839203	0.6308032274246216	6	44.8247802734375	-73.164501953125	-1.2418749294	9.511469835	-0.4450650036	-1.2777672684	9.5186483028	-0.610169763	-0.019242254934	0.037262779396	0.033903020597999996	0.010995574248	0.00763581545	0.024740042057999997	-0.04234	-1.4964	-1.53294	0.51446	-0.61016	-0.435	-1.2598210989	9.515059068900001	-0.5276173833	-0.004123340343	0.022449297423	0.029321531327999997	0.23606000000000002	-1.05328	-0.98397	-2.82432	1.88288	11.768	0.9963089069824821	35.935
8129	0	863.526	0	-176	1323	-67	-46	113	99	-66	-2574	-2650	-180	1335	-76	51	15	78	887	-1052	-750	-112	48	272	34.27	0.996121391561806	37.6	0.996851714779176	4449.48681640625	-7309.8701171875	25.600000381469727	11.9981689453125	3	0	0.0	0.0	0.0	0.0	0.1037099339362571	0.0	0.0	-0.3654984788438755	0.5132604476999999	1.2777672684	9.5401837062	0.417697936296463	-0.5449022650718689	0.3614714741706848	0.6308315992355347	6	44.8247802734375	-73.164501953125	-1.2634103328000001	9.497112899400001	-0.4809573426	-1.292124204	9.583254513	-0.5455635528	-0.014049900427999999	0.034513885833999995	0.030237829182	0.015577063518	0.00458148927	0.023823744204	-0.03828	-1.49292	-1.537	0.51446	-0.61016	-0.435	-1.2777672684	9.5401837062	-0.5132604477	0.0007635815450000001	0.019547687552	0.027030786693	0.23809000000000002	-1.0515400000000001	-0.986	-3.29504	1.41216	8.00224	0.996486553170491	35.935
8130	0	863.631	0	-173	1328	-55	-59	113	94	-66	-2574	-2650	-185	1340	-78	53	7	56	924	-997	-634	-176	32	320	34.27	0.9959042684431284	37.59	0.9968813224771774	4449.48681640625	-7309.8701171875	25.600000381469727	11.9818115234375	3	0	0.0	0.0	0.0	0.0	0.0357086439739534	0.0	0.0	-0.4194971522574716	0.4773681086999999	1.2849457362	9.5760760452	0.4176501631736755	-0.5450035929679871	0.3614109754562378	0.6308103799819946	6	44.8247802734375	-73.164501953125	-1.2418749294	9.533005238400001	-0.394815729	-1.3280165430000002	9.619146852	-0.5599204884	-0.018020524462	0.034513885833999995	0.028710666091999997	0.016187928754	0.0021380283259999997	0.017104226607999998	-0.03828	-1.49292	-1.537	0.53592	-0.57826	-0.36772	-1.2849457362	9.5760760452	-0.4773681087	-0.0009162978540000009	0.018325957079999997	0.02290744635	0.24881999999999999	-1.03559	-0.95236	-5.17792	0.94144	9.4144	0.9963927954601529	35.93000000000001
8131	0	863.737	0	-164	1328	-46	-49	112	92	-92	-2550	-2644	-178	1330	-70	38	9	51	924	-997	-634	-160	0	368	34.28	0.9961016530964716	37.59	0.9968418455465088	4449.48681640625	-7309.8701171875	25.700000762939453	11.9981689453125	3	0	0.0	0.0	0.0	0.0	0.0273447428517388	0.0	0.0	-0.4109748740399729	0.4163511324	1.2275179937999998	9.5401837062	0.4175350368022918	-0.5451093316078186	0.3614765703678131	0.6307576298713684	6	44.8247802734375	-73.164501953125	-1.1772687192	9.533005238400001	-0.3302095188	-1.2777672684	9.547362174	-0.502492746	-0.014966198282	0.034208453215999995	0.028099800855999998	0.011606439484	0.002748893562	0.015577063518	-0.05336	-1.479	-1.53352	0.53592	-0.57826	-0.36772	-1.2275179938	9.5401837062	-0.4163511324	-0.0016798793990000001	0.018478673388999996	0.021838432186999997	0.24127999999999997	-1.0286300000000002	-0.95062	-4.7072	0.0	10.82656	0.9964717493214902	35.935
8132	0	863.842	0	-169	1330	-59	-55	115	95	-92	-2550	-2644	-172	1337	-84	33	9	62	892	-1026	-648	-192	80	400	34.27	0.996239822353812	37.6	0.9967530224525044	4449.48681640625	-7309.8701171875	25.700000762939453	11.9654541015625	3	0	0.0	0.0	0.0	0.0	-0.0402391323688728	0.0	0.0	-0.4635989242026593	0.5132604477	1.2239287598999995	9.5724868113	0.4174290597438812	-0.5450794100761414	0.3616335988044739	0.6307635307312012	6	44.8247802734375	-73.164501953125	-1.2131610582	9.547362174	-0.4235296002	-1.2346964616	9.5976114486	-0.6029912952	-0.016798793989999998	0.035124751069999995	0.029016098709999997	0.010079276394	0.002748893562	0.018936822316	-0.05336	-1.479	-1.53352	0.51736	-0.59508	-0.37584	-1.2239287599000002	9.5724868113	-0.5132604477	-0.0033597587979999994	0.018936822315999996	0.023976460512999998	0.232	-1.0370400000000002	-0.95468	-5.64864	2.3536	11.768	0.9964964224031583	35.935
8133	0	863.947	0	-163	1326	-57	-51	118	99	-92	-2579	-2651	-175	1331	-77	37	11	80	892	-1026	-648	-160	80	400	34.28	0.99593387614113	37.61	0.996980014803849	4449.48681640625	-7309.8701171875	25.700000762939453	11.9654541015625	3	0	0.0	0.0	0.0	0.0	-0.0602698937005511	0.0	0.0	-0.4606116637204268	0.4809573426	1.2131610582	9.5365944723	0.417366623878479	-0.5450815558433533	0.3616951704025268	0.6307677626609802	6	44.8247802734375	-73.164501953125	-1.1700902514	9.5186483028	-0.4091726646	-1.256231865	9.554540641800001	-0.5527420206	-0.015577063518	0.036041048924	0.030237829182	0.011301006866	0.003359758798	0.024434609439999998	-0.05336	-1.49582	-1.53758	0.51736	-0.59508	-0.37584	-1.2131610581999999	9.536594472300001	-0.4809573426	-0.0021380283259999997	0.019700403861	0.027336219311	0.232	-1.04545	-0.95671	-4.7072	2.3536	11.768	0.9964569454724895	35.945
8134	0	864.053	0	-173	1328	-57	-47	132	114	-92	-2579	-2651	-176	1334	-82	33	21	81	877	-1037	-697	-224	128	400	34.26	0.9957759684184556	37.59	0.9969010609425116	4449.48681640625	-7309.8701171875	25.5	11.9654541015625	3	0	0.0	0.0	0.0	0.0	0.001193769702462	0.0	0.0	-0.375429545378048	0.4989035120999999	1.2526426311	9.5545406418	0.423464298248291	-0.543200671672821	0.3684971332550049	0.6243565082550049	6	44.8247802734375	-73.164501953125	-1.2418749294	9.533005238400001	-0.4091726646	-1.2634103328000001	9.5760760452	-0.5886343596	-0.014355333045999999	0.040317105576	0.034819318451999995	0.010079276394	0.006414084978	0.024740042057999997	-0.05336	-1.49582	-1.53758	0.50866	-0.60146	-0.40426	-1.2526426311	9.554540641800001	-0.4989035121	-0.0021380283259999997	0.023365595277	0.029779680254999996	0.22765	-1.04864	-0.97092	-6.59008	3.76576	11.768	0.9963385146804836	35.925
8135	0	864.158	0	-177	1326	-65	-66	111	105	-98	-2560	-2625	-184	1332	-86	40	21	69	877	-1037	-697	-112	32	368	34.27	0.9960029607698	37.6	0.9969602763385148	4449.48681640625	-7309.8701171875	25.5	11.9654541015625	3	0	0.0	0.0	0.0	0.0	-0.0455267798422951	0.0	0.0	-0.4100989852263692	0.5419743188999999	1.2957134379	9.5401837062	0.4235015213489532	-0.5430322289466858	0.3685552775859833	0.6244434714317322	6	44.8247802734375	-73.164501953125	-1.2705888006000001	9.5186483028	-0.466600407	-1.3208380752	9.5617191096	-0.6173482308	-0.020158552788	0.033903020597999996	0.03207042489	0.012217304719999999	0.006414084978	0.021074850641999997	-0.05684	-1.4848	-1.5225	0.50866	-0.60146	-0.40426	-1.2957134379	9.5401837062	-0.5419743189	-0.003970624034	0.020158552788	0.026572637765999996	0.22591	-1.04313	-0.96338	-3.29504	0.94144	10.82656	0.9964816185541574	35.935
8136	0	864.264	0	-178	1328	-69	-42	117	95	-98	-2560	-2625	-189	1330	-90	59	-2	60	872	-1046	-738	-96	-16	320	34.27	0.996121391561806	37.61	0.9967628916851716	4449.48681640625	-7309.8701171875	25.5	11.9818115234375	3	0	0.0	0.0	0.0	0.0	0.0661837623348237	0.0	0.0	-0.2771845111928816	0.5706881900999999	1.3172488413	9.5401837062	0.4234187304973602	-0.5430855751037598	0.3685823976993561	0.6244372129440308	6	44.8247802734375	-73.164501953125	-1.2777672684	9.533005238400001	-0.4953142782	-1.3567304142	9.547362174	-0.646062102	-0.012828169956	0.035735616306	0.029016098709999997	0.018020524462	-0.000610865236	0.01832595708	-0.05684	-1.4848	-1.5225	0.50576	-0.60668	-0.42804	-1.3172488413	9.5401837062	-0.5706881901	0.002596177253	0.017562375535	0.023671027895	0.22446	-1.04574	-0.97527	-2.82432	-0.47072	9.4144	0.9964421416234888	35.94
8137	0	864.369	0	-173	1326	-60	-44	104	85	-101	-2582	-2649	-183	1332	-79	50	9	54	872	-1046	-738	-192	-16	256	34.28	0.9962102146558104	37.6	0.9967530224525044	4449.48681640625	-7309.8701171875	25.5	11.9654541015625	3	0	0.0	0.0	0.0	0.0	0.0330172418291991	0.0	0.0	-0.3069420949572002	0.4989035120999999	1.2777672684	9.5401837062	0.4232256412506103	-0.5432687401771545	0.3686468601226806	0.6243706941604614	6	44.8247802734375	-73.164501953125	-1.2418749294	9.5186483028	-0.430708068	-1.3136596074	9.5617191096	-0.5670989562000001	-0.013439035192	0.031764992272	0.02596177253	0.0152716309	0.002748893562	0.016493361372	-0.05858	-1.49756	-1.5364200000000001	0.50576	-0.60668	-0.42804	-1.2777672683999999	9.5401837062	-0.49890351210000006	0.000916297854	0.017256942916999998	0.021227566950999997	0.22358999999999998	-1.05212	-0.98223	-5.64864	-0.47072	7.53152	0.9964816185541574	35.94
8138	0	864.475	0	-167	1326	-64	-55	116	97	-101	-2582	-2649	-173	1333	-81	46	20	71	866	-1024	-621	-256	80	336	34.28	0.9960325684678016	37.6	0.9967530224525044	4449.48681640625	-7309.8701171875	25.5	11.9163818359375	3	0	0.0	0.0	0.0	0.0	0.0210251070697548	0.0	0.0	-0.3116507462294383	0.5204389155	1.220339526	9.543772940099998	0.423109620809555	-0.5433312058448792	0.3687467277050018	0.6243358254432678	6	44.8247802734375	-73.164501953125	-1.1988041226000001	9.5186483028	-0.4594219392	-1.2418749294	9.5688975774	-0.5814558918	-0.016798793989999998	0.035430183688	0.029626963946	0.014049900427999999	0.0061086523599999994	0.021685715878	-0.05858	-1.49756	-1.5364200000000001	0.50228	-0.59392	-0.36018	-1.220339526	9.5437729401	-0.5204389155	-0.0013744467809999996	0.020769418024	0.025656339912	0.22184999999999996	-1.04574	-0.9483	-7.53152	2.3536	9.88512	0.996392795460153	35.94
8139	0	864.58	0	-171	1323	-57	-45	124	109	-83	-2571	-2624	-175	1339	-81	37	24	76	866	-1024	-621	-224	32	288	34.29	0.9962200838884776	37.59	0.9966247224278312	4449.48681640625	-7309.8701171875	25.5	11.9490966796875	3	0	0.0	0.0	0.0	0.0	0.0559789854446228	0.0	0.0	-0.2658472976278394	0.4953142781999999	1.2418749293999998	9.5545406418	0.4231637716293335	-0.543237030506134	0.3688158690929413	0.624340295791626	6	44.8247802734375	-73.164501953125	-1.2275179938	9.497112899400001	-0.4091726646	-1.256231865	9.6119683842	-0.5814558918	-0.01374446781	0.037873644632	0.033292155361999996	0.011301006866	0.007330382832	0.023212878968	-0.04814	-1.49118	-1.52192	0.50228	-0.59392	-0.36018	-1.2418749294	9.554540641800001	-0.4953142782	-0.0012217304719999997	0.022602013732	0.028252517164999998	0.22706999999999997	-1.0425499999999999	-0.9410499999999999	-6.59008	0.94144	8.47296	0.9964224031581543	35.94
8140	0	864.686	0	-172	1325	-60	-56	113	106	-83	-2571	-2624	-184	1334	-89	48	27	71	878	-1042	-698	-112	-16	400	34.29	0.9961608684924748	37.61	0.9968221070811744	4449.48681640625	-7309.8701171875	25.700000762939453	11.9327392578125	3	0	0.0	0.0	0.0	0.0	0.0731777074267276	0.0	0.0	-0.2452821699192957	0.5347958510999999	1.2777672684	9.543772940099998	0.4232736825942993	-0.5430889129638672	0.3688310384750366	0.6243857741355896	6	44.8247802734375	-73.164501953125	-1.2346964616	9.511469835	-0.430708068	-1.3208380752	9.5760760452	-0.6388836342	-0.017104226607999998	0.034513885833999995	0.032375857508	0.014660765664	0.008246680686	0.021685715878	-0.04814	-1.49118	-1.52192	0.50924	-0.60436	-0.40484	-1.2777672683999999	9.5437729401	-0.5347958511	-0.0012217304719999988	0.021380283259999997	0.027030786693	0.23055	-1.0477699999999999	-0.9633799999999999	-3.29504	-0.47072	11.768	0.9964914877868245	35.95
8141	0	864.791	0	-179	1331	-57	-46	108	102	-90	-2559	-2647	-188	1333	-84	37	14	64	878	-1042	-698	-128	16	400	34.28	0.9960424377004689	37.61	0.9967135455218356	4449.48681640625	-7309.8701171875	25.700000762939453	11.9654541015625	3	0	0.0	0.0	0.0	0.0	0.181849377421607	0.0	0.0	-0.1353179466626798	0.5060819798999999	1.3172488413	9.561719109599998	0.4232777655124664	-0.5430194139480591	0.3688391149044037	0.6244387030601501	6	44.8247802734375	-73.164501953125	-1.2849457362	9.554540641800001	-0.4091726646	-1.3495519464	9.5688975774	-0.6029912952	-0.014049900427999999	0.032986722744	0.031154127036	0.011301006866	0.004276056651999999	0.019547687552	-0.0522	-1.48422	-1.53526	0.50924	-0.60436	-0.40484	-1.3172488413	9.5617191096	-0.5060819799	-0.0013744467809999996	0.018631389697999996	0.025350907293999997	0.22852	-1.0442900000000002	-0.9700500000000001	-3.76576	0.47072	11.768	0.9963779916111521	35.945
8142	0	864.896	0	-176	1325	-55	-40	108	94	-90	-2559	-2647	-182	1331	-81	49	2	49	884	-1057	-685	-112	128	400	34.27	0.9960128300024672	37.6	0.9967530224525044	4449.48681640625	-7309.8701171875	25.700000762939453	11.9981689453125	3	0	0.0	0.0	0.0	0.0	0.2167161679350842	0.0	0.0	-0.1115765195897604	0.4881358103999999	1.2849457362	9.5330052384	0.4231540560722351	-0.5431313514709473	0.3689090013504028	0.6243838667869568	6	44.8247802734375	-73.164501953125	-1.2634103328000001	9.511469835	-0.394815729	-1.3064811396	9.554540641800001	-0.5814558918	-0.012217304719999999	0.032986722744	0.028710666091999997	0.014966198282	0.000610865236	0.014966198282	-0.0522	-1.48422	-1.53526	0.51272	-0.61306	-0.3973	-1.2849457362	9.533005238400001	-0.4881358104	0.0013744467810000004	0.016798793989999998	0.021838432186999997	0.23025999999999996	-1.04864	-0.96628	-3.29504	3.76576	11.768	0.9963829262274858	35.935
8143	0	865.002	0	-166	1318	-55	-36	109	89	-90	-2594	-2632	-171	1332	-75	43	14	62	884	-1057	-685	-144	80	464	34.29	0.996052306933136	37.6	0.9968615840118432	4449.48681640625	-7309.86962890625	25.899999618530277	11.9654541015625	3	0	0.0	0.0	0.0	0.0	0.1577489174194379	0.0	0.0	-0.1850602880175312	0.4666004069999999	1.2095718242999998	9.511469835	0.4160796999931335	-0.5479148030281067	0.3627071678638458	0.628578245639801	6	44.8247802734375	-73.16449381510417	-1.1916256548000002	9.461220560400001	-0.394815729	-1.2275179938	9.5617191096	-0.538385085	-0.010995574248	0.033292155361999996	0.027183503002	0.013133602574	0.004276056651999999	0.018936822316	-0.0522	-1.50452	-1.52656	0.51272	-0.61306	-0.3973	-1.2095718243000002	9.511469835	-0.46660040700000005	0.0010690141629999999	0.018784106007	0.023060162659	0.23025999999999996	-1.0587900000000001	-0.96193	-4.23648	2.3536	13.65088	0.9964569454724896	35.945
8144	0	865.107	0	-169	1326	-59	-48	118	98	-90	-2594	-2632	-175	1331	-71	54	11	69	890	-1050	-681	-224	0	320	34.27	0.9960226992351344	37.6	0.9966938070565012	4449.48681640625	-7309.86962890625	25.899999618530277	11.9818115234375	3	0	0.0	0.0	0.0	0.0	0.2238880452377855	0.0	0.0	-0.1226234906885406	0.4666004069999999	1.2346964616	9.5365944723	0.4160719513893127	-0.5478540658950806	0.3628061413764953	0.6285792589187622	6	44.8247802734375	-73.16449381510417	-1.2131610582	9.5186483028	-0.4235296002	-1.256231865	9.554540641800001	-0.5096712138	-0.014660765664	0.036041048924	0.029932396564	0.016493361372	0.003359758798	0.021074850641999997	-0.0522	-1.50452	-1.52656	0.5162	-0.609	-0.39498	-1.2346964616	9.536594472300001	-0.46660040700000005	0.0009162978539999991	0.019700403861	0.025503623603	0.23199999999999998	-1.0567600000000001	-0.9607699999999999	-6.59008	0.0	9.4144	0.9963582531458178	35.935
8145	0	865.213	0	-167	1323	-59	-51	115	108	-100	-2569	-2657	-179	1330	-80	44	21	81	890	-1050	-681	-160	-32	240	34.29	0.9958845299777942	37.6	0.9967530224525044	4449.48681640625	-7309.86962890625	25.899999618530277	11.9981689453125	3	0	0.0	0.0	0.0	0.0	0.2536697663332033	0.0	0.0	-0.1069694353050247	0.4989035120999999	1.2418749293999998	9.5222375367	0.4162062704563141	-0.5476871132850647	0.3628190457820892	0.6286283731460571	6	44.8247802734375	-73.16449381510417	-1.1988041226000001	9.497112899400001	-0.4235296002	-1.2849457362	9.547362174	-0.574277424	-0.015577063518	0.035124751069999995	0.032986722744	0.013439035192	0.006414084978	0.024740042057999997	-0.058	-1.49002	-1.54106	0.5162	-0.609	-0.39498	-1.2418749294000002	9.5222375367	-0.49890351210000006	-0.0010690141629999999	0.020769418023999998	0.028863382400999997	0.2291	-1.04951	-0.9680200000000001	-4.7072	-0.94144	7.0608	0.9963187762151493	35.945
8146	0	865.318	0	-182	1324	-62	-59	113	101	-80	-2592	-2633	-183	1332	-85	46	18	71	857	-1069	-730	-224	48	272	34.29	0.996052306933136	37.61	0.9966543301258328	4449.48681640625	-7309.86962890625	25.899999618530277	11.9654541015625	3	0	0.0	0.0	0.0	0.0	0.2787546205074765	0.0	0.0	-0.0951312961692608	0.5276173833	1.3100703735	9.533005238399998	0.4162980318069458	-0.5475192070007324	0.3628444969654083	0.6286991834640503	6	44.8247802734375	-73.16449381510417	-1.3064811396	9.5042913672	-0.4450650036	-1.3136596074	9.5617191096	-0.610169763	-0.018020524462	0.034513885833999995	0.030848694418	0.014049900427999999	0.005497787124	0.021685715878	-0.0464	-1.50336	-1.52714	0.49706	-0.62002	-0.4234	-1.3100703734999999	9.533005238400001	-0.5276173833	-0.0019853120170000007	0.020005836479	0.026267205148	0.22533	-1.06169	-0.97527	-6.59008	1.41216	8.00224	0.9963533185294844	35.95
8147	0	865.424	0	-181	1323	-66	-50	109	93	-80	-2592	-2633	-186	1329	-86	37	2	65	857	-1069	-730	-128	-16	400	34.28	0.9962496915864792	37.6	0.9966938070565012	4449.48681640625	-7309.86962890625	26.0	11.9654541015625	3	0	0.0	0.0	0.0	0.0	0.2698079220781864	0.0	0.0	-0.1213398091441835	0.5455635527999999	1.3172488413	9.5186483028	0.4163264632225036	-0.5474457740783691	0.3629063069820404	0.6287086009979248	6	44.8247802734375	-73.16449381510417	-1.2993026718	9.497112899400001	-0.4737788748	-1.3351950108000001	9.5401837062	-0.6173482308	-0.0152716309	0.033292155361999996	0.028405233473999997	0.011301006866	0.000610865236	0.01985312017	-0.0464	-1.50336	-1.52714	0.49706	-0.62002	-0.4234	-1.3172488413	9.5186483028	-0.5455635528	-0.001985312017	0.016951510298999998	0.024129176821999998	0.22533	-1.06169	-0.97527	-3.76576	-0.47072	11.768	0.9964717493214903	35.94
8148	0	865.529	0	-175	1330	-66	-47	105	92	-99	-2593	-2626	-187	1332	-81	55	4	55	894	-1039	-650	-208	0	320	34.28	0.9959832223044658	37.61	0.996980014803849	4449.48681640625	-7309.86962890625	26.0	11.9981689453125	3	0	0.0	0.0	0.0	0.0	0.2259368390196455	0.0	0.0	-0.1780067301503394	0.5276173833	1.2993026718	9.5545406418	0.4162570536136627	-0.547475278377533	0.3630294799804687	0.6286576986312866	6	44.8247802734375	-73.16449381510417	-1.256231865	9.547362174	-0.4737788748	-1.3423734786000001	9.5617191096	-0.5814558918	-0.014355333045999999	0.03207042489	0.028099800855999998	0.016798793989999998	0.001221730472	0.016798793989999998	-0.05742	-1.50394	-1.52308	0.51852	-0.60262	-0.377	-1.2993026718	9.5545406418	-0.5276173833	0.0012217304719999997	0.016646077680999998	0.022449297422999996	0.23054999999999998	-1.05328	-0.95004	-6.11936	0.0	9.4144	0.9964816185541574	35.945
8149	0	865.635	0	-167	1323	-60	-45	100	95	-99	-2593	-2626	-176	1338	-82	34	0	72	894	-1039	-650	-144	48	352	34.28	0.9960424377004689	37.61	0.9967234147545028	4449.48681640625	-7309.86962890625	26.0	11.9654541015625	3	0	0.0	0.0	0.0	0.0	0.2727098564923067	0.0	0.0	-0.1370568125919376	0.5096712137999999	1.2311072277	9.5509514079	0.4161630272865295	-0.5475001335144043	0.3630589842796325	0.6286813616752625	6	44.8247802734375	-73.16449381510417	-1.1988041226000001	9.497112899400001	-0.430708068	-1.2634103328000001	9.6047899164	-0.5886343596	-0.01374446781	0.0305432618	0.029016098709999997	0.010384709011999999	0.0	0.021991148496	-0.05742	-1.50394	-1.52308	0.51852	-0.60262	-0.377	-1.2311072277000001	9.550951407900001	-0.5096712138	-0.0016798793990000001	0.0152716309	0.025503623603	0.23054999999999998	-1.05328	-0.95004	-4.23648	1.41216	10.35584	0.9963829262274858	35.945
8150	0	865.74	0	-174	1326	-57	-51	101	103	-84	-2572	-2666	-180	1331	-81	38	6	80	897	-1025	-633	-96	96	448	34.28	0.9961411300271404	37.61	0.9967727609178386	4449.48681640625	-7309.86962890625	26.299999237060547	11.9654541015625	3	0	0.0	0.0	0.0	0.0	0.2716958411791103	0.0	0.0	-0.1510471266545968	0.4953142781999999	1.2705888006	9.5365944723	0.4161631464958191	-0.547511875629425	0.3629976809024811	0.6287063360214233	6	44.8247802734375	-73.16449381510417	-1.2490533972	9.5186483028	-0.4091726646	-1.292124204	9.554540641800001	-0.5814558918	-0.015577063518	0.030848694418	0.031459559654	0.011606439484	0.001832595708	0.024434609439999998	-0.04872	-1.49176	-1.54628	0.5202600000000001	-0.5945	-0.36714	-1.2705888006000001	9.536594472300001	-0.4953142782	-0.001985312017	0.016340645063	0.027947084546999998	0.23577000000000004	-1.0431300000000001	-0.9567100000000001	-2.82432	2.82432	13.18016	0.9964569454724895	35.945
8151	0	865.845	0	-178	1325	-54	-58	120	116	-84	-2572	-2666	-186	1333	-83	30	13	77	886	-1057	-739	-112	-16	416	34.3	0.9961806069578092	37.62	0.9968418455465088	4449.48681640625	-7309.86962890625	26.299999237060547	11.9981689453125	3	0	0.0	0.0	0.0	0.0	0.1850774534046377	0.0	0.0	-0.2457473422291901	0.4917250442999999	1.3064811395999998	9.5401837062	0.4162124097347259	-0.5473732948303223	0.3630283772945404	0.6287767291069031	6	44.8247802734375	-73.16449381510417	-1.2777672684	9.511469835	-0.3876372612	-1.3351950108000001	9.5688975774	-0.5958128274000001	-0.017715091844	0.03665191416	0.035430183688	0.00916297854	0.003970624034	0.023518311586	-0.04872	-1.49176	-1.54628	0.51388	-0.61306	-0.42862	-1.3064811396000002	9.5401837062	-0.4917250443000001	-0.004276056652	0.020311269096999998	0.029474247637	0.23258	-1.05241	-0.98745	-3.29504	-0.47072	12.23872	0.9965112262521589	35.959999999999994
8152	0	865.951	0	-173	1327	-61	-52	127	96	-112	-2575	-2658	-183	1336	-83	33	19	65	886	-1057	-739	-160	16	256	34.29	0.9960621761658032	37.6	0.9967036762891686	4449.48681640625	-7309.86962890625	26.299999237060547	11.9654541015625	3	0	0.0	0.0	0.0	0.0	0.2264061848232919	0.0	0.0	-0.2035075933029096	0.5168496816	1.2777672684	9.5581298757	0.4161936044692993	-0.5472593307495117	0.3631806373596191	0.6288005113601685	6	44.8247802734375	-73.16449381510417	-1.2418749294	9.5258267706	-0.43788653580000003	-1.3136596074	9.590432980800001	-0.5958128274000001	-0.015882496136	0.038789942486	0.029321531328	0.010079276394	0.005803219742	0.01985312017	-0.06496	-1.4935	-1.54164	0.51388	-0.61306	-0.42862	-1.2777672683999999	9.5581298757	-0.5168496816000001	-0.002901609871	0.022296581114	0.024587325749	0.22446	-1.05328	-0.98513	-4.7072	0.47072	7.53152	0.9963829262274859	35.945
8153	0	866.056	0	-171	1328	-62	-45	120	92	-112	-2575	-2658	-184	1333	-86	40	15	69	871	-1032	-657	-128	0	272	34.3	0.9960917838638046	37.61	0.9969306686405132	4449.48681640625	-7309.86962890625	26.5	11.9654541015625	3	0	0.0	0.0	0.0	0.0	0.1661441811893482	0.0	0.0	-0.2717654918320795	0.5312066172	1.2741780344999998	9.5509514079	0.4167253971099853	-0.546027421951294	0.3608497083187103	0.6308577060699463	6	44.8247802734375	-73.16449381510417	-1.2275179938	9.533005238400001	-0.4450650036	-1.3208380752	9.5688975774	-0.6173482308	-0.01374446781	0.03665191416	0.028099800855999998	0.012217304719999999	0.00458148927	0.021074850641999997	-0.06496	-1.4935	-1.54164	0.50518	-0.59856	-0.38106	-1.2741780345	9.550951407900001	-0.5312066172000001	-0.0007635815450000001	0.020616701715	0.024587325748999998	0.22010999999999997	-1.04603	-0.9613499999999999	-3.76576	0.0	8.00224	0.9965112262521589	35.955
8154	0	866.162	0	-173	1328	-62	-38	117	96	-86	-2568	-2624	-186	1334	-86	42	9	64	871	-1032	-657	-96	48	400	34.28	0.9960917838638046	37.61	0.9967135455218356	4449.48681640625	-7309.86962890625	26.5	11.9654541015625	3	0	0.0	0.0	0.0	0.0	0.1422180123732297	0.0	0.0	-0.2923972581465195	0.5312066172	1.2885349701	9.5545406418	0.416669487953186	-0.5460662841796875	0.3608920574188232	0.6308368444442749	6	44.8247802734375	-73.16449381510417	-1.2418749294	9.533005238400001	-0.4450650036	-1.3351950108000001	9.5760760452	-0.6173482308	-0.011606439484	0.035735616306	0.029321531328	0.012828169956	0.002748893562	0.019547687552	-0.04988	-1.48944	-1.52192	0.50518	-0.59856	-0.38106	-1.2885349701000002	9.554540641800001	-0.5312066172000001	0.0006108652360000003	0.019242254934	0.024434609439999998	0.22765	-1.044	-0.95149	-2.82432	1.41216	11.768	0.9964026646928201	35.945
8155	0	866.267	0	-174	1327	-58	-40	101	97	-86	-2568	-2624	-180	1330	-78	52	18	77	877	-1049	-616	-144	-16	304	34.3	0.9960128300024672	37.62	0.9970096225018504	4449.48681640625	-7309.86962890625	26.5	11.9654541015625	3	0	0.0	0.0	0.0	0.0	0.1252622498430828	0.0	0.0	-0.3100768338039947	0.4881358104	1.2705888006	9.5365944723	0.4167011082172394	-0.5460745096206665	0.3608537316322326	0.6308308243751526	6	44.8247802734375	-73.16449381510417	-1.2490533972	9.5258267706	-0.4163511324	-1.292124204	9.547362174	-0.5599204884	-0.012217304719999999	0.030848694418	0.029626963946	0.015882496136	0.005497787124	0.023518311586	-0.04988	-1.48944	-1.52192	0.50866	-0.60842	-0.35728	-1.2705888006000001	9.5365944723	-0.4881358104	0.001832595708	0.018173240771	0.026572637766	0.22939	-1.04893	-0.9396	-4.23648	-0.47072	8.94368	0.9965112262521588	35.959999999999994
8156	0	866.373	0	-175	1328	-53	-53	107	101	-98	-2583	-2665	-183	1329	-78	48	18	72	877	-1049	-616	-48	-32	240	34.29	0.9960621761658032	37.61	0.9967234147545028	4449.48681640625	-7309.86962890625	27.100000381469727	11.9818115234375	3	0	0.0	0.0	0.0	0.0	0.11777728071724	0.0	0.0	-0.30773219009773	0.4701896409	1.2849457362	9.5365944723	0.4167725443840027	-0.5459893941879272	0.3608497381210327	0.6308596134185791	6	44.8247802734375	-73.16449381510417	-1.256231865	9.533005238400001	-0.3804587934	-1.3136596074	9.5401837062	-0.5599204884	-0.016187928754	0.032681290126	0.030848694418	0.014660765664	0.005497787124	0.021991148496	-0.05684	-1.49814	-1.5457	0.50866	-0.60842	-0.35728	-1.2849457362	9.536594472300001	-0.4701896409	-0.0007635815449999993	0.019089538625	0.026419921457	0.22591	-1.05328	-0.9514900000000001	-1.41216	-0.94144	7.0608	0.996392795460153	35.95
8157	0	866.478	0	-176	1332	-59	-56	120	99	-98	-2583	-2665	-181	1332	-86	39	15	76	882	-1058	-692	-128	96	384	34.29	0.996052306933136	37.6	0.9968122378485073	4449.48681640625	-7309.86962890625	27.100000381469727	11.9818115234375	3	0	0.0	0.0	0.0	0.0	0.0854105441172801	0.0	0.0	-0.3326582671415504	0.5204389155	1.2813565023	9.561719109599998	0.4168207347393036	-0.5458426475524902	0.3609673976898193	0.6308873891830444	6	44.8247802734375	-73.16449381510417	-1.2634103328000001	9.5617191096	-0.4235296002	-1.2993026718	9.5617191096	-0.6173482308	-0.017104226607999998	0.03665191416	0.030237829182	0.011911872102	0.00458148927	0.023212878968	-0.05684	-1.49814	-1.5457	0.51156	-0.61364	-0.40136	-1.2813565023	9.5617191096	-0.5204389155	-0.0025961772529999993	0.020616701715	0.026725354075	0.22736	-1.05589	-0.97353	-3.76576	2.82432	11.29728	0.9964322723908217	35.945
8158	0	866.583	0	-170	1324	-58	-58	117	100	-102	-2587	-2650	-184	1335	-82	40	11	67	882	-1058	-692	-128	48	368	34.3	0.9960128300024672	37.62	0.9969010609425116	4449.48681640625	-7309.86962890625	27.100000381469727	11.9818115234375	3	0	0.0	0.0	0.0	0.0	0.0827594394795888	0.0	0.0	-0.3278828985955467	0.5024927459999999	1.2705888006	9.543772940099998	0.4168190062046051	-0.5457364916801453	0.3610929548740387	0.6309084296226501	6	44.8247802734375	-73.16449381510417	-1.220339526	9.5042913672	-0.4163511324	-1.3208380752	9.583254513	-0.5886343596	-0.017715091844	0.035735616306	0.0305432618	0.012217304719999999	0.003359758798	0.020463985405999998	-0.05916	-1.50046	-1.537	0.51156	-0.61364	-0.40136	-1.2705888006000001	9.5437729401	-0.5024927459999999	-0.002748893562000001	0.019547687552	0.025503623603	0.2262	-1.0570499999999998	-0.9691799999999999	-3.76576	1.41216	10.82656	0.9964569454724894	35.959999999999994
8159	0	866.689	0	-173	1329	-64	-42	95	92	-102	-2587	-2650	-183	1333	-84	40	3	66	893	-1002	-616	-192	32	288	34.29	0.9961115223291388	37.61	0.9967628916851716	4449.48681640625	-7309.86962890625	27.299999237060547	11.9818115234375	3	0	0.0	0.0	0.0	0.0	0.0578436376092688	0.0	0.0	-0.3450643693354582	0.5312066172	1.2777672684	9.5545406418	0.4167179763317108	-0.5457360744476318	0.3611434698104858	0.6309466361999512	6	44.8247802734375	-73.16449381510417	-1.2418749294	9.5401837062	-0.4594219392	-1.3136596074	9.5688975774	-0.6029912952	-0.012828169956	0.029016098709999997	0.028099800855999998	0.012217304719999999	0.000916297854	0.020158552788	-0.05916	-1.50046	-1.537	0.51794	-0.58116	-0.35728	-1.2777672683999999	9.5545406418	-0.5312066172000001	-0.0003054326180000006	0.014966198281999998	0.024129176821999998	0.22938999999999998	-1.04081	-0.94714	-5.64864	0.94144	8.47296	0.9964372070071552	35.95
8160	0	866.794	0	-177	1327	-60	-35	111	96	-106	-2574	-2615	-180	1332	-80	41	7	65	893	-1002	-616	-176	112	384	34.29	0.9958943992104614	37.62	0.9968418455465088	4449.48681640625	-7309.86962890625	27.299999237060547	11.9818115234375	3	0	0.0	0.0	0.0	0.0	0.0303979450686215	0.0	0.0	-0.3617245390604981	0.5024927459999999	1.2813565023	9.543772940099998	0.4166848957538605	-0.5458246469497681	0.3611113429069519	0.630910336971283	6	44.8247802734375	-73.16449381510417	-1.2705888006000001	9.5258267706	-0.430708068	-1.292124204	9.5617191096	-0.574277424	-0.010690141629999999	0.033903020597999996	0.029321531328	0.012522737337999999	0.0021380283259999997	0.01985312017	-0.06148	-1.49292	-1.5167	0.51794	-0.58116	-0.35728	-1.2813565023	9.5437729401	-0.502492746	0.000916297854	0.018020524461999997	0.024587325749	0.22823	-1.03704	-0.93699	-5.17792	3.29504	11.29728	0.996368122378485	35.955
8161	0	866.9	0	-171	1331	-59	-48	104	95	-106	-2574	-2615	-185	1331	-72	38	14	76	910	-1021	-578	-16	128	368	34.29	0.996052306933136	37.61	0.9967727609178386	4449.48681640625	-7309.86962890625	27.299999237060547	11.9490966796875	3	0	0.0	0.0	0.0	0.0	0.0039851225491642	0.0	0.0	-0.3748777511818673	0.4701896409	1.2777672684	9.5545406418	0.4166583716869354	-0.5458701252937317	0.3610643446445465	0.6309154629707336	6	44.8247802734375	-73.16449381510417	-1.2275179938	9.554540641800001	-0.4235296002	-1.3280165430000002	9.554540641800001	-0.5168496816	-0.014660765664	0.031764992272	0.029016098709999997	0.011606439484	0.004276056651999999	0.023212878968	-0.06148	-1.49292	-1.5167	0.5278	-0.59218	-0.33524	-1.2777672684	9.554540641800001	-0.47018964090000004	-0.0015271630900000003	0.018020524461999997	0.026114488839	0.23316000000000003	-1.04255	-0.92597	-0.47072	3.76576	10.82656	0.9964125339254872	35.95
8162	0	867.005	0	-183	1326	-53	-57	113	99	-73	-2566	-2644	-179	1337	-81	33	16	69	910	-1021	-578	-176	32	384	34.3	0.9960226992351344	37.63	0.9968714532445102	4449.48681640625	-7309.86962890625	27.0	11.9654541015625	3	0	0.0	0.0	0.0	0.0	-0.0610491677823437	0.0	0.0	-0.4313525371814506	0.4809573425999999	1.2993026718	9.5581298757	0.4271682798862457	-0.5410062074661255	0.3716695010662079	0.6218531131744385	6	44.8247802734375	-73.16449381510417	-1.3136596074	9.5186483028	-0.3804587934	-1.2849457362	9.5976114486	-0.5814558918	-0.017409659225999997	0.034513885833999995	0.030237829182	0.010079276394	0.004886921888	0.021074850641999997	-0.04234	-1.48828	-1.53352	0.5278	-0.59218	-0.33524	-1.2993026718	9.5581298757	-0.4809573426	-0.003665191415999999	0.019700403861	0.025656339911999997	0.24273000000000003	-1.04023	-0.93438	-5.17792	0.94144	11.29728	0.9964470762398223	35.965
8163	0	867.111	0	-172	1328	-68	-52	112	99	-72	-2559	-2662	-179	1332	-85	30	17	72	868	-1037	-674	-176	32	368	34.3	0.9959733530717988	37.62	0.9969504071058476	4449.48681640625	-7309.86962890625	27.0	11.9818115234375	3	0	0.0	0.0	0.0	0.0	0.0756323780832802	0.0	0.0	-0.2710342854113153	0.5491527866999999	1.2598210988999998	9.547362174	0.4271785318851471	-0.5408672094345093	0.371825248003006	0.6218740344047546	6	44.8247802734375	-73.16449381510417	-1.2346964616	9.533005238400001	-0.48813581040000004	-1.2849457362	9.5617191096	-0.610169763	-0.015882496136	0.034208453215999995	0.030237829182	0.00916297854	0.005192354505999999	0.021991148496	-0.04176	-1.48422	-1.54396	0.50344	-0.60146	-0.39092	-1.2598210989	9.547362174	-0.5491527867	-0.0033597587979999994	0.019700403861	0.026114488839	0.23084	-1.04284	-0.96744	-5.17792	0.94144	10.82656	0.9964618800888232	35.959999999999994
8164	0	867.216	0	-178	1330	-58	-44	105	97	-72	-2559	-2662	-182	1336	-82	50	8	66	868	-1037	-674	-144	0	352	34.28	0.9961509992598075	37.62	0.9967826301505058	4449.48681640625	-7309.86962890625	27.0	11.9981689453125	3	0	0.0	0.0	0.0	0.0	0.1142835633015902	0.0	0.0	-0.2276316212326747	0.5024927459999999	1.2921242039999998	9.5688975774	0.42718505859375	-0.5408211946487427	0.3718860447406769	0.6218730807304382	6	44.8247802734375	-73.16449381510417	-1.2777672684	9.547362174	-0.4163511324	-1.3064811396	9.590432980800001	-0.5886343596	-0.013439035192	0.03207042489	0.029626963946	0.0152716309	0.002443460944	0.020158552788	-0.04176	-1.48422	-1.54396	0.50344	-0.60146	-0.39092	-1.292124204	9.568897577400001	-0.5024927459999999	0.000916297854	0.017256942916999998	0.024892758367	0.23084	-1.04284	-0.96744	-4.23648	0.0	10.35584	0.9964668147051567	35.95
8165	0	867.322	0	-175	1325	-64	-45	112	99	-113	-2576	-2649	-189	1329	-83	58	3	66	878	-1045	-625	-96	32	336	34.28	0.9961016530964716	37.61	0.9967628916851716	4449.48681640625	-7309.86962890625	27.0	11.9654541015625	3	0	0.0	0.0	0.0	0.0	0.2354617595644583	0.0	0.0	-0.106225250878385	0.5276173833	1.3064811395999998	9.525826770599998	0.4271835088729858	-0.540884256362915	0.3718771338462829	0.6218246817588806	6	44.8247802734375	-73.16449381510417	-1.256231865	9.511469835	-0.4594219392	-1.3567304142	9.5401837062	-0.5958128274000001	-0.01374446781	0.034208453215999995	0.030237829182	0.017715091844	0.000916297854	0.020158552788	-0.06554	-1.49408	-1.5364200000000001	0.50924	-0.6061	-0.3625	-1.3064811396	9.5258267706	-0.5276173833000001	0.0019853120170000007	0.017562375534999997	0.025198190985	0.22185000000000002	-1.05009	-0.9494600000000001	-2.82432	0.94144	9.88512	0.9964322723908217	35.945
8166	0	867.427	0	-172	1329	-52	-47	110	97	-113	-2576	-2649	-184	1332	-80	39	9	69	878	-1045	-625	-144	64	320	34.28	0.9961411300271404	37.63	0.9969701455711818	4449.48681640625	-7309.86962890625	27.100000381469727	11.9981689453125	3	0	0.0	0.0	0.0	0.0	0.2498239843243677	0.0	0.0	-0.1107933986005506	0.4737788747999999	1.2777672684	9.550951407899998	0.4271968901157379	-0.540900707244873	0.3718494772911072	0.6218177080154419	6	44.8247802734375	-73.16449381510417	-1.2346964616	9.5401837062	-0.3732803256	-1.3208380752	9.5617191096	-0.574277424	-0.014355333045999999	0.033597587979999996	0.029626963946	0.011911872102	0.002748893562	0.021074850641999997	-0.06554	-1.49408	-1.5364200000000001	0.50924	-0.6061	-0.3625	-1.2777672683999999	9.550951407900001	-0.4737788748	-0.0012217304719999997	0.018173240770999997	0.025350907293999997	0.22185000000000002	-1.05009	-0.9494600000000001	-4.23648	1.88288	9.4144	0.9965556377991611	35.955
8167	0	867.532	0	-174	1326	-54	-62	116	91	-100	-2557	-2642	-177	1330	-83	34	5	70	896	-1028	-603	-144	128	336	34.3	0.9960128300024672	37.61	0.9967727609178386	4449.48681640625	-7309.86962890625	27.100000381469727	11.9654541015625	3	0	0.0	0.0	0.0	0.0	0.1982378802673163	0.0	0.0	-0.1778282028993036	0.4917250442999999	1.2598210988999998	9.5330052384	0.42721027135849	-0.5407499074935913	0.3719815015792846	0.6218608021736145	6	44.8247802734375	-73.16449381510417	-1.2490533972	9.5186483028	-0.3876372612	-1.2705888006000001	9.547362174	-0.5958128274000001	-0.018936822316	0.035430183688	0.027794368237999998	0.010384709011999999	0.0015271630899999999	0.021380283259999997	-0.058	-1.48306	-1.53236	0.51968	-0.59624	-0.34974	-1.2598210989	9.533005238400001	-0.4917250443000001	-0.004276056652	0.018478673389	0.024587325748999998	0.23084000000000002	-1.03965	-0.9410499999999999	-4.23648	3.76576	9.88512	0.9963927954601529	35.955
8168	0	867.638	0	-176	1328	-65	-66	115	94	-100	-2557	-2642	-180	1334	-85	30	8	63	896	-1028	-603	-144	64	304	34.3	0.9961312607944732	37.62	0.9969602763385148	4449.48681640625	-7309.86962890625	27.100000381469727	11.9654541015625	3	0	0.0	0.0	0.0	0.0	0.1160826352739545	0.0	0.0	-0.2653134753675104	0.5383850849999999	1.2777672684	9.5545406418	0.4272116720676422	-0.54059898853302	0.3721488118171692	0.6218908429145813	6	44.8247802734375	-73.16449381510417	-1.2634103328000001	9.533005238400001	-0.466600407	-1.292124204	9.5760760452	-0.610169763	-0.020158552788	0.035124751069999995	0.028710666091999997	0.00916297854	0.002443460944	0.019242254934	-0.058	-1.48306	-1.53236	0.51968	-0.59624	-0.34974	-1.2777672684	9.554540641800001	-0.538385085	-0.005497787123999999	0.018784106006999996	0.023976460512999998	0.23084000000000002	-1.03965	-0.9410499999999999	-4.23648	1.88288	8.94368	0.996545768566494	35.959999999999994
8169	0	867.743	0	-170	1326	-64	-45	107	98	-107	-2585	-2630	-185	1333	-86	34	8	70	897	-1037	-687	-96	-48	320	34.29	0.995993091537133	37.62	0.9969010609425116	4449.48681640625	-7309.86962890625	27.100000381469727	11.9654541015625	3	0	0.0	0.0	0.0	0.0	0.1435506574595755	0.0	0.0	-0.2340872979787274	0.5383850849999999	1.2741780344999998	9.543772940099998	0.4272153079509735	-0.5405234098434448	0.3722200393676758	0.621911346912384	6	44.8247802734375	-73.16449381510417	-1.220339526	9.5186483028	-0.4594219392	-1.3280165430000002	9.5688975774	-0.6173482308	-0.01374446781	0.032681290126	0.029932396564	0.010384709011999999	0.002443460944	0.021380283259999997	-0.06206	-1.4993	-1.5254	0.5202600000000001	-0.60146	-0.39846	-1.2741780345000002	9.5437729401	-0.538385085	-0.0016798793990000001	0.017562375534999997	0.025656339911999997	0.22910000000000003	-1.05038	-0.9619300000000001	-2.82432	-1.41216	9.4144	0.9964470762398223	35.955
8170	0	867.849	0	-173	1324	-61	-46	110	106	-107	-2585	-2630	-190	1340	-85	51	5	73	897	-1037	-687	-80	144	400	34.29	0.9960029607698	37.62	0.9967826301505058	4449.48681640625	-7309.86962890625	27.100000381469727	11.9818115234375	3	0	0.0	0.0	0.0	0.0	0.1556731012019824	0.0	0.0	-0.222558565746056	0.5240281494	1.3028919057	9.561719109599998	0.4272466003894806	-0.540554404258728	0.3721747994422912	0.6218900680541992	6	44.8247802734375	-73.16449381510417	-1.2418749294	9.5042913672	-0.43788653580000003	-1.363908882	9.619146852	-0.610169763	-0.014049900427999999	0.033597587979999996	0.032375857508	0.015577063518	0.0015271630899999999	0.022296581114	-0.06206	-1.4993	-1.5254	0.5202600000000001	-0.60146	-0.39846	-1.3028919057000001	9.5617191096	-0.5240281494000001	0.0007635815450000001	0.017562375534999997	0.027336219311	0.22910000000000003	-1.05038	-0.9619300000000001	-2.3536	4.23648	11.768	0.9963927954601529	35.955
8171	0	867.954	0	-178	1328	-58	-50	110	93	-96	-2571	-2644	-188	1333	-82	48	10	59	874	-1023	-640	-112	-16	368	34.3	0.9960128300024672	37.62	0.9966345916604984	4449.48681640625	-7309.86962890625	27.100000381469727	11.9654541015625	3	0	0.0	0.0	0.0	0.0	0.2137256712242287	0.0	0.0	-0.1632572993650736	0.5024927459999999	1.3136596074	9.5509514079	0.4272472858428955	-0.5405932664871216	0.3721487522125244	0.6218713521957397	6	44.8247802734375	-73.16449381510417	-1.2777672684	9.533005238400001	-0.4163511324	-1.3495519464	9.5688975774	-0.5886343596	-0.0152716309	0.033597587979999996	0.028405233473999997	0.014660765664	0.0030543261799999997	0.018020524462	-0.05568	-1.49118	-1.53352	0.50692	-0.59334	-0.3712	-1.3136596074	9.550951407900001	-0.5024927459999999	-0.0003054326179999997	0.018325957079999997	0.023212878968	0.22562000000000001	-1.04226	-0.95236	-3.29504	-0.47072	10.82656	0.9963237108314829	35.959999999999994
8172	0	868.06	0	-171	1324	-57	-52	111	88	-96	-2571	-2644	-189	1332	-79	33	13	68	874	-1023	-640	-96	80	416	34.29	0.9959536146064644	37.62	0.99673328398717	4449.48681640625	-7309.86962890625	27.200000762939453	11.9490966796875	3	0	0.0	0.0	0.0	0.0	0.3427676342612465	0.0	0.0	-0.0372369890507786	0.4881358104	1.2921242039999998	9.533005238399998	0.4343866109848022	-0.5359023809432983	0.3765773177146911	0.6183093786239624	6	44.8247802734375	-73.16449381510417	-1.2275179938	9.5042913672	-0.4091726646	-1.3567304142	9.5617191096	-0.5670989562000001	-0.015882496136	0.033903020597999996	0.026878070384	0.010079276394	0.003970624034	0.020769418023999998	-0.05568	-1.49118	-1.53352	0.50692	-0.59334	-0.3712	-1.292124204	9.533005238400001	-0.48813581040000004	-0.002901609871	0.018936822315999996	0.023823744204	0.22562000000000001	-1.04226	-0.95236	-2.82432	2.3536	12.23872	0.9963434492968172	35.955
8173	0	868.165	0	-177	1327	-62	-59	112	99	-90	-2590	-2649	-180	1333	-81	31	26	70	907	-1013	-641	-176	80	320	34.29	0.996052306933136	37.61	0.9969405378731804	4449.48681640625	-7309.86962890625	27.200000762939453	12.0145263671875	3	0	0.0	0.0	0.0	0.0	0.3581648241289857	0.0	0.0	-0.0429541512136468	0.5132604476999999	1.2813565023	9.547362174	0.4343986809253692	-0.535767674446106	0.3767184019088745	0.618331789970398	6	44.8247802734375	-73.16449381510417	-1.2705888006000001	9.5258267706	-0.4450650036	-1.292124204	9.5688975774	-0.5814558918	-0.018020524462	0.034208453215999995	0.030237829182	0.009468411158	0.007941248068	0.021380283259999997	-0.0522	-1.5022	-1.5364200000000001	0.52606	-0.58754	-0.37178	-1.2813565023	9.547362174	-0.5132604477	-0.004276056652	0.021074850641999997	0.025809056221	0.23692999999999997	-1.04487	-0.9541000000000001	-5.17792	2.3536	9.4144	0.9964964224031582	35.95
8174	0	868.271	0	-174	1328	-62	-47	113	95	-90	-2590	-2649	-185	1336	-85	51	22	71	907	-1013	-641	-160	48	272	34.28	0.9961509992598075	37.62	0.9968911917098444	4449.48681640625	-7309.86962890625	27.200000762939453	11.9490966796875	3	0	0.0	0.0	0.0	0.0	0.2842027313765575	0.0	0.0	-0.1409158941705887	0.5276173833	1.2885349701	9.561719109599998	0.4344206154346466	-0.5356367826461792	0.3768078088760376	0.618375301361084	6	44.8247802734375	-73.16449381510417	-1.2490533972	9.533005238400001	-0.4450650036	-1.3280165430000002	9.590432980800001	-0.610169763	-0.014355333045999999	0.034513885833999995	0.029016098709999997	0.015577063518	0.006719517596	0.021685715878	-0.0522	-1.5022	-1.5364200000000001	0.52606	-0.58754	-0.37178	-1.2885349701000002	9.561719109600002	-0.5276173833	0.0006108652360000003	0.020616701714999998	0.025350907293999997	0.23692999999999997	-1.04487	-0.9541000000000001	-4.7072	1.41216	8.00224	0.996521095484826	35.95
8175	0	868.376	0	-171	1337	-66	-40	107	95	-86	-2596	-2631	-182	1335	-90	52	7	61	886	-1022	-653	-112	80	400	34.29	0.996052306933136	37.63	0.9968122378485073	4449.48681640625	-7309.86962890625	27.399999618530277	11.9654541015625	3	0	0.0	0.0	0.0	0.0	0.2384946160097044	0.0	0.0	-0.2005372500893017	0.5599204884	1.2669995666999998	9.5904329808	0.4344170689582824	-0.535696804523468	0.3767676949501037	0.6183502078056335	6	44.8247802734375	-73.16449381510417	-1.2275179938	9.5976114486	-0.4737788748	-1.3064811396	9.583254513	-0.646062102	-0.012217304719999999	0.032681290126	0.029016098709999997	0.015882496136	0.0021380283259999997	0.018631389698	-0.04988	-1.50568	-1.5259800000000001	0.51388	-0.59276	-0.37874	-1.2669995667	9.5904329808	-0.5599204884	0.001832595708	0.017409659225999997	0.023823744204	0.232	-1.04922	-0.9523600000000001	-3.29504	2.3536	11.768	0.9964322723908217	35.96
8176	0	868.481	0	-175	1325	-56	-33	105	96	-86	-2596	-2631	-181	1335	-88	50	14	68	886	-1022	-653	-48	160	480	34.3	0.9960819146311374	37.62	0.9969109301751788	4449.48681640625	-7309.86962890625	27.399999618530277	11.9654541015625	3	0	0.0	0.0	0.0	0.0	0.1997702552448323	0.0	0.0	-0.2457311570226102	0.5168496816	1.2777672684	9.547362174	0.4343851208686828	-0.5357803702354431	0.3767446279525757	0.6183141469955444	6	44.8247802734375	-73.16449381510417	-1.256231865	9.511469835	-0.40199419680000004	-1.2993026718	9.583254513	-0.6317051664000001	-0.010079276394	0.03207042489	0.029321531328	0.0152716309	0.004276056651999999	0.020769418023999998	-0.04988	-1.50568	-1.5259800000000001	0.51388	-0.59276	-0.37874	-1.2777672683999999	9.547362174	-0.5168496816000001	0.002596177253	0.018173240771	0.025045474675999997	0.232	-1.04922	-0.9523600000000001	-1.41216	4.7072	14.1216	0.996496422403158	35.959999999999994
8177	0	868.587	0	-173	1322	-50	-59	115	97	-102	-2573	-2632	-177	1330	-76	51	22	66	846	-1053	-751	-48	64	400	34.3	0.9959733530717988	37.62	0.9967924993831728	4449.48681640625	-7309.86962890625	27.399999618530277	11.9818115234375	3	0	0.0	0.0	0.0	0.0	0.1928547430659171	0.0	0.0	-0.2495109762413411	0.4522434713999999	1.256231865	9.5186483028	0.43436199426651	-0.5357981324195862	0.3767902255058288	0.6182873845100403	6	44.8247802734375	-73.16449381510417	-1.2418749294	9.4899344316	-0.35892339	-1.2705888006000001	9.547362174	-0.5455635528	-0.018020524462	0.035124751069999995	0.029626963946	0.015577063518	0.006719517596	0.020158552788	-0.05916	-1.49234	-1.52656	0.49068	-0.61074	-0.43558	-1.2562318650000002	9.518648302799999	-0.4522434714	-0.0012217304720000006	0.020922134332999998	0.024892758367	0.21576	-1.05154	-0.98107	-1.41216	1.88288	11.768	0.9963829262274858	35.959999999999994
8178	0	868.692	0	-172	1327	-58	-64	106	96	-102	-2573	-2632	-176	1333	-83	42	9	71	846	-1053	-751	-112	80	448	34.3	0.9960917838638046	37.62	0.9968615840118432	4449.48681640625	-7309.86962890625	27.299999237060547	11.9654541015625	3	0	0.0	0.0	0.0	0.0	0.1809940218149785	0.0	0.0	-0.2632580795676093	0.5060819799	1.2490533972	9.547362174	0.434342086315155	-0.535731852054596	0.3768649399280548	0.6183132529258728	6	44.8247802734375	-73.16449381510417	-1.2346964616	9.5258267706	-0.4163511324	-1.2634103328000001	9.5688975774	-0.5958128274000001	-0.019547687552	0.032375857508	0.029321531328	0.012828169956	0.002748893562	0.021685715878	-0.05916	-1.49234	-1.52656	0.49068	-0.61074	-0.43558	-1.2490533972	9.547362174	-0.5060819799	-0.0033597587979999994	0.017562375534999997	0.025503623603	0.21576	-1.05154	-0.98107	-3.29504	2.3536	13.18016	0.9964766839378238	35.959999999999994
8179	0	868.798	0	-172	1327	-60	-50	122	110	-83	-2591	-2668	-181	1338	-83	42	13	79	866	-1023	-583	-160	32	384	34.28	0.9958746607451272	37.63	0.9968714532445102	4449.48681640625	-7309.86962890625	27.299999237060547	11.9818115234375	3	0	0.0	0.0	0.0	0.0	0.2017252040359355	0.0	0.0	-0.2390967221152368	0.5132604477	1.2669995666999998	9.5653083435	0.4344090819358825	-0.5356155633926392	0.3769380748271942	0.6183223724365234	6	44.8247802734375	-73.16449381510417	-1.2346964616	9.5258267706	-0.430708068	-1.2993026718	9.6047899164	-0.5958128274000001	-0.0152716309	0.037262779396	0.033597587979999996	0.012828169956	0.003970624034	0.024129176821999998	-0.04814	-1.50278	-1.54744	0.50228	-0.59334	-0.33814	-1.2669995667	9.5653083435	-0.5132604477	-0.0012217304719999997	0.020616701714999998	0.028863382400999997	0.22706999999999997	-1.04806	-0.94279	-4.7072	0.94144	11.29728	0.9963730569948187	35.955
8180	0	868.903	0	-171	1326	-58	-36	101	104	-96	-2583	-2655	-185	1333	-84	45	20	70	866	-1023	-583	-272	-32	304	34.3	0.9960720453984704	37.62	0.9967924993831728	4449.48681640625	-7309.86962890625	27.299999237060547	11.9981689453125	3	0	0.0	0.0	0.0	0.0	0.1521568419969531	0.0	0.0	-0.2899393633870378	0.5096712137999999	1.2777672684	9.543772940099998	0.4344948530197143	-0.5355462431907654	0.3769465684890747	0.6183169484138489	6	44.8247802734375	-73.16449381510417	-1.2275179938	9.5186483028	-0.4163511324	-1.3280165430000002	9.5688975774	-0.6029912952	-0.010995574248	0.030848694418	0.031764992272	0.01374446781	0.0061086523599999994	0.021380283259999997	-0.05568	-1.49814	-1.5399	0.50228	-0.59334	-0.33814	-1.2777672684	9.5437729401	-0.5096712138	0.0013744467809999996	0.018478673389	0.026572637765999996	0.22329999999999997	-1.04574	-0.93902	-8.00224	-0.94144	8.94368	0.9964322723908217	35.959999999999994
8181	0	869.009	0	-171	1325	-61	-41	109	93	-96	-2583	-2655	-187	1328	-83	54	17	67	878	-1035	-658	-80	32	400	34.29	0.9960621761658032	37.62	0.9967924993831728	4449.48681640625	-7309.86962890625	27.399999618530277	11.9981689453125	3	0	0.0	0.0	0.0	0.0	0.2168256849661798	0.0	0.0	-0.2184881115318148	0.5168496816	1.2849457362	9.5222375367	0.4344886243343353	-0.5355850458145142	0.3769610822200775	0.6182788610458374	6	44.8247802734375	-73.16449381510417	-1.2275179938	9.511469835	-0.43788653580000003	-1.3423734786000001	9.533005238400001	-0.5958128274000001	-0.012522737337999999	0.033292155361999996	0.028405233473999997	0.016493361372	0.005192354505999999	0.020463985405999998	-0.05568	-1.49814	-1.5399	0.50924	-0.6003000000000001	-0.38164	-1.2849457362	9.5222375367	-0.5168496816000001	0.001985312017	0.019242254934	0.024434609439999998	0.22678	-1.04922	-0.96077	-2.3536	0.94144	11.768	0.996427337774488	35.955
8182	0	869.114	0	-172	1327	-57	-50	124	98	-93	-2560	-2664	-179	1332	-78	38	14	61	878	-1035	-658	-192	64	352	34.3	0.9959240069084628	37.64	0.9968319763138416	4449.48681640625	-7309.86962890625	27.399999618530277	11.9654541015625	3	0	0.0	0.0	0.0	0.0	0.1987914980433453	0.0	0.0	-0.2384363615208389	0.4845465765	1.2598210988999998	9.543772940099998	0.4233683049678802	-0.5421481728553772	0.3662902116775512	0.6266308426856995	6	44.8247802734375	-73.16449381510417	-1.2346964616	9.5258267706	-0.4091726646	-1.2849457362	9.5617191096	-0.5599204884	-0.0152716309	0.037873644632	0.029932396564	0.011606439484	0.004276056651999999	0.018631389698	-0.05394	-1.4848	-1.54512	0.50924	-0.6003000000000001	-0.38164	-1.2598210989	9.5437729401	-0.4845465765	-0.001832595708	0.021074850642	0.024281893131	0.22765000000000002	-1.0425499999999999	-0.96338	-5.64864	1.88288	10.35584	0.9963779916111521	35.97
8183	0	869.22	0	-166	1324	-59	-53	103	101	-93	-2560	-2664	-177	1336	-85	44	-2	63	887	-1057	-711	-192	80	336	34.3	0.9962003454231434	37.63	0.9968714532445102	4449.48681640625	-7309.86962890625	27.399999618530277	11.9818115234375	3	0	0.0	0.0	0.0	0.0	0.1189272456136925	0.0	0.0	-0.324621370868506	0.5168496815999999	1.2311072277	9.547362174	0.4233176112174988	-0.5421082377433777	0.3663775324821472	0.626648485660553	6	44.8247802734375	-73.16449381510417	-1.1916256548000002	9.5042913672	-0.4235296002	-1.2705888006000001	9.590432980800001	-0.610169763	-0.016187928754	0.031459559654	0.030848694418	0.013439035192	-0.000610865236	0.019242254934	-0.05394	-1.4848	-1.54512	0.51446	-0.61306	-0.41238	-1.2311072277000001	9.547362174	-0.5168496816	-0.0013744467809999996	0.015424347209	0.025045474675999997	0.23026000000000002	-1.04893	-0.97875	-5.64864	2.3536	9.88512	0.9965358993338268	35.965
8184	0	869.325	0	-178	1324	-63	-48	127	97	-94	-2569	-2658	-182	1326	-84	42	13	72	887	-1057	-711	-112	80	336	34.3	0.9960128300024672	37.62	0.9966938070565012	4449.48681640625	-7309.86962890625	27.399999618530277	11.9654541015625	3	0	0.0	0.0	0.0	0.0	0.0745900941764923	0.0	0.0	-0.359832961450402	0.5276173833	1.2921242039999998	9.511469835	0.4233392775058746	-0.5420410633087158	0.3664133250713348	0.6266710162162781	6	44.8247802734375	-73.16449381510417	-1.2777672684	9.5042913672	-0.45224347140000004	-1.3064811396	9.5186483028	-0.6029912952	-0.014660765664	0.038789942486	0.029626963946	0.012828169956	0.003970624034	0.021991148496	-0.05452	-1.49002	-1.54164	0.51446	-0.61306	-0.41238	-1.292124204	9.511469835	-0.5276173833000001	-0.000916297854	0.02138028326	0.025809056221	0.22997	-1.05154	-0.9770099999999999	-3.29504	2.3536	9.88512	0.9963533185294842	35.959999999999994
8185	0	869.43	0	-172	1333	-70	-39	104	96	-94	-2569	-2658	-185	1330	-89	51	20	73	880	-1033	-630	-128	96	384	34.28	0.9961509992598075	37.64	0.9969405378731804	4449.48681640625	-7309.86962890625	27.5	11.9654541015625	3	0	0.0	0.0	0.0	0.0	0.108892857251553	0.0	0.0	-0.3151330493925773	0.5706881900999999	1.2813565023	9.5581298757	0.4233896732330322	-0.5419953465461731	0.3663927316665649	0.6266885995864868	6	44.8247802734375	-73.16449381510417	-1.2346964616	9.5688975774	-0.502492746	-1.3280165430000002	9.547362174	-0.6388836342	-0.011911872102	0.031764992272	0.029321531328	0.015577063518	0.0061086523599999994	0.022296581114	-0.05452	-1.49002	-1.54164	0.5104	-0.59914	-0.3654	-1.2813565023	9.5581298757	-0.5706881901	0.001832595708	0.018936822316	0.025809056221	0.22793999999999998	-1.0445799999999998	-0.9535199999999999	-3.76576	2.82432	11.29728	0.996545768566494	35.96
8186	0	869.536	0	-176	1325	-68	-53	100	97	-90	-2576	-2633	-185	1330	-84	53	7	69	880	-1033	-630	-128	64	352	34.29	0.9958845299777942	37.63	0.9967628916851716	4449.48681640625	-7309.86962890625	27.5	11.9654541015625	3	0	0.0	0.0	0.0	0.0	0.2317834396090902	0.0	0.0	-0.1788394764625751	0.5455635528	1.2957134379	9.5294160045	0.423358678817749	-0.5420312881469727	0.3663399517536163	0.6267094612121582	6	44.8247802734375	-73.16449381510417	-1.2634103328000001	9.511469835	-0.48813581040000004	-1.3280165430000002	9.547362174	-0.6029912952	-0.016187928754	0.0305432618	0.029626963946	0.016187928754	0.0021380283259999997	0.021074850641999997	-0.0522	-1.49408	-1.52714	0.5104	-0.59914	-0.3654	-1.2957134379000002	9.5294160045	-0.5455635528	0.0	0.016340645063	0.025350907293999997	0.22909999999999997	-1.04661	-0.94627	-3.76576	1.88288	10.35584	0.9963237108314829	35.96
8187	0	869.641	0	-170	1323	-65	-60	129	91	-90	-2576	-2633	-185	1329	-86	43	31	71	890	-1038	-674	-176	0	432	34.3	0.9959042684431284	37.62	0.9966444608931656	4449.48681640625	-7309.86962890625	27.5	11.9490966796875	3	0	0.0	0.0	0.0	0.0	0.1908528046024863	0.0	0.0	-0.226754519113007	0.5419743188999999	1.2741780344999998	9.5186483028	0.423399955034256	-0.5420188903808594	0.36640664935112	0.626653254032135	6	44.8247802734375	-73.16449381510417	-1.220339526	9.497112899400001	-0.466600407	-1.3280165430000002	9.5401837062	-0.6173482308	-0.01832595708	0.039400807722	0.027794368237999998	0.013133602574	0.009468411158	0.021685715878	-0.0522	-1.49408	-1.52714	0.5162	-0.60204	-0.39092	-1.2741780345000002	9.5186483028	-0.5419743189	-0.002596177253	0.024434609439999998	0.024740042057999997	0.23199999999999998	-1.04806	-0.9590299999999999	-5.17792	0.0	12.70944	0.996274364668147	35.959999999999994
8188	0	869.747	0	-158	1329	-62	-54	108	94	-85	-2559	-2635	-175	1331	-80	40	7	68	890	-1038	-674	-96	32	368	34.3	0.9960128300024672	37.63	0.9968714532445102	4449.48681640625	-7309.86962890625	27.600000381469727	11.9818115234375	3	0	0.0	0.0	0.0	0.0	0.1413111398355102	0.0	0.0	-0.2753022624241918	0.5096712137999999	1.1952148886999998	9.547362174	0.4233231544494629	-0.5420307517051697	0.3664474785327911	0.6266710162162781	6	44.8247802734375	-73.16449381510417	-1.1341979124000001	9.5401837062	-0.4450650036	-1.256231865	9.554540641800001	-0.574277424	-0.016493361372	0.032986722744	0.028710666091999997	0.012217304719999999	0.0021380283259999997	0.020769418023999998	-0.049300000000000004	-1.48422	-1.5283	0.5162	-0.60204	-0.39092	-1.1952148887	9.547362174	-0.5096712138	-0.0021380283259999997	0.017562375534999997	0.024740042057999997	0.23345	-1.0431300000000001	-0.95961	-2.82432	0.94144	10.82656	0.9964421416234888	35.965
8189	0	869.852	0	-174	1327	-56	-62	136	96	-85	-2559	-2635	-175	1334	-83	37	22	74	880	-1029	-728	-144	-96	352	34.3	0.9960917838638046	37.62	0.9966938070565012	4449.48681640625	-7309.86962890625	27.600000381469727	11.9654541015625	3	0	0.0	0.0	0.0	0.0	0.2182963210722054	0.0	0.0	-0.1928303888609504	0.4989035120999999	1.2526426311	9.550951407899998	0.4232930839061737	-0.5419758558273315	0.3665429949760437	0.6266829371452332	6	44.8247802734375	-73.16449381510417	-1.2490533972	9.5258267706	-0.40199419680000004	-1.256231865	9.5760760452	-0.5958128274000001	-0.018936822316	0.041538836047999995	0.029321531328	0.011301006866	0.006719517596	0.022602013732	-0.049300000000000004	-1.48422	-1.5283	0.5104	-0.59682	-0.42224	-1.2526426311	9.550951407900001	-0.49890351210000006	-0.003817907725	0.024129176821999998	0.02596177253	0.23054999999999998	-1.0405200000000001	-0.97527	-4.23648	-2.82432	10.35584	0.9963927954601529	35.959999999999994
8190	0	869.958	0	-172	1324	-54	-57	105	99	-66	-2591	-2650	-181	1335	-85	58	1	67	887	-1036	-647	-208	80	320	34.28	0.99593387614113	37.63	0.9966543301258328	4449.48681640625	-7309.86962890625	27.600000381469727	11.9490966796875	3	0	0.0	0.0	0.0	0.0	0.2425352560604392	0.0	0.0	-0.1705075317144212	0.4989035120999999	1.2669995666999998	9.543772940099998	0.4232464730739593	-0.5419767498970032	0.3665399849414825	0.6267153024673462	6	44.8247802734375	-73.16449381510417	-1.2346964616	9.5042913672	-0.3876372612	-1.2993026718	9.583254513	-0.610169763	-0.017409659225999997	0.03207042489	0.030237829182	0.017715091844	0.000305432618	0.020463985405999998	-0.03828	-1.50278	-1.537	0.51446	-0.60088	-0.37526	-1.2669995667	9.5437729401	-0.49890351210000006	0.0001527163090000016	0.016187928754	0.025350907293999997	0.23809000000000002	-1.05183	-0.9561299999999999	-6.11936	2.3536	9.4144	0.9962941031334814	35.955
8191	0	870.063	0	-172	1330	-58	-54	110	98	-66	-2591	-2650	-180	1330	-77	46	16	71	887	-1036	-647	-128	80	384	34.28	0.9960424377004689	37.63	0.9968221070811744	4449.48681640625	-7309.86962890625	27.5	11.9818115234375	3	0	0.0	0.0	0.0	0.0	0.1612841643166683	0.0	0.0	-0.2646268971513571	0.4845465765	1.2634103328	9.547362174	0.4146255552768707	-0.5469982624053955	0.3584235310554504	0.6327804923057556	6	44.8247802734375	-73.16449381510417	-1.2346964616	9.547362174	-0.4163511324	-1.292124204	9.547362174	-0.5527420206	-0.016493361372	0.033597587979999996	0.029932396564	0.014049900427999999	0.004886921888	0.021685715878	-0.03828	-1.50278	-1.537	0.51446	-0.60088	-0.37526	-1.2634103328	9.547362174	-0.4845465765	-0.0012217304719999997	0.019242254934	0.025809056221	0.23809000000000002	-1.05183	-0.9561299999999999	-3.76576	2.3536	11.29728	0.9964322723908217	35.955
8192	0	870.168	0	-173	1327	-54	-63	117	93	-65	-2581	-2602	-184	1338	-76	41	16	70	887	-1046	-638	-160	-16	272	34.31	0.9960424377004689	37.64	0.9968813224771774	4449.48681640625	-7309.86962890625	27.5	11.9654541015625	3	0	0.0	0.0	0.0	0.0	0.084043611968824	0.0	0.0	-0.3378432317519675	0.4666004069999999	1.2813565023	9.5653083435	0.4146076142787933	-0.5469661355018616	0.3584557175636291	0.6328017115592957	6	44.8247802734375	-73.16449381510417	-1.2418749294	9.5258267706	-0.3876372612	-1.3208380752	9.6047899164	-0.5455635528	-0.019242254934	0.035735616306	0.028405233473999997	0.012522737337999999	0.004886921888	0.021380283259999997	-0.0377	-1.49698	-1.50916	0.51446	-0.60668	-0.37004	-1.2813565023	9.5653083435	-0.46660040700000005	-0.0033597587980000003	0.020311269097	0.024892758366999997	0.23838	-1.05183	-0.9396	-4.7072	-0.47072	8.00224	0.9964618800888232	35.975
8193	0	870.273	0	-166	1328	-59	-40	103	96	-65	-2581	-2602	-180	1333	-79	43	13	67	887	-1046	-638	-144	-32	320	34.3	0.9960128300024672	37.64	0.996851714779176	4449.48681640625	-7309.86962890625	27.5	11.9490966796875	3	0	0.0	0.0	0.0	0.0	0.1036391005334701	0.0	0.0	-0.3069638832674833	0.4953142781999999	1.2418749293999998	9.5509514079	0.4145660698413849	-0.5469472408294678	0.3585184216499328	0.6328099370002747	6	44.8247802734375	-73.16449381510417	-1.1916256548000002	9.533005238400001	-0.4235296002	-1.292124204	9.5688975774	-0.5670989562000001	-0.012217304719999999	0.031459559654	0.029321531328	0.013133602574	0.003970624034	0.020463985405999998	-0.0377	-1.49698	-1.50916	0.51446	-0.60668	-0.37004	-1.2418749294000002	9.550951407900001	-0.49531427820000007	0.00045814892700000043	0.017715091843999997	0.024892758367	0.23838	-1.05183	-0.9396	-4.23648	-0.94144	9.4144	0.9964322723908217	35.97
8194	0	870.378	0	-175	1329	-67	-55	114	101	-97	-2574	-2674	-179	1334	-88	38	19	60	878	-1016	-701	-160	80	368	34.29	0.9960621761658032	37.64	0.9969504071058476	4449.48681640625	-7309.86962890625	27.700000762939453	11.9981689453125	3	0	0.0	0.0	0.0	0.0	0.152613146157565	0.0	0.0	-0.2542974592184486	0.5563312545	1.2705888006	9.5581298757	0.4145763516426086	-0.5469003915786743	0.3586205542087555	0.6327856779098511	6	44.8247802734375	-73.16449381510417	-1.256231865	9.5401837062	-0.4809573426	-1.2849457362	9.5760760452	-0.6317051664000001	-0.016798793989999998	0.034819318451999995	0.030848694418	0.011606439484	0.005803219742	0.01832595708	-0.05626	-1.49292	-1.55092	0.50924	-0.58928	-0.40658	-1.2705888006000001	9.5581298757	-0.5563312545000001	-0.0025961772529999993	0.020311269096999998	0.024587325749	0.22649000000000002	-1.0411000000000001	-0.97875	-4.7072	2.3536	10.82656	0.9965062916358254	35.965
8195	0	870.484	0	-173	1319	-62	-50	102	110	-97	-2574	-2674	-180	1338	-89	52	16	75	878	-1016	-701	-144	-16	256	34.3	0.9960917838638046	37.62	0.9966938070565012	4449.48681640625	-7309.86962890625	27.700000762939453	11.9654541015625	3	0	0.0	0.0	0.0	0.0	0.2203855021862675	0.0	0.0	-0.1831426636646876	0.5419743188999999	1.2669995667	9.5365944723	0.4146288633346557	-0.5468757152557373	0.3585890233516693	0.6327905654907227	6	44.8247802734375	-73.16449381510417	-1.2418749294	9.4683990282	-0.4450650036	-1.292124204	9.6047899164	-0.6388836342	-0.0152716309	0.031154127036	0.033597587979999996	0.015882496136	0.004886921888	0.02290744635	-0.05626	-1.49292	-1.55092	0.50924	-0.58928	-0.40658	-1.2669995667	9.5365944723	-0.5419743189	0.0003054326179999997	0.018020524462	0.028252517164999998	0.22649000000000002	-1.0411000000000001	-0.97875	-4.23648	-0.47072	7.53152	0.9963927954601529	35.959999999999994
8196	0	870.589	0	-175	1320	-62	-59	114	96	-112	-2562	-2660	-189	1334	-92	40	13	70	867	-1032	-707	-48	-16	336	34.3	0.9960819146311374	37.63	0.996980014803849	4449.48681640625	-7309.86962890625	27.700000762939453	11.9818115234375	3	0	0.0	0.0	0.0	0.0	0.1613635559421207	0.0	0.0	-0.251010128523732	0.5527420206	1.3064811395999998	9.525826770599998	0.4146586954593658	-0.5468097925186157	0.358558714389801	0.6328451037406921	6	44.8247802734375	-73.16449381510417	-1.256231865	9.475577496	-0.4450650036	-1.3567304142	9.5760760452	-0.6604190376	-0.018020524462	0.034819318451999995	0.029321531328	0.012217304719999999	0.003970624034	0.021380283259999997	-0.06496	-1.48596	-1.5428	0.50286	-0.59856	-0.41006	-1.3064811396	9.5258267706	-0.5527420206	-0.0029016098710000007	0.019394971243	0.025350907293999997	0.21894999999999998	-1.04226	-0.9764299999999999	-1.41216	-0.47072	9.88512	0.9965309647174931	35.965
8197	0	870.695	0	-175	1328	-62	-44	124	96	-95	-2555	-2670	-181	1328	-81	43	20	53	867	-1032	-707	-160	-32	256	34.28	0.9961016530964716	37.64	0.9970688378978534	4449.48681640625	-7309.86962890625	27.700000762939453	11.9654541015625	3	0	0.0	0.0	0.0	0.0	0.1514309432592778	0.0	0.0	-0.2620940272168634	0.5132604476999999	1.2777672684	9.5330052384	0.4146839380264282	-0.5467976927757263	0.3585937917232513	0.6328191161155701	6	44.8247802734375	-73.16449381510417	-1.256231865	9.533005238400001	-0.4450650036	-1.2993026718	9.533005238400001	-0.5814558918	-0.013439035192	0.037873644632	0.029321531328	0.013133602574	0.0061086523599999994	0.016187928754	-0.0551	-1.4819	-1.5486	0.50286	-0.59856	-0.41006	-1.2777672683999999	9.533005238400001	-0.5132604477	-0.00015271630899999986	0.021991148496	0.022754730041	0.22388	-1.04023	-0.97933	-4.7072	-0.94144	7.53152	0.9965852454971624	35.96
8198	0	870.8	0	-171	1325	-58	-51	113	89	-95	-2555	-2670	-179	1332	-80	39	22	69	897	-1036	-689	-208	16	320	34.3	0.996299037749815	37.64	0.9967826301505058	4449.48681640625	-7309.86962890625	28.100000381469727	11.9654541015625	3	0	0.0	0.0	0.0	0.0	0.1633656400212017	0.0	0.0	-0.2519721381539694	0.4953142781999999	1.2562318649999995	9.5365944723	0.414623886346817	-0.5468564629554749	0.3586410880088806	0.632780909538269	6	44.8247802734375	-73.16449381510417	-1.2275179938	9.511469835	-0.4163511324	-1.2849457362	9.5617191096	-0.574277424	-0.015577063518	0.034513885833999995	0.027183503002	0.011911872102	0.006719517596	0.021074850641999997	-0.0551	-1.4819	-1.5486	0.5202600000000001	-0.60088	-0.39962	-1.2562318650000002	9.5365944723	-0.4953142782	-0.001832595708	0.020616701714999998	0.024129176821999998	0.23258000000000004	-1.04139	-0.97411	-6.11936	0.47072	9.4144	0.9965408339501605	35.97
8199	0	870.906	0	-171	1330	-65	-55	120	94	-80	-2546	-2666	-181	1332	-89	51	12	67	897	-1036	-689	-208	-16	272	34.3	0.9959141376757956	37.63	0.9967135455218356	4449.48681640625	-7309.86962890625	28.100000381469727	11.9818115234375	3	0	0.0	0.0	0.0	0.0	0.1716043419092887	0.0	0.0	-0.239126247155737	0.5527420206	1.2634103328	9.5545406418	0.4146240353584289	-0.5468870997428894	0.358659952878952	0.6327437162399292	6	44.8247802734375	-73.16449381510417	-1.2275179938	9.547362174	-0.466600407	-1.2993026718	9.5617191096	-0.6388836342	-0.016798793989999998	0.03665191416	0.028710666091999997	0.015577063518	0.003665191416	0.020463985405999998	-0.0464	-1.47668	-1.54628	0.5202600000000001	-0.60088	-0.39962	-1.2634103328	9.5545406418	-0.5527420206	-0.0006108652359999994	0.020158552788000002	0.024587325748999998	0.23693000000000003	-1.03878	-0.97295	-6.11936	-0.47072	8.00224	0.9963138415988155	35.965
8200	0	871.011	0	-170	1326	-56	-58	102	110	-80	-2546	-2666	-180	1331	-80	35	12	69	863	-1051	-770	-128	32	464	34.3	0.9959634838391316	37.64	0.9968813224771774	4449.48681640625	-7309.86962890625	28.200000762939453	11.9654541015625	3	0	0.0	0.0	0.0	0.0	0.1888974257501286	0.0	0.0	-0.2231817496243673	0.4881358104	1.2562318649999995	9.5365944723	0.4146480858325958	-0.5468374490737915	0.3586407899856567	0.6327817440032959	6	44.8247802734375	-73.16449381510417	-1.220339526	9.5186483028	-0.40199419680000004	-1.292124204	9.554540641800001	-0.574277424	-0.017715091844	0.031154127036	0.033597587979999996	0.010690141629999999	0.003665191416	0.021074850641999997	-0.0464	-1.47668	-1.54628	0.50054	-0.60958	-0.4466	-1.2562318650000002	9.536594472300001	-0.48813581040000004	-0.003512475107000001	0.017409659225999997	0.027336219311	0.22707	-1.0431300000000001	-0.99644	-3.76576	0.94144	13.65088	0.9964224031581546	35.97
8201	0	871.116	0	-172	1331	-61	-46	114	103	-96	-2574	-2638	-177	1326	-77	40	23	74	863	-1051	-770	-208	0	368	34.3	0.9958549222797928	37.64	0.9967826301505058	4449.48681640625	-7309.86962890625	28.200000762939453	11.9654541015625	3	0	0.0	0.0	0.0	0.0	0.2015641394656892	0.0	0.0	-0.210577422979745	0.4953142781999999	1.2526426310999998	9.5365944723	0.4293522834777832	-0.5393156409263611	0.3727624118328094	0.6211629509925842	6	44.8247802734375	-73.16449381510417	-1.2346964616	9.554540641800001	-0.43788653580000003	-1.2705888006000001	9.5186483028	-0.5527420206	-0.014049900427999999	0.034819318451999995	0.031459559654	0.012217304719999999	0.0070249502139999994	0.022602013732	-0.05568	-1.49292	-1.53004	0.50054	-0.60958	-0.4466	-1.2526426311	9.536594472300001	-0.4953142782	-0.000916297854	0.020922134332999998	0.027030786693	0.22243	-1.05125	-0.9883200000000001	-6.11936	0.0	10.82656	0.9963187762151493	35.97
8202	0	871.222	0	-174	1328	-54	-43	107	98	-96	-2574	-2638	-188	1334	-80	45	2	66	878	-1045	-679	-64	-32	352	34.29	0.9959536146064644	37.63	0.996604983962497	4449.48681640625	-7309.86962890625	28.200000762939453	11.9654541015625	3	0	0.0	0.0	0.0	0.0	0.193532126527085	0.0	0.0	-0.2210656504030577	0.4809573425999999	1.2993026718	9.5545406418	0.4293217957019806	-0.5393190979957581	0.3727730214595794	0.6211747527122498	6	44.8247802734375	-73.16449381510417	-1.2490533972	9.533005238400001	-0.3876372612	-1.3495519464	9.5760760452	-0.574277424	-0.013133602574	0.032681290126	0.029932396564	0.01374446781	0.000610865236	0.020158552788	-0.05568	-1.49292	-1.53004	0.50924	-0.6061	-0.39382	-1.2993026718	9.554540641800001	-0.4809573426	0.0003054326179999997	0.016646077680999998	0.025045474675999997	0.22678	-1.04951	-0.9619300000000001	-1.88288	-0.94144	10.35584	0.9962792992844807	35.96
8203	0	871.327	0	-172	1324	-59	-43	105	90	-99	-2560	-2633	-183	1336	-80	43	11	66	878	-1045	-679	-256	48	304	34.3	0.9960128300024672	37.64	0.9967431532198372	4449.48681640625	-7309.86962890625	28.200000762939453	11.9818115234375	3	0	0.0	0.0	0.0	0.0	0.2116913679382877	0.0	0.0	-0.2040949646454601	0.4989035120999999	1.2741780344999998	9.547362174	0.4292623996734619	-0.539348840713501	0.3728170096874237	0.6211636662483215	6	44.8247802734375	-73.16449381510417	-1.2346964616	9.5042913672	-0.4235296002	-1.3136596074	9.590432980800001	-0.574277424	-0.013133602574	0.03207042489	0.02748893562	0.013133602574	0.003359758798	0.020158552788	-0.05742	-1.4848	-1.52714	0.50924	-0.6061	-0.39382	-1.2741780345	9.547362174	-0.49890351210000006	0.0	0.017715091843999997	0.023823744204	0.22591	-1.04545	-0.96048	-7.53152	1.41216	8.94368	0.9963779916111521	35.97
8204	0	871.433	0	-164	1332	-60	-48	120	97	-99	-2560	-2633	-186	1335	-86	33	13	69	856	-1046	-688	-144	32	288	34.31	0.9960424377004689	37.65	0.9970194917345176	4449.48681640625	-7309.86962890625	28.200000762939453	11.9981689453125	3	0	0.0	0.0	0.0	0.0	0.132107419632512	0.0	0.0	-0.2899770081022589	0.5240281493999999	1.256231865	9.5724868113	0.4292110800743103	-0.539374053478241	0.372850090265274	0.6211572289466858	6	44.8247802734375	-73.16449381510417	-1.1772687192	9.5617191096	-0.430708068	-1.3351950108000001	9.583254513	-0.6173482308	-0.014660765664	0.03665191416	0.029626963946	0.010079276394	0.003970624034	0.021074850641999997	-0.05742	-1.4848	-1.52714	0.49648	-0.60668	-0.39904	-1.2562318650000002	9.5724868113	-0.5240281494	-0.0022907446350000004	0.020311269096999998	0.025350907293999997	0.21953	-1.04574	-0.96309	-4.23648	0.94144	8.47296	0.9965309647174933	35.980000000000004
8205	0	871.538	0	-173	1327	-58	-51	110	102	-86	-2596	-2655	-176	1332	-79	53	-1	69	856	-1046	-688	-176	-16	448	34.29	0.9958943992104614	37.64	0.996674068591167	4449.48681640625	-7309.86962890625	28.200000762939453	11.9490966796875	3	0	0.0	0.0	0.0	0.0	0.168221576064891	0.0	0.0	-0.2428123519932538	0.4917250442999999	1.2526426311	9.543772940099998	0.429188072681427	-0.5394060611724854	0.3728161156177521	0.6211657524108887	6	44.8247802734375	-73.16449381510417	-1.2418749294	9.5258267706	-0.4163511324	-1.2634103328000001	9.5617191096	-0.5670989562000001	-0.015577063518	0.033597587979999996	0.031154127036	0.016187928754	-0.000305432618	0.021074850641999997	-0.04988	-1.50568	-1.5399	0.49648	-0.60668	-0.39904	-1.2526426311	9.5437729401	-0.4917250443	0.0003054326179999997	0.016646077680999998	0.026114488839	0.2233	-1.05618	-0.96947	-5.17792	-0.47072	13.18016	0.9962842339008142	35.965
8206	0	871.644	0	-173	1335	-59	-44	129	104	-86	-2596	-2655	-180	1336	-85	27	21	77	849	-1052	-725	-224	32	384	34.28	0.995993091537133	37.64	0.9966839378238342	4449.48681640625	-7309.86962890625	28.200000762939453	11.9654541015625	3	0	0.0	0.0	0.0	0.0	0.1389553951554601	0.0	0.0	-0.2739487267330199	0.5168496815999999	1.2669995667	9.5868437469	0.4292139410972595	-0.5393672585487366	0.3727977871894836	0.6211926341056824	6	44.8247802734375	-73.16449381510417	-1.2418749294	9.583254513	-0.4235296002	-1.292124204	9.590432980800001	-0.610169763	-0.013439035192	0.039400807722	0.031764992272	0.008246680686	0.006414084978	0.023518311586	-0.04988	-1.50568	-1.5399	0.49242	-0.61016	-0.4205	-1.2669995667	9.586843746900001	-0.5168496816	-0.002596177253	0.02290744635	0.027641651928999998	0.22127000000000002	-1.05792	-0.9802	-6.59008	0.94144	11.29728	0.9963385146804836	35.96
