timestampMs,pressurePa,tempK,accelX,accelY,accelZ,gyroX,gyroY,gyroZ,imuTemp,battV,altitudeM,velocityMS,accelerationMSS,unfiltAlt,flightState,drogueCont,drogueFired,mainCont,mainFired,tiltMagnitudeDeg,angularVelRadS_x,angularVelRadS_y,angularVelRadS_z,quaternion_a,quaternion_b,quaternion_c,quaternion_d
5116,101782.578125,277.18,9.686940,-0.536301,-0.732625,0.020220,-0.001064,-0.012770,280.81,3.98,0.46,0.36,-0.11,-36.537704,0,1,0,1,0,,,,,,,,
10116,101776.750000,277.31,9.744400,-0.282515,-0.517147,0.012770,-0.007449,-0.006385,281.11,3.96,0.75,0.43,-0.10,-36.073162,0,1,0,1,0,,,,,,,,
15116,101781.875000,277.41,9.653421,-0.627280,-1.350329,0.012770,-0.001064,-0.015963,281.45,3.98,0.61,0.19,-0.14,-36.481658,0,1,0,1,0,,,,,,,,
20116,101786.984375,277.51,9.634267,-0.555454,-1.240196,0.012770,0.007449,-0.014899,281.30,3.95,0.33,-0.15,-0.16,-36.888896,0,1,0,1,0,,,,,,,,
25116,101792.078125,277.61,9.667786,-0.469263,-1.010353,0.024477,0.002128,-0.013834,281.50,3.98,0.66,-0.07,-0.12,-37.294868,0,1,0,1,0,,,,,,,,
30116,101797.203125,277.71,9.639056,-0.263362,-1.795651,0.023412,-0.010642,-0.019156,281.45,3.98,0.79,-0.04,-0.12,-37.703315,0,1,0,1,0,,,,,,,,
35116,101783.265625,277.81,9.610325,-0.459686,-1.297657,0.028734,-0.004256,-0.009578,281.50,3.96,1.25,0.23,-0.15,-36.592498,0,1,0,1,0,,,,,,,,
40116,101799.296875,277.88,9.686940,-0.426167,-0.895431,0.012770,0.005321,-0.009578,281.99,3.98,0.88,-0.36,-0.12,-37.870178,0,1,0,1,0,,,,,,,,
45116,101785.375000,277.98,9.768342,-0.794874,-0.703895,0.036183,0.001064,-0.014899,281.99,3.95,1.55,0.29,-0.06,-36.760623,0,1,0,1,0,,,,,,,,
50116,101771.390625,278.08,9.624691,-0.378283,-1.393425,0.015963,0.008513,-0.005321,282.04,3.98,1.89,0.36,-0.12,-35.645965,0,1,0,1,0,,,,,,,,
55116,101791.437500,278.16,9.672574,-0.373495,-0.019153,-0.024477,-0.095780,0.027669,282.23,3.95,1.19,-0.45,-0.13,-37.243812,0,1,0,1,0,,,,,,,,
60116,101792.484375,278.24,9.562441,-0.220266,-1.417367,0.027669,-0.001064,-0.013834,282.09,3.98,0.86,-0.94,-0.15,-37.327247,0,1,0,1,0,,,,,,,,
65116,101793.500000,278.32,9.648633,-0.450109,-0.991199,0.025541,0.000000,-0.010642,282.04,3.98,1.23,-0.67,-0.12,-37.408191,0,1,0,1,0,,,,,,,,
70116,101790.500000,278.39,9.658209,-0.378283,-0.890643,0.023412,0.002128,-0.013834,282.23,3.95,1.95,-0.11,-0.12,-37.169094,0,1,0,1,0,,,,,,,,
75116,101772.453125,278.47,9.639056,-0.335188,-0.756567,0.024477,0.000000,-0.013834,282.38,3.98,-0.15,-0.44,-0.12,-35.928539,0,1,0,1,0,,,,,,,,
80116,101773.453125,278.56,9.610325,-0.464475,-1.235408,0.025541,-0.004256,-0.012770,282.62,3.94,-0.17,-0.17,-0.14,-36.008693,0,1,0,1,0,,,,,,,,
85116,101770.421875,278.62,9.696516,-0.483628,-0.435744,0.028734,-0.002128,-0.015963,282.38,3.98,0.04,-0.13,-0.13,-35.765727,0,1,0,1,0,,,,,,,,
90116,101771.390625,278.71,9.773131,-0.943315,-1.230619,0.008513,0.011706,-0.014899,282.58,3.95,-0.05,-0.30,-0.11,-35.843376,0,1,0,1,0,,,,,,,,
95116,101787.437500,278.77,9.624691,-0.368707,-1.086967,0.020220,0.000000,-0.011706,282.72,3.98,-0.18,-0.48,-0.14,-37.129505,0,1,0,1,0,,,,,,,,
100116,101765.328125,278.84,9.758766,-0.871489,-0.612915,0.037247,-0.006385,-0.008513,282.77,3.98,0.21,-0.26,-0.09,-35.357437,0,1,0,1,0,,,,,,,,
105116,101762.281250,278.91,9.653421,-0.383072,-1.355118,0.013834,0.001064,-0.011706,282.92,3.94,0.86,0.28,-0.12,-35.113204,0,1,0,1,0,,,,,,,,
110116,101759.218750,278.97,9.710882,-0.794874,-1.379060,0.019156,0.001064,-0.014899,282.77,3.98,0.57,-0.12,-0.11,-34.867713,0,1,0,1,0,,,,,,,,
115116,101771.250000,279.02,9.667786,-0.541089,-1.115697,0.025541,-0.003192,-0.011706,282.92,3.94,0.63,-0.07,-0.13,-35.832107,0,1,0,1,0,,,,,,,,
120116,101749.109375,279.09,9.677363,-0.464475,-0.967257,0.022348,0.002128,-0.012770,282.97,3.98,0.98,0.17,-0.10,-34.057304,0,1,0,1,0,,,,,,,,
125116,101742.046875,279.14,9.696516,-0.344765,-0.981622,0.026605,-0.003192,-0.009578,282.97,3.94,1.27,0.36,-0.11,-33.491104,0,1,0,1,0,,,,,,,,
130116,101758.031250,279.20,9.648633,-0.205901,-1.206677,0.032990,0.005321,-0.015963,283.16,3.98,0.46,-0.21,-0.09,-34.772521,0,1,0,1,0,,,,,,,,
135116,101750.953125,279.25,9.605537,-0.579396,-1.747767,0.026605,-0.025541,-0.011706,283.31,3.98,1.19,0.29,-0.14,-34.205112,0,1,0,1,0,,,,,,,,
140116,101747.890625,279.32,9.667786,-0.411802,-1.331176,0.023412,0.000000,-0.012770,283.31,3.95,1.30,0.33,-0.13,-33.959598,0,1,0,1,0,,,,,,,,
145116,101759.890625,279.37,9.677363,-0.512359,-1.048660,0.021284,0.005321,-0.013834,283.36,3.98,1.23,0.23,-0.12,-34.921573,0,1,0,1,0,,,,,,,,
150116,101752.796875,279.42,9.653421,-0.488417,-0.981622,0.021284,0.003192,-0.009578,283.51,3.95,1.01,0.01,-0.13,-34.352916,0,1,0,1,0,,,,,,,,
155116,101764.781250,279.47,9.677363,-0.402225,-0.948103,0.021284,0.001064,-0.012770,283.36,3.98,0.87,-0.15,-0.12,-35.313602,0,1,0,1,0,,,,,,,,
160116,101776.796875,279.52,9.682151,-0.497993,-0.972045,0.022348,-0.001064,-0.011706,283.36,3.94,0.37,-0.61,-0.12,-36.276695,0,1,0,1,0,,,,,,,,
165116,101769.703125,279.57,9.686940,-0.493205,-1.015141,0.021284,0.003192,-0.012770,283.65,3.98,0.85,-0.13,-0.12,-35.708118,0,1,0,1,0,,,,,,,,
170116,101781.703125,279.62,9.658209,-0.512359,-1.010353,0.019156,0.005321,-0.018091,283.85,3.97,0.56,-0.57,-0.12,-36.669925,0,1,0,1,0,,,,,,,,
175116,101755.500000,279.67,9.691728,-0.517147,-0.809240,0.024477,0.005321,-0.013834,283.65,3.94,1.46,0.37,-0.12,-34.569610,0,1,0,1,0,,,,,,,,
180116,101763.484375,279.70,9.686940,-0.459686,-0.991199,0.024477,0.005321,-0.014899,283.80,3.97,1.16,-0.07,-0.12,-35.209644,0,1,0,1,0,,,,,,,,
185116,101752.359375,279.73,9.662998,-0.383072,-0.890643,0.023412,0.002128,-0.015963,283.65,3.94,1.25,0.06,-0.11,-34.317844,0,1,0,1,0,,,,,,,,
190116,101768.390625,279.80,9.667786,-0.430956,-0.976834,0.024477,0.002128,-0.011706,283.65,3.98,0.97,-0.20,-0.12,-35.602916,0,1,0,1,0,,,,,,,,
195116,101772.375000,279.82,9.677363,-0.445321,-1.072602,0.017027,0.002128,-0.015963,283.80,3.94,0.83,-0.52,-0.11,-35.922279,0,1,0,1,0,,,,,,,,
200116,101765.234375,279.87,9.682151,-0.469263,-0.991199,0.018091,0.003192,-0.012770,284.00,3.98,0.78,-0.50,-0.12,-35.349922,0,1,0,1,0,,,,,,,,
205116,101754.125000,279.90,9.667786,-0.397437,-0.933738,0.021284,0.006385,-0.014899,284.04,3.97,0.93,-0.32,-0.11,-34.459384,0,1,0,1,0,,,,,,,,
210116,101743.000000,279.93,9.682151,-0.550666,-0.914585,0.035119,0.002128,-0.013834,283.85,3.94,1.51,0.22,-0.12,-33.567520,0,1,0,1,0,,,,,,,,
215116,101750.984375,279.97,9.701305,-0.430956,-1.005564,0.023412,0.004256,-0.012770,284.00,3.98,1.58,0.29,-0.12,-34.207618,0,1,0,1,0,,,,,,,,
220116,101778.078125,280.00,9.643844,-0.488417,-1.077390,0.025541,-0.004256,-0.012770,284.14,3.94,1.21,-0.28,-0.11,-36.379386,0,1,0,1,0,,,,,,,,
225116,101762.953125,280.02,9.672574,-0.421379,-0.895431,0.023412,0.003192,-0.014899,284.14,3.98,1.77,0.15,-0.12,-35.167060,0,1,0,1,0,,,,,,,,
230116,101751.828125,280.05,9.686940,-0.493205,-0.962469,0.020220,0.003192,-0.011706,284.39,3.94,1.70,-0.02,-0.12,-34.275257,0,1,0,1,0,,,,,,,,
235116,101740.703125,280.08,9.682151,-0.440533,-0.972045,0.025541,0.003192,-0.010642,284.14,3.97,2.19,0.50,-0.12,-33.383373,0,1,0,1,0,,,,,,,,
240116,101748.703125,280.12,9.672574,-0.421379,-1.024718,0.010642,0.002128,-0.011706,284.19,3.97,1.73,0.08,-0.11,-34.024734,0,1,0,1,0,,,,,,,,
245116,101756.671875,280.15,9.677363,-0.445321,-1.005564,0.024477,0.003192,-0.014899,284.24,3.94,1.73,-0.08,-0.12,-34.663551,0,1,0,1,0,,,,,,,,
250116,101741.546875,280.17,9.667786,-0.474051,-0.967257,0.020220,0.002128,-0.013834,284.39,3.98,1.87,0.07,-0.11,-33.451019,0,1,0,1,0,,,,,,,,
255116,101745.531250,280.18,9.662998,-0.435744,-0.986411,0.022348,0.003192,-0.012770,284.14,3.94,1.33,-0.48,-0.13,-33.770450,0,1,0,1,0,,,,,,,,
260116,101772.640625,280.22,9.696516,-0.450109,-0.957680,0.023412,0.003192,-0.012770,284.44,3.98,1.28,-0.51,-0.12,-35.943569,0,1,0,1,0,,,,,,,,
265116,101761.500000,280.25,9.672574,-0.469263,-0.986411,0.019156,0.003192,-0.013834,284.24,3.94,1.41,-0.29,-0.12,-35.050579,0,1,0,1,0,,,,,,,,
270116,101746.359375,280.27,9.696516,-0.474051,-0.957680,0.023412,0.003192,-0.011706,284.24,3.97,2.11,0.23,-0.12,-33.836841,0,1,0,1,0,,,,,,,,
275116,101754.343750,280.30,9.682151,-0.497993,-0.986411,0.021284,0.004256,-0.013834,284.44,3.97,1.79,-0.16,-0.12,-34.476921,0,1,0,1,0,,,,,,,,
280116,101739.203125,280.32,9.696516,-0.454898,-0.972045,0.024477,0.004256,-0.011706,284.24,3.94,2.02,0.16,-0.12,-33.263114,0,1,0,1,0,,,,,,,,
285116,101762.359375,280.33,9.686940,-0.435744,-1.005564,0.022348,0.002128,-0.011706,284.34,3.97,1.47,-0.43,-0.12,-35.119468,0,1,0,1,0,,,,,,,,
290116,101751.187500,280.37,9.662998,-0.459686,-1.005564,0.023412,0.004256,-0.012770,284.58,3.94,1.56,-0.34,-0.12,-34.223899,0,1,0,1,0,,,,,,,,
295116,101755.187500,280.38,9.686940,-0.454898,-0.962469,0.021284,0.000000,-0.013834,284.53,3.97,1.60,-0.26,-0.12,-34.544559,0,1,0,1,0,,,,,,,,
300116,101740.031250,280.40,9.696516,-0.574608,-0.967257,0.023412,0.005321,-0.015963,284.58,3.94,2.13,0.21,-0.12,-33.329505,0,1,0,1,0,,,,,,,,
305116,101763.156250,280.42,9.677363,-0.474051,-0.972045,0.024477,0.002128,-0.017027,284.44,3.97,1.39,-0.45,-0.12,-35.183341,0,1,0,1,0,,,,,,,,
310116,101767.156250,280.43,9.706093,-0.435744,-0.981622,0.022348,0.001064,-0.011706,284.39,3.97,1.34,-0.59,-0.11,-35.503971,0,1,0,1,0,,,,,,,,
315116,101752.000000,280.45,9.672574,-0.430956,-0.938527,0.021284,0.003192,-0.012770,284.58,3.94,2.12,0.08,-0.12,-34.289035,0,1,0,1,0,,,,,,,,
320116,101736.859375,280.47,9.696516,-0.435744,-0.943315,0.022348,0.003192,-0.013834,284.44,3.97,0.15,0.40,-0.12,-33.312774,0,1,0,1,0,,,,,,,,
325116,101759.984375,280.48,9.686940,-0.445321,-0.972045,0.023412,0.002128,-0.013834,284.73,3.94,-0.65,-0.43,-0.12,-35.179973,0,1,0,1,0,,,,,,,,
330116,101744.828125,280.50,9.667786,-0.450109,-0.967257,0.024477,0.002128,-0.012770,284.73,3.98,-0.40,-0.16,-0.12,-33.956237,0,1,0,1,0,,,,,,,,
335116,101748.828125,280.51,9.662998,-0.445321,-0.995987,0.021284,0.004256,-0.013834,284.68,3.94,-0.43,-0.20,-0.12,-34.279216,0,1,0,1,0,,,,,,,,
340116,101752.796875,280.53,9.677363,-0.450109,-0.967257,0.020220,-0.001064,-0.011706,284.58,3.98,-0.50,-0.32,-0.12,-34.599662,0,1,0,1,0,,,,,,,,
345116,101737.640625,280.55,9.701305,-0.440533,-0.976834,0.023412,0.002128,-0.013834,284.58,3.97,0.15,0.43,-0.12,-33.375858,0,1,0,1,0,,,,,,,,
350116,101760.781250,280.56,9.653421,-0.450109,-0.972045,0.021284,0.000000,-0.014899,284.73,3.94,-0.41,-0.23,-0.12,-35.244308,0,1,0,1,0,,,,,,,,
355116,101745.625000,280.58,9.696516,-0.426167,-0.981622,0.022348,0.001064,-0.009578,284.88,3.97,-0.15,-0.04,-0.12,-34.020584,0,1,0,1,0,,,,,,,,
360116,101745.625000,280.58,9.677363,-0.474051,-0.952892,0.021284,0.002128,-0.014899,284.44,3.94,-0.24,-0.10,-0.12,-34.020584,0,1,0,1,0,,,,,,,,
365116,101772.765625,280.61,9.696516,-0.445321,-0.972045,0.023412,0.003192,-0.010642,284.68,3.97,-0.48,-0.30,-0.12,-36.211830,0,1,0,1,0,,,,,,,,
370116,101753.625000,280.61,9.682151,-0.445321,-0.957680,0.022348,0.001064,-0.012770,284.73,3.94,-0.45,-0.19,-0.11,-34.666526,0,1,0,1,0,,,,,,,,
375116,101757.609375,280.63,9.677363,-0.426167,-0.986411,0.024477,0.001064,-0.013834,284.58,3.98,-0.16,0.07,-0.12,-34.988220,0,1,0,1,0,,,,,,,,
380116,101738.468750,280.63,9.677363,-0.445321,-0.967257,0.022348,0.003192,-0.010642,284.73,3.96,-0.40,-0.18,-0.12,-33.442729,0,1,0,1,0,,,,,,,,
385116,101742.453125,280.65,9.672574,-0.469263,-0.952892,0.024477,0.003192,-0.011706,284.53,3.94,0.23,0.43,-0.12,-33.764465,0,1,0,1,0,,,,,,,,
390116,101746.437500,280.66,9.686940,-0.426167,-0.948103,0.023412,0.005321,-0.015963,284.78,3.96,-0.26,-0.03,-0.12,-34.086189,0,1,0,1,0,,,,,,,,
395116,101746.437500,280.66,9.677363,-0.488417,-0.986411,0.024477,0.005321,-0.014899,284.88,3.94,-0.44,-0.08,-0.12,-34.086189,0,1,0,1,0,,,,,,,,
400116,101750.421875,280.68,9.653421,-0.454898,-0.972045,0.020220,0.002128,-0.010642,284.88,3.97,-0.00,0.29,-0.12,-34.407901,0,1,0,1,0,,,,,,,,
405116,101754.406250,280.70,9.662998,-0.454898,-0.981622,0.023412,0.004256,-0.013834,284.68,3.94,-0.41,-0.14,-0.12,-34.729602,0,1,0,1,0,,,,,,,,
410116,101773.562500,280.70,9.672574,-0.464475,-0.967257,0.021284,0.003192,-0.013834,284.93,3.97,-0.63,-0.39,-0.12,-36.276161,0,1,0,1,0,,,,,,,,
415116,101758.406250,280.71,9.691728,-0.426167,-0.991199,0.022348,0.004256,-0.011706,284.93,3.97,-0.05,0.25,-0.12,-35.052558,0,1,0,1,0,,,,,,,,
420116,101758.406250,280.71,9.667786,-0.469263,-0.967257,0.022348,0.002128,-0.014899,284.88,3.94,-0.57,-0.29,-0.12,-35.052558,0,1,0,1,0,,,,,,,,
425116,101758.406250,280.71,9.691728,-0.450109,-0.991199,0.026605,0.003192,-0.011706,284.88,3.97,-0.80,-0.44,-0.12,-35.052558,0,1,0,1,0,,,,,,,,
430116,101762.390625,280.73,9.677363,-0.411802,-0.972045,0.023412,0.002128,-0.014899,284.88,3.94,-0.66,-0.28,-0.12,-35.374240,0,1,0,1,0,,,,,,,,
434486,101704.937500,280.73,106.139747,-5.176263,-15.246275,0.205395,-0.029798,-0.107486,284.88,3.93,2.19,15.16,72.92,-30.734716,1,1,0,1,0,,,,,,,,
434496,101743.250000,280.73,106.211570,-11.640608,-13.393163,0.025541,-0.006385,-0.020220,284.93,3.94,1.83,15.58,75.15,-33.828811,1,1,0,1,0,,,,,,,,
434506,101685.781250,280.73,105.996093,6.124367,-5.549759,-0.620443,-0.065981,0.024477,284.73,3.92,2.72,17.21,77.15,-29.187314,1,1,0,1,0,,,,,,,,
434516,101747.218750,280.75,108.917022,-2.873042,3.179499,-0.064917,0.055339,0.030862,284.88,3.93,2.17,17.46,79.24,-34.149269,1,1,0,1,0,,,,,,,,
434526,101704.937500,280.73,108.629714,7.441178,-1.024718,-0.340552,0.057468,0.001064,285.12,3.92,2.61,18.66,81.10,-30.734716,1,1,0,1,0,,,,,,,,
434536,101704.937500,280.73,108.533950,-4.970362,2.264914,-0.316074,0.015963,0.054275,284.93,3.92,2.95,19.76,82.77,-30.734716,1,1,0,1,0,,,,,,,,
434546,101704.937500,280.73,109.558670,1.675941,-9.342174,-0.472515,-0.133028,-0.067046,284.73,3.92,3.21,20.79,84.39,-30.734716,1,1,0,1,0,,,,,,,,
434556,101689.750000,280.75,108.797309,-0.153228,-3.720589,0.264992,0.048954,-0.058532,284.88,3.93,3.72,22.04,85.77,-29.507921,1,1,0,1,0,,,,,,,,
434566,101685.781250,280.73,111.593742,-3.438073,-3.007117,0.203267,-0.081945,-0.130899,284.78,3.92,4.20,23.27,87.29,-29.187314,1,1,0,1,0,,,,,,,,
434576,101685.781250,280.73,111.129264,0.588973,-10.381258,0.456552,-0.085138,-0.120257,284.88,3.92,4.57,24.39,88.63,-29.187314,1,1,0,1,0,,,,,,,,
434586,101685.781250,280.73,117.756416,-1.312022,0.277727,0.600223,-0.036183,-0.158569,284.88,3.92,4.84,25.46,90.46,-29.187314,1,1,0,1,0,,,,,,,,
434596,101647.468750,280.73,117.196174,-0.938527,-8.403647,0.468259,-0.067046,-0.164954,284.78,3.92,5.84,27.22,92.07,-26.091806,1,1,0,1,0,,,,,,,,
434606,101685.781250,280.73,119.044494,0.536301,-6.914454,0.601287,-0.021284,-0.195817,284.78,3.92,5.82,28.00,93.70,-29.187314,1,1,0,1,0,,,,,,,,
434616,101689.750000,280.75,118.254409,1.656787,-7.216123,0.642791,-0.023412,-0.200074,284.93,3.94,5.74,28.70,95.10,-29.507921,1,1,0,1,0,,,,,,,,
434626,101670.593750,280.75,118.958305,0.454898,-6.895300,0.702388,-0.009578,-0.212845,284.88,3.94,6.07,29.80,96.44,-27.960334,1,1,0,1,0,,,,,,,,
434636,101666.625000,280.73,120.868873,1.173158,-7.546523,0.783269,-0.002128,-0.230936,284.88,3.95,6.40,30.92,97.83,-27.639678,1,1,0,1,0,,,,,,,,
434646,101666.625000,280.73,119.791488,1.340752,-11.439495,0.787526,-0.027669,-0.245836,284.88,3.95,6.67,31.94,98.98,-27.639678,1,1,0,1,0,,,,,,,,
434656,101666.625000,280.73,119.599952,0.435744,-8.192957,0.948224,0.041504,-0.256478,284.88,3.96,6.87,32.91,100.01,-27.639678,1,1,0,1,0,,,,,,,,
434666,101689.750000,280.75,119.164207,0.948103,-6.526593,0.983344,0.010642,-0.273505,284.78,3.96,6.57,33.37,100.90,-29.507921,1,1,0,1,0,,,,,,,,
434676,101647.468750,280.73,120.744377,0.478840,-7.498639,1.003564,0.006385,-0.289469,284.78,3.96,7.20,34.74,101.85,-26.091806,1,1,0,1,0,,,,,,,,
434686,101647.468750,280.73,121.496154,0.229843,-7.699752,1.100408,0.014899,-0.305432,284.53,3.96,7.68,35.96,102.79,-26.091806,1,1,0,1,0,,,,,,,,
434696,101647.468750,280.73,121.496154,1.005564,-6.598419,1.197253,0.022348,-0.318203,284.93,3.96,8.05,37.07,103.63,-26.091806,1,1,0,1,0,,,,,,,,
434706,101632.296875,280.75,122.310188,0.268150,-8.441954,1.298354,0.014899,-0.335230,284.78,3.96,8.64,38.39,104.48,-24.865713,1,1,0,1,0,,,,,,,,
434716,101647.468750,280.73,122.377220,0.373495,-7.125144,1.355822,-0.005321,-0.338423,284.88,3.96,8.79,39.27,105.25,-26.091806,1,1,0,1,0,,,,,,,,
434726,101632.296875,280.75,123.167312,0.407014,-5.607220,1.476080,0.008513,-0.349065,284.88,3.96,9.22,40.41,106.02,-24.865713,1,1,0,1,0,,,,,,,,
434736,101628.312500,280.73,123.047599,-0.086191,-8.140285,1.559089,-0.030862,-0.352258,284.93,3.96,9.63,41.53,106.70,-24.543695,1,1,0,1,0,,,,,,,,
434746,101628.312500,280.73,124.503273,0.751779,-7.843404,1.684668,-0.025541,-0.358643,284.73,3.96,9.94,42.56,107.46,-24.543695,1,1,0,1,0,,,,,,,,
434756,101613.140625,280.75,123.488136,-0.483628,-7.613561,1.761292,-0.047890,-0.367157,284.78,3.96,10.49,43.80,108.05,-23.317415,1,1,0,1,0,,,,,,,,
434766,101613.140625,280.75,125.623764,-0.670376,-7.048529,1.878357,-0.041504,-0.375671,284.88,3.96,10.92,44.93,108.79,-23.317415,1,1,0,1,0,,,,,,,,
434776,101593.984375,280.75,125.341247,0.780509,-8.010998,1.953917,-0.076624,-0.360772,284.93,3.96,11.63,46.32,109.43,-21.768882,1,1,0,1,0,,,,,,,,
434786,101593.984375,280.75,125.671646,0.617704,-6.804321,2.132707,-0.059596,-0.360772,284.68,3.96,12.17,47.54,110.04,-21.768882,1,1,0,1,0,,,,,,,,
434796,101593.984375,280.75,126.514404,-0.095768,-8.039729,2.227423,-0.078752,-0.351194,284.88,3.96,12.59,48.63,110.67,-21.768882,1,1,0,1,0,,,,,,,,
434806,101570.859375,280.73,127.194358,-0.713472,-7.915230,2.359387,-0.100037,-0.339487,284.88,3.96,13.38,50.08,111.31,-19.899213,1,1,0,1,0,,,,,,,,
434816,101570.859375,280.73,126.863960,0.105344,-6.564900,2.487094,-0.090459,-0.333102,284.93,3.94,13.98,51.34,111.86,-19.899213,1,1,0,1,0,,,,,,,,
434826,101551.703125,280.73,126.811286,-0.895431,-7.216123,2.649920,-0.092587,-0.329909,284.88,3.93,14.83,52.82,112.34,-18.350158,1,1,0,1,0,,,,,,,,
434836,101570.859375,280.73,127.242240,-0.521935,-7.522581,2.789334,-0.107486,-0.318203,284.88,3.92,15.10,53.72,112.83,-19.899213,1,1,0,1,0,,,,,,,,
434846,101532.546875,280.73,127.754600,-0.368707,-6.497863,2.905334,-0.107486,-0.309689,284.58,3.92,16.07,55.31,113.31,-16.800867,1,1,0,1,0,,,,,,,,
434856,101555.671875,280.75,127.156051,-0.727837,-6.651092,3.058583,-0.117064,-0.295854,284.78,3.92,16.35,56.21,113.70,-18.671108,1,1,0,1,0,,,,,,,,
434866,101513.390625,280.73,128.123306,-0.770932,-6.622361,3.219280,-0.114936,-0.286276,284.88,3.92,17.42,57.87,114.13,-15.251339,1,1,0,1,0,,,,,,,,
434876,101536.515625,280.75,127.879096,-0.325611,-6.938396,3.374658,-0.124514,-0.271377,284.78,3.92,17.77,58.81,114.51,-17.121866,1,1,0,1,0,,,,,,,,
434886,101532.546875,280.73,129.435333,-0.967257,-7.297526,3.506622,-0.125578,-0.254349,284.88,3.92,18.12,59.76,115.00,-16.800867,1,1,0,1,0,,,,,,,,
434896,101513.390625,280.73,129.871078,-1.048660,-5.861005,3.649228,-0.120257,-0.226679,284.78,3.92,18.77,61.00,115.48,-15.251339,1,1,0,1,0,,,,,,,,
434906,101513.390625,280.73,131.393783,-1.455674,-7.048529,3.764164,-0.108550,-0.224551,284.73,3.92,19.27,62.10,116.06,-15.251339,1,1,0,1,0,,,,,,,,
434916,101475.093750,280.73,131.207046,-0.038307,-6.713341,3.886550,-0.117064,-0.202202,284.93,3.92,20.43,63.81,116.56,-12.152836,1,1,0,1,0,,,,,,,,
434926,101498.203125,280.75,130.685104,0.138863,-6.296750,4.065340,-0.095780,-0.193688,284.88,3.92,20.84,64.79,116.97,-14.022670,1,1,0,1,0,,,,,,,,
434936,101479.046875,280.75,134.482299,0.215478,-5.995080,4.176019,-0.076624,-0.143670,284.88,3.92,21.55,66.07,117.71,-12.472718,1,1,0,1,0,,,,,,,,
434946,101455.937500,280.73,130.819183,0.272938,-5.607220,4.272863,-0.069174,-0.158569,284.93,3.92,22.56,67.61,118.02,-10.602598,1,1,0,1,0,,,,,,,,
434956,101436.781250,280.73,130.613281,0.148440,-7.527369,4.406956,-0.051082,-0.153248,284.78,3.91,23.71,69.27,118.28,-9.052123,1,1,0,1,0,,,,,,,,
434966,101459.906250,280.75,130.938888,0.119710,-5.726930,4.612351,-0.009578,-0.183046,284.78,3.92,24.12,70.20,118.55,-10.923792,1,1,0,1,0,,,,,,,,
434976,101417.625000,280.73,131.997131,-0.148440,-7.168239,4.687911,-0.036183,-0.186239,285.22,3.91,25.29,71.86,118.90,-7.501410,1,1,0,1,0,,,,,,,,
434986,101421.593750,280.75,132.092895,0.000000,-6.167463,4.865637,-0.002128,-0.194753,284.88,3.91,26.10,73.16,119.22,-7.822702,1,1,0,1,0,,,,,,,,
434996,101398.468750,280.73,131.633209,0.675164,-7.354987,5.002923,0.007449,-0.207523,284.93,3.91,27.19,74.71,119.46,-5.950460,1,1,0,1,0,,,,,,,,
435006,101398.468750,280.73,133.079299,0.373495,-5.956773,5.167877,0.015963,-0.235193,284.88,3.92,28.01,76.01,119.82,-5.950460,1,1,0,1,0,,,,,,,,
435016,101383.281250,280.75,133.088882,0.402225,-6.406883,5.248758,0.000000,-0.247964,284.68,3.94,28.95,77.40,120.15,-4.720664,1,1,0,1,0,,,,,,,,
435026,101383.281250,280.75,133.448013,0.794874,-6.607996,5.430740,0.036183,-0.258606,284.88,3.94,29.66,78.57,120.48,-4.720664,1,1,0,1,0,,,,,,,,
435036,101364.125000,280.75,132.758483,0.282515,-7.345410,5.533970,0.022348,-0.273505,284.88,3.95,30.60,79.93,120.72,-3.169289,1,1,0,1,0,,,,,,,,
435046,101360.171875,280.73,133.481536,1.034295,-7.536946,5.674448,0.039376,-0.297983,284.78,3.96,31.39,81.14,121.00,-2.849114,1,1,0,1,0,,,,,,,,
435056,101344.968750,280.75,137.580398,-1.470039,-9.567230,5.750008,0.010642,-0.309689,284.88,3.95,32.29,82.50,121.64,-1.617676,1,1,0,1,0,,,,,,,,
435066,101325.812500,280.75,136.809478,1.331176,-5.808333,5.945826,0.028734,-0.305432,284.73,3.96,33.37,83.99,122.15,-0.065825,1,1,0,1,0,,,,,,,,
435076,101306.656250,280.75,133.922058,0.478840,-7.680598,6.034156,0.006385,-0.322460,284.88,3.96,34.58,85.59,122.33,1.486261,1,1,0,1,0,,,,,,,,
435086,101306.656250,280.75,134.113601,-0.134075,-6.502651,6.175698,0.001064,-0.338423,284.88,3.96,35.50,86.88,122.52,1.486261,1,1,0,1,0,,,,,,,,
435096,101283.546875,280.73,134.625961,2.082955,-6.502651,6.276800,-0.003192,-0.336295,284.93,3.96,36.67,88.41,122.74,3.358958,1,1,0,1,0,,,,,,,,
435106,101287.500000,280.75,136.708908,0.450109,-7.331045,6.381094,-0.020220,-0.342680,284.88,3.96,37.47,89.59,123.13,3.038587,1,1,0,1,0,,,,,,,,
435116,101264.390625,280.73,136.512588,0.962469,-7.211335,6.499223,-0.027669,-0.340552,284.93,3.96,38.55,91.03,123.47,4.911570,1,1,0,1,0,,,,,,,,
435126,101245.250000,280.73,135.540542,0.718260,-7.398083,6.604581,-0.058532,-0.350130,284.88,3.96,39.77,92.56,123.69,6.463153,1,1,0,1,0,,,,,,,,
435136,101249.203125,280.75,136.153457,0.560243,-7.077260,6.736545,-0.056403,-0.353322,284.88,3.96,40.61,93.73,123.94,6.142684,1,1,0,1,0,,,,,,,,
435146,101230.046875,280.75,142.919479,0.972045,-7.417236,6.877023,-0.081945,-0.324588,284.78,3.97,41.63,95.12,124.81,7.695724,1,1,0,1,0,,,,,,,,
435156,101226.093750,280.73,139.342529,1.182735,-7.795520,6.987702,-0.081945,-0.345873,284.97,3.96,42.49,96.32,125.26,8.016242,1,1,0,1,0,,,,,,,,
435166,101206.937500,280.73,138.265151,1.235408,-6.138732,7.161171,-0.084073,-0.341616,284.93,3.97,43.53,97.67,125.56,9.569567,1,1,0,1,0,,,,,,,,
435176,101187.781250,280.73,137.527725,-0.201112,-7.024587,7.253758,-0.078752,-0.334166,284.88,3.97,44.71,99.13,125.77,11.123131,1,1,0,1,0,,,,,,,,
435186,101187.781250,280.73,137.024948,1.498770,-7.824251,7.359117,-0.063853,-0.330974,284.88,3.96,45.61,100.31,125.90,11.123131,1,1,0,1,0,,,,,,,,
435196,101168.625000,280.73,138.518936,1.393425,-7.407660,7.488952,-0.038312,-0.334166,284.78,3.96,46.68,101.65,126.17,12.676934,1,1,0,1,0,,,,,,,,
435206,101149.468750,280.73,138.121490,1.125274,-6.560112,7.594310,-0.013834,-0.333102,284.93,3.97,47.88,103.10,126.37,14.230974,1,1,0,1,0,,,,,,,,
435216,101111.171875,280.73,139.304229,1.944091,-8.173804,7.703925,0.008513,-0.329909,284.78,3.94,49.57,105.02,126.67,17.338502,1,1,0,1,0,,,,,,,,
435226,101115.109375,280.75,138.743988,0.612915,-7.235277,7.810348,0.039376,-0.363965,284.88,3.94,50.77,106.45,126.88,17.018957,1,1,0,1,0,,,,,,,,
435236,101092.015625,280.73,140.750320,2.212242,-8.925583,7.873137,0.022348,-0.384185,284.93,3.92,52.15,108.05,127.27,18.893257,1,1,0,1,0,,,,,,,,
435246,101072.859375,280.73,138.619491,2.901772,-7.666233,8.007229,0.064917,-0.400148,285.12,3.92,53.59,109.67,127.41,20.448251,1,1,0,1,0,,,,,,,,
435256,101072.859375,280.73,139.754333,2.169146,-9.825803,8.043414,0.059596,-0.432075,284.78,3.92,54.68,110.95,127.65,20.448251,1,1,0,1,0,,,,,,,,
435266,101053.703125,280.73,140.448654,1.948880,-9.883264,8.127488,0.076624,-0.457616,284.88,3.92,55.89,112.35,127.94,22.003484,1,1,0,1,0,,,,,,,,
435276,101015.390625,280.73,139.136642,2.705447,-8.781931,8.228589,0.063853,-0.475708,284.78,3.92,57.59,114.19,128.07,25.114665,1,1,0,1,0,,,,,,,,
435286,101015.390625,280.73,140.405563,2.384624,-8.322244,8.327562,0.051082,-0.488479,284.93,3.92,58.88,115.63,128.31,25.114665,1,1,0,1,0,,,,,,,,
435296,101015.390625,280.73,139.744766,1.948880,-9.457096,8.327562,0.022348,-0.500185,284.78,3.92,59.86,116.75,128.46,25.114665,1,1,0,1,0,,,,,,,,
435306,100977.093750,280.73,138.609909,2.485181,-7.939172,8.433984,0.023412,-0.509763,284.78,3.91,61.38,118.37,128.49,28.225534,1,1,0,1,0,,,,,,,,
435316,100977.093750,280.73,138.289093,1.877054,-8.916007,8.514865,0.004256,-0.519341,284.73,3.92,62.53,119.62,128.49,28.225534,1,1,0,1,0,,,,,,,,
435326,100957.937500,280.73,139.194091,1.565807,-10.596736,8.551049,-0.053211,-0.508699,284.78,3.92,63.80,120.97,128.57,29.781961,1,1,0,1,0,,,,,,,,
435336,100938.781250,280.73,138.413589,1.067813,-8.475473,8.733032,-0.035119,-0.490607,284.88,3.92,65.14,122.39,128.58,31.338628,1,1,0,1,0,,,,,,,,
435346,100919.625000,280.73,137.374496,1.067813,-9.983820,8.783050,-0.059596,-0.481029,284.88,3.91,66.55,123.84,128.48,32.895534,1,1,0,1,0,,,,,,,,
435356,100904.421875,280.75,137.005798,0.732625,-11.065999,8.889472,-0.084073,-0.456552,284.88,3.92,67.93,125.24,128.36,34.131324,1,1,0,1,0,,,,,,,,
435366,100885.265625,280.75,137.575622,1.235408,-7.580042,9.103382,-0.059596,-0.434203,284.78,3.92,69.36,126.69,128.30,35.688655,1,1,0,1,0,,,,,,,,
435376,100862.171875,280.73,135.574066,0.062249,-8.365340,9.152336,-0.087266,-0.410790,284.93,3.92,70.92,128.23,128.06,37.566413,1,1,0,1,0,,,,,,,,
435386,100862.171875,280.73,135.593215,0.569819,-7.867346,9.344961,-0.052147,-0.388442,284.88,3.91,72.10,129.38,127.84,37.566413,1,1,0,1,0,,,,,,,,
435396,100823.859375,280.73,135.583633,0.694318,-10.046070,9.433291,-0.058532,-0.378864,284.78,3.91,73.77,131.00,127.64,40.682380,1,1,0,1,0,,,,,,,,
435406,100823.859375,280.73,135.047332,1.369483,-7.920019,9.560998,-0.047890,-0.365029,284.93,3.92,75.04,132.21,127.41,40.682380,1,1,0,1,0,,,,,,,,
435416,100785.546875,280.73,133.653915,2.729389,-8.307879,9.669549,-0.032990,-0.367157,284.73,3.94,76.78,133.86,127.07,43.799304,1,1,0,1,0,,,,,,,,
435426,100766.390625,280.73,134.281188,1.747767,-8.317456,9.758945,-0.038312,-0.389506,284.93,3.94,78.48,135.45,126.82,45.358127,1,1,0,1,0,,,,,,,,
435436,100747.250000,280.73,132.418502,3.509899,-9.040505,9.881331,-0.028734,-0.383121,284.88,3.95,80.16,137.00,126.42,46.915920,1,1,0,1,0,,,,,,,,
435446,100728.093750,280.73,132.255706,3.007117,-9.682151,9.922836,-0.042569,-0.393763,284.78,3.95,81.83,138.51,126.04,48.475219,1,1,0,1,0,,,,,,,,
435456,100689.781250,280.73,130.527084,3.778050,-8.753201,10.072891,-0.030862,-0.415047,284.78,3.95,83.86,140.35,125.53,51.594543,1,1,0,1,0,,,,,,,,
435466,100689.781250,280.73,130.469619,3.605667,-9.394846,10.085661,-0.077688,-0.423561,284.88,3.95,85.41,141.70,125.07,51.594543,1,1,0,1,0,,,,,,,,
435476,100670.625000,280.73,131.403366,3.730166,-8.044517,10.195277,-0.056403,-0.440589,285.07,3.96,86.96,143.05,124.74,53.154567,1,1,0,1,0,,,,,,,,
435486,100651.468750,280.73,129.033111,3.912125,-10.275913,10.175056,-0.094716,-0.434203,284.93,3.96,88.53,144.38,124.21,54.714832,1,1,0,1,0,,,,,,,,
435496,100632.328125,280.73,127.371528,4.955997,-9.701305,10.285736,-0.075559,-0.455488,284.88,3.96,90.11,145.69,123.58,56.274063,1,1,0,1,0,,,,,,,,
435506,100613.171875,280.73,126.629325,3.969586,-9.600749,10.335754,-0.119193,-0.468259,284.73,3.96,91.70,146.99,122.94,57.834804,1,1,0,1,0,,,,,,,,
435516,100574.859375,280.73,126.284561,4.003105,-10.491392,10.388965,-0.154312,-0.477837,284.88,3.96,93.67,148.65,122.32,60.957015,1,1,0,1,0,,,,,,,,
435526,100555.703125,280.73,124.766639,3.979163,-11.338938,10.440048,-0.162826,-0.478901,284.78,3.96,95.56,150.20,121.62,62.518482,1,1,0,1,0,,,,,,,,
435536,100555.703125,280.73,124.110626,4.606443,-11.870451,10.550728,-0.180918,-0.488479,284.73,3.96,96.99,151.28,120.92,62.518482,1,1,0,1,0,,,,,,,,
435546,100517.390625,280.73,122.765083,5.214570,-8.082824,10.658215,-0.192624,-0.472515,284.88,3.96,98.85,152.75,120.17,65.642135,1,1,0,1,0,,,,,,,,
435556,100498.250000,280.73,122.856063,4.568136,-8.963891,10.710362,-0.214973,-0.468259,284.93,3.96,100.64,154.15,119.49,67.203048,1,1,0,1,0,,,,,,,,
435566,100479.093750,280.73,120.701278,4.793191,-7.977479,10.819976,-0.228808,-0.465066,284.78,3.96,102.39,155.47,118.67,68.765480,1,1,0,1,0,,,,,,,,
435576,100440.781250,280.73,118.556076,5.324704,-10.017339,10.877446,-0.238386,-0.466130,284.88,3.96,104.49,157.10,117.72,71.891067,1,1,0,1,0,,,,,,,,
435586,100421.625000,280.73,119.274337,5.343858,-8.537723,10.996638,-0.224551,-0.474644,284.93,3.96,106.47,158.60,116.94,73.454216,1,1,0,1,0,,,,,,,,
435596,100402.468750,280.73,117.928794,6.363788,-8.106766,11.104125,-0.251157,-0.467194,285.07,3.97,108.36,159.99,116.10,75.017616,1,1,0,1,0,,,,,,,,
435606,100383.328125,280.73,118.637481,6.665457,-10.098742,11.193520,-0.243707,-0.474644,284.78,3.96,110.17,161.29,115.41,76.579971,1,1,0,1,0,,,,,,,,
435616,100364.171875,280.73,115.304748,6.014234,-9.356539,11.281851,-0.256478,-0.473580,284.88,3.94,111.94,162.50,114.46,78.143852,1,1,0,1,0,,,,,,,,
435626,100325.859375,280.73,116.827461,5.104437,-8.719682,11.387208,-0.244771,-0.500185,284.78,3.94,114.05,164.06,113.75,81.272331,1,1,0,1,0,,,,,,,,
435636,100306.703125,280.73,113.346298,7.613561,-7.201758,11.519172,-0.230936,-0.517213,284.68,3.93,116.04,165.44,112.78,82.836936,1,1,0,1,0,,,,,,,,
435646,100287.546875,280.73,112.407768,6.473921,-8.078036,11.595797,-0.242643,-0.552332,284.93,3.92,117.93,166.71,111.81,84.401786,1,1,0,1,0,,,,,,,,
435656,100268.390625,280.73,110.612113,6.991068,-9.552865,11.608568,-0.271377,-0.526791,284.58,3.92,119.76,167.89,110.76,85.966873,1,1,0,1,0,,,,,,,,
435666,100245.312500,280.71,108.639297,7.690175,-7.589619,11.762881,-0.227744,-0.568296,284.78,3.92,121.60,169.06,109.63,87.852699,1,1,0,1,0,,,,,,,,
435676,100230.093750,280.73,107.892303,7.833827,-8.427589,11.824605,-0.229872,-0.590645,284.68,3.92,123.31,170.07,108.53,89.096496,1,1,0,1,0,,,,,,,,
435686,100191.781250,280.73,108.620140,7.402871,-5.406107,11.967212,-0.219230,-0.606608,284.88,3.92,125.38,171.42,107.61,92.228370,1,1,0,1,0,,,,,,,,
435696,100172.625000,280.73,106.489303,6.392518,-7.747636,12.005523,-0.247964,-0.621507,284.73,3.92,127.33,172.64,106.57,93.794670,1,1,0,1,0,,,,,,,,
435706,100153.468750,280.73,105.014472,7.163451,-8.279149,12.088533,-0.212845,-0.619379,284.93,3.92,129.20,173.74,105.49,95.361206,1,1,0,1,0,,,,,,,,
435716,100134.328125,280.73,104.138198,6.545747,-9.275136,12.189635,-0.184110,-0.623635,284.68,3.92,131.00,174.76,104.42,96.926712,1,1,0,1,0,,,,,,,,
435726,100115.171875,280.73,104.516479,6.804321,-6.469132,12.379067,-0.186239,-0.638535,284.93,3.92,132.74,175.72,103.50,98.493743,1,1,0,1,0,,,,,,,,
435736,100096.015625,280.73,101.873283,7.091625,-6.349422,12.400351,-0.161762,-0.642791,284.93,3.91,134.46,176.61,102.41,100.061012,1,1,0,1,0,,,,,,,,
435746,100034.625000,280.71,100.786315,6.890512,-9.380481,12.392901,-0.151119,-0.641727,284.58,3.91,137.00,178.29,101.32,105.085327,1,1,0,1,0,,,,,,,,
435756,100053.781250,280.71,100.843772,5.238513,-7.833827,12.641930,-0.080881,-0.675782,284.88,3.92,138.53,178.97,100.35,103.517272,1,1,0,1,0,,,,,,,,
435766,100019.390625,280.73,97.932426,5.051765,-9.093177,12.586591,-0.108550,-0.656626,284.88,3.92,140.39,179.93,99.18,106.332519,1,1,0,1,0,,,,,,,,
435776,99996.328125,280.71,99.359367,5.434837,-7.196969,12.638738,-0.083009,-0.694939,284.93,3.91,142.26,180.91,98.27,108.220870,1,1,0,1,0,,,,,,,,
435786,99977.171875,280.71,96.720954,4.371812,-10.247182,12.752611,-0.121321,-0.676847,284.88,3.91,144.06,181.79,97.19,109.789649,1,1,0,1,0,,,,,,,,
435796,99938.859375,280.71,96.553367,4.419696,-12.210428,12.782408,-0.075559,-0.706645,284.73,3.91,146.20,182.99,96.19,112.927932,1,1,0,1,0,,,,,,,,
435806,99942.781250,280.73,95.667510,3.074154,-15.811307,12.933528,0.023412,-0.728994,284.73,3.91,147.74,183.58,95.21,112.606636,1,1,0,1,0,,,,,,,,
435816,99919.703125,280.71,95.408935,4.850652,-11.415553,13.044207,-0.068110,-0.681104,284.78,3.94,149.37,184.24,94.30,114.497444,1,1,0,1,0,,,,,,,,
435826,99900.562500,280.71,96.203811,3.964797,-7.498639,12.876060,-0.079816,-0.656626,284.88,3.94,150.99,184.90,93.55,116.065917,1,1,0,1,0,,,,,,,,
435836,99881.406250,280.71,96.687438,3.945644,-14.350844,13.046336,-0.004256,-0.649177,284.88,3.95,152.60,185.54,92.91,117.635910,1,1,0,1,0,,,,,,,,
435846,99862.250000,280.71,95.380203,3.179499,-13.235146,13.137859,-0.047890,-0.608736,284.78,3.94,154.20,186.16,92.22,119.206153,1,1,0,1,0,,,,,,,,
435856,99823.937500,280.71,97.262046,1.498770,-10.773907,13.214484,-0.046825,-0.585323,284.58,3.96,156.19,187.17,91.76,122.347358,1,1,0,1,0,,,,,,,,
435866,99804.796875,280.71,98.693778,4.740519,-9.227252,13.350704,0.000000,-0.538497,284.88,3.96,158.08,188.08,91.49,123.917053,1,1,0,1,0,,,,,,,,
435876,99785.640625,280.71,99.383308,5.090072,-13.441047,13.294301,0.060660,-0.556589,284.78,3.96,159.90,188.91,91.31,125.488265,1,1,0,1,0,,,,,,,,
435886,99766.484375,280.71,98.052131,6.708552,-10.146626,13.498632,-0.017027,-0.522534,284.88,3.96,161.66,189.67,91.02,127.059722,1,1,0,1,0,,,,,,,,
435896,99732.093750,280.73,95.078536,5.324704,-12.966996,13.392209,0.036183,-0.502314,284.93,3.96,163.70,190.66,90.47,129.881530,1,1,0,1,0,,,,,,,,
435906,99709.031250,280.71,90.606170,2.849099,-6.244078,13.526301,-0.026605,-0.529984,284.93,3.96,165.71,191.59,89.55,131.774291,1,1,0,1,0,,,,,,,,
435916,99670.718750,280.71,72.726272,3.557783,-16.457742,13.303878,0.032990,-0.537433,285.07,3.96,168.03,192.65,87.02,134.919403,1,1,0,1,0,,,,,,,,
435926,99655.468750,280.73,53.074661,6.809109,-8.398859,13.512467,-0.028734,-0.521470,284.68,3.96,170.10,193.30,82.86,136.171569,1,1,0,1,0,,,,,,,,
435936,99613.265625,280.71,41.553764,4.740519,-9.950302,13.450742,0.011706,-0.531048,284.88,3.96,172.53,194.19,78.00,139.637634,1,1,0,1,0,,,,,,,,
435946,99613.265625,280.71,26.929979,4.031835,-15.423446,13.342190,0.025541,-0.459745,284.78,3.96,174.38,194.38,72.21,139.637634,1,1,0,1,0,,,,,,,,
435956,99555.796875,280.71,20.005949,8.757989,-4.783615,13.314520,-0.041504,-0.437396,284.78,3.96,176.94,195.19,66.31,144.359359,1,1,0,1,0,,,,,,,,
435966,99536.640625,280.71,11.300631,1.709460,-12.387598,13.230447,0.166019,-0.511892,284.88,3.96,179.27,195.68,60.15,145.933761,1,1,0,1,0,,,,,,,,
435976,99479.187500,280.71,16.170438,-5.066130,-8.585607,13.384759,-0.030862,-0.443781,284.68,3.96,182.18,196.77,55.03,150.657135,1,1,0,1,0,,,,,,,,
435986,99536.640625,280.71,-1.446097,2.997540,-13.895946,13.201713,-0.110679,-0.363965,284.88,3.96,183.21,195.86,48.73,145.933761,1,1,0,1,0,,,,,,,,
435996,99536.640625,280.71,-4.788403,2.624045,-4.055777,13.285787,0.060660,-0.297983,284.78,3.96,183.98,194.67,42.72,145.933761,1,1,0,1,0,,,,,,,,
436006,99498.343750,280.71,-8.001421,6.378153,-12.119448,13.397530,-0.051082,-0.346937,284.68,3.96,185.33,194.02,36.97,149.082000,1,1,0,1,0,,,,,,,,
436016,99460.031250,280.71,-19.929334,4.697423,-7.110778,13.197456,-0.024477,-0.456552,284.78,3.95,187.12,193.70,30.63,152.232513,1,1,0,1,0,,,,,,,,
436026,99440.875000,280.71,-10.745177,19.637241,-13.532028,13.126152,0.154312,-0.505506,284.88,3.93,188.85,193.38,25.76,153.808135,1,1,0,1,0,,,,,,,,
436036,99440.875000,280.71,-19.239805,1.886630,-14.887145,13.053785,0.045761,-0.538497,284.88,3.93,190.14,192.57,20.55,153.808135,1,1,0,1,0,,,,,,,,
436046,99440.875000,280.71,-22.222980,6.856993,-5.037400,13.063364,0.032990,-0.506571,284.88,3.93,191.11,191.41,15.56,153.808135,1,1,0,1,0,,,,,,,,
436056,99421.734375,280.71,-26.115951,2.925714,-10.874464,13.065492,0.037247,-0.498057,285.07,3.92,192.21,190.36,10.67,155.382720,1,1,0,1,0,,,,,,,,
436066,99440.875000,280.71,-31.996110,2.427720,-16.970102,12.736646,0.085138,-0.431011,284.78,3.92,192.65,188.61,5.68,153.808135,1,1,0,1,0,,,,,,,,
436076,99421.734375,280.71,-29.046455,-1.369483,-13.800178,12.647252,0.095780,-0.421433,284.78,3.92,193.34,187.15,1.46,155.382720,1,1,0,1,0,,,,,,,,
436086,99402.578125,280.71,-29.750349,1.264138,-18.181568,12.652572,0.069174,-0.359708,284.93,3.92,194.24,185.88,-2.43,156.958847,1,1,0,1,0,,,,,,,,
436096,99402.578125,280.71,-27.164611,3.155557,-11.434706,12.623839,0.045761,-0.316074,284.88,3.91,194.90,184.41,-5.71,156.958847,1,1,0,1,0,,,,,,,,
436106,99421.734375,280.71,-30.593109,17.717092,-5.453991,12.650444,-0.101101,-0.259670,284.88,3.91,194.99,182.37,-9.00,155.382720,1,1,0,1,0,,,,,,,,
436116,99383.421875,280.71,-27.959487,-3.811568,-22.706607,12.354589,0.085138,-0.180918,284.88,3.91,195.83,181.08,-11.73,158.535202,1,1,0,1,0,,,,,,,,
436126,99383.421875,280.71,-28.567613,2.920926,-18.818424,12.553600,-0.010642,-0.158569,284.93,3.92,196.44,179.59,-14.26,158.535202,1,1,0,1,0,,,,,,,,
436136,99360.375000,280.70,-28.021736,-1.072602,-7.129932,12.581270,-0.032990,-0.128771,284.73,3.91,197.36,178.40,-16.49,160.432052,1,1,0,1,0,,,,,,,,
436146,99322.062500,280.70,-29.984981,6.057330,-16.294937,12.375874,0.021284,-0.070238,284.68,3.91,198.83,177.74,-18.71,163.586105,1,1,0,1,0,,,,,,,,
436156,99287.656250,280.71,-31.038431,8.552088,-16.218322,12.255617,0.013834,-0.055339,284.78,3.91,200.63,177.39,-20.81,166.419418,1,1,0,1,0,,,,,,,,
436166,99283.765625,280.70,-28.797456,4.898536,-20.173543,12.296057,0.001064,-0.096844,284.68,3.92,202.05,176.70,-22.50,166.739852,1,1,0,1,0,,,,,,,,
436176,99249.343750,280.71,-29.391220,2.604891,-19.503166,12.400351,-0.089394,-0.087266,284.78,3.91,203.82,176.35,-24.09,169.575347,1,1,0,1,0,,,,,,,,
436186,99230.203125,280.71,-28.672958,4.989516,-12.756306,12.366296,-0.105358,-0.117064,284.88,3.91,205.54,175.94,-25.45,171.152389,1,1,0,1,0,,,,,,,,
436196,99226.296875,280.70,-28.088773,6.090848,-17.980455,12.335433,-0.059596,-0.183046,284.73,3.91,206.91,175.21,-26.64,171.474258,1,1,0,1,0,,,,,,,,
436206,99188.000000,280.70,-28.007371,4.630385,-19.225439,12.362040,-0.096844,-0.227744,284.78,3.91,208.71,174.90,-27.70,174.630477,1,1,0,1,0,,,,,,,,
436216,99168.843750,280.70,-28.548460,8.925583,-11.956643,12.480168,-0.102165,-0.288405,284.68,3.93,210.46,174.53,-28.71,176.209609,1,1,0,1,0,,,,,,,,
436226,99130.546875,280.70,-27.724855,4.491522,-15.959748,12.203470,-0.056403,-0.328845,284.97,3.94,212.55,174.51,-29.55,179.367309,1,1,0,1,0,,,,,,,,
436236,99134.437500,280.71,-27.504589,3.754108,-16.936582,12.290736,-0.151119,-0.325652,284.58,3.95,214.04,173.91,-30.29,179.046463,1,1,0,1,0,,,,,,,,
436246,99115.281250,280.71,-28.021736,1.886630,-13.766659,12.291800,-0.206459,-0.297983,284.88,3.95,215.55,173.32,-31.00,180.626281,1,1,0,1,0,,,,,,,,
436256,99092.234375,280.70,-28.045679,3.734954,-12.018892,12.429085,-0.169211,-0.294790,284.88,3.96,217.15,172.83,-31.65,182.527282,1,1,0,1,0,,,,,,,,
436266,99073.078125,280.70,-28.112716,3.543418,-9.509769,12.258810,-0.102165,-0.287340,284.68,3.96,218.74,172.33,-32.25,184.107635,1,1,0,1,0,,,,,,,,
436276,99053.937500,280.70,-26.120740,3.136404,-12.646173,12.248167,-0.069174,-0.307561,284.88,3.96,220.32,171.84,-32.60,185.686950,1,1,0,1,0,,,,,,,,
436286,99034.781250,280.70,-27.298686,4.185064,-12.018892,12.279030,-0.043633,-0.333102,284.78,3.96,221.90,171.34,-33.02,187.267807,1,1,0,1,0,,,,,,,,
436296,99015.625000,280.70,-27.351360,0.660799,-17.032350,12.146002,-0.020220,-0.307561,284.78,3.96,223.47,170.85,-33.42,188.848907,1,1,0,1,0,,,,,,,,
436306,98977.328125,280.70,-27.710489,3.634398,-9.370904,12.240717,-0.051082,-0.278826,284.78,3.96,225.44,170.73,-33.81,192.010574,1,1,0,1,0,,,,,,,,
436316,98977.328125,280.70,-28.074409,4.515464,-9.586383,12.070442,0.069174,-0.284148,284.68,3.96,226.92,170.14,-34.19,192.010574,1,1,0,1,0,,,,,,,,
436326,98958.171875,280.70,-26.182989,2.566584,-13.838485,12.113011,0.022348,-0.266056,284.68,3.96,228.41,169.58,-34.36,193.592407,1,1,0,1,0,,,,,,,,
436336,98919.859375,280.70,-27.667394,4.165910,-12.277465,12.069377,0.069174,-0.259670,284.88,3.96,230.32,169.42,-34.66,196.756851,1,1,0,1,0,,,,,,,,
436346,98919.859375,280.70,-27.471069,1.259350,-16.452953,11.989561,0.085138,-0.254349,284.78,3.96,231.75,168.80,-34.91,196.756851,1,1,0,1,0,,,,,,,,
436356,98900.718750,280.70,-27.035326,4.774038,-10.611102,12.048092,0.078752,-0.240514,284.88,3.96,233.22,168.22,-35.09,198.338150,1,1,0,1,0,,,,,,,,
436366,98862.406250,280.70,-26.302700,4.180275,-12.679692,12.034257,0.077688,-0.246900,284.68,3.96,235.10,168.05,-35.19,201.504058,1,1,0,1,0,,,,,,,,
436376,98862.406250,280.70,-26.542119,1.853112,-14.460977,11.948056,0.086202,-0.244771,284.73,3.96,236.51,167.43,-35.29,201.504058,1,1,0,1,0,,,,,,,,
436386,98824.109375,280.70,-26.384101,0.574608,-16.491260,11.949120,0.081945,-0.237322,284.78,3.96,238.35,167.24,-35.38,204.669692,1,1,0,1,0,,,,,,,,
436396,98820.234375,280.68,-25.742456,1.723825,-8.772355,11.988496,0.024477,-0.217101,284.88,3.96,239.82,166.68,-35.39,204.990051,1,1,0,1,0,,,,,,,,
436406,98804.953125,280.70,-25.570074,0.067037,-14.379574,11.946991,0.025541,-0.187303,284.88,3.96,241.22,166.08,-35.39,206.253524,1,1,0,1,0,,,,,,,,
436416,98781.921875,280.68,-26.915615,5.358223,-9.102754,12.002330,0.038312,-0.179854,284.88,3.94,242.75,165.59,-35.52,208.158065,1,1,0,1,0,,,,,,,,
436426,98762.765625,280.68,-25.795127,0.339976,-16.021997,11.815028,0.078752,-0.183046,284.78,3.93,244.29,165.12,-35.52,209.742431,1,1,0,1,0,,,,,,,,
436436,98743.625000,280.68,-25.273193,2.561795,-15.466543,11.867175,0.074495,-0.169211,284.78,3.92,245.84,164.67,-35.48,211.325775,1,1,0,1,0,,,,,,,,
436446,98709.187500,280.70,-26.815057,4.836287,-14.417881,11.891652,0.093651,-0.176661,284.88,3.92,247.70,164.52,-35.59,214.175109,1,1,0,1,0,,,,,,,,
436456,98690.031250,280.70,-25.661052,-0.210689,-17.477672,11.761816,0.109615,-0.191560,284.68,3.92,249.50,164.31,-35.58,215.760437,1,1,0,1,0,,,,,,,,
436466,98667.015625,280.68,-25.105598,-0.138863,-16.328454,11.725632,0.087266,-0.209652,284.68,3.92,251.32,164.13,-35.52,217.665481,1,1,0,1,0,,,,,,,,
436476,98667.015625,280.68,-25.704149,2.868253,-13.934253,11.855468,0.028734,-0.210716,284.88,3.92,252.69,163.51,-35.51,217.665481,1,1,0,1,0,,,,,,,,
436486,98647.859375,280.68,-24.966735,1.699883,-14.465766,11.705412,0.063853,-0.235193,284.68,3.92,254.10,162.95,-35.44,219.251342,1,1,0,1,0,,,,,,,,
436496,98628.703125,280.68,-24.224533,3.371036,-14.609418,11.787357,0.002128,-0.234129,284.73,3.91,255.56,162.44,-35.31,220.837463,1,1,0,1,0,,,,,,,,
436506,98590.406250,280.68,-24.583662,1.972822,-11.688492,11.741596,0.032990,-0.230936,284.78,3.92,257.43,162.34,-35.22,224.009170,1,1,0,1,0,,,,,,,,
436516,98590.406250,280.68,-24.440010,1.733402,-15.629348,11.639430,0.036183,-0.207523,284.73,3.92,258.84,161.79,-35.13,224.009170,1,1,0,1,0,,,,,,,,
436526,98552.109375,280.68,-24.487894,1.570596,-15.332467,11.763945,-0.031926,-0.207523,284.78,3.91,260.69,161.67,-35.05,227.181869,1,1,0,1,0,,,,,,,,
436536,98532.953125,280.68,-24.425645,3.572148,-11.674127,11.699027,-0.079816,-0.181982,284.88,3.91,262.47,161.49,-34.97,228.769226,1,1,0,1,0,,,,,,,,
436546,98532.953125,280.68,-24.813505,3.141192,-13.168108,11.689449,-0.078752,-0.217101,284.97,3.91,263.80,160.87,-34.94,228.769226,1,1,0,1,0,,,,,,,,
436556,98494.656250,280.68,-24.004266,2.130839,-12.909535,11.584091,-0.097908,-0.164954,284.93,3.92,265.59,160.71,-34.83,231.943420,1,1,0,1,0,,,,,,,,
436566,98494.656250,280.68,-24.224533,4.046200,-13.536816,11.562806,-0.046825,-0.183046,284.93,3.91,266.93,160.11,-34.75,231.943420,1,1,0,1,0,,,,,,,,
436576,98475.500000,280.68,-23.554155,-0.948103,-18.229452,11.523429,-0.073431,-0.157505,284.88,3.91,268.33,159.58,-34.62,233.531539,1,1,0,1,0,,,,,,,,
436586,98456.343750,280.68,-24.933216,5.995080,-12.794613,11.573448,-0.078752,-0.147927,284.58,3.92,269.77,159.08,-34.63,235.119918,1,1,0,1,0,,,,,,,,
436596,98437.187500,280.68,-22.500707,0.421379,-10.050858,11.482989,-0.047890,-0.160697,284.68,3.91,271.25,158.64,-34.41,236.708526,1,1,0,1,0,,,,,,,,
436606,98418.046875,280.68,-24.396915,4.338293,-14.657302,11.448934,-0.061725,-0.131963,284.93,3.90,272.75,158.22,-34.39,238.296112,1,1,0,1,0,,,,,,,,
436616,98418.046875,280.68,-22.720973,2.001552,-10.884040,11.434035,-0.083009,-0.155376,284.88,3.93,273.87,157.44,-34.21,238.296112,1,1,0,1,0,,,,,,,,
436626,98360.593750,280.68,-24.349031,2.676717,-15.145719,11.353154,-0.041504,-0.186239,284.78,3.94,275.89,157.54,-34.20,243.062927,1,1,0,1,0,,,,,,,,
436636,98356.734375,280.66,-22.222980,2.829946,-11.176133,11.438291,-0.109615,-0.208588,284.53,3.95,277.49,157.24,-34.00,243.383209,1,1,0,1,0,,,,,,,,
436646,98341.437500,280.68,-24.085668,3.394978,-15.447388,11.365924,-0.096844,-0.195817,284.88,3.95,279.01,156.85,-33.99,244.652801,1,1,0,1,0,,,,,,,,
436656,98303.140625,280.68,-23.309947,3.361459,-13.680468,11.235025,-0.042569,-0.174532,284.88,3.95,280.94,156.87,-33.90,247.832000,1,1,0,1,0,,,,,,,,
436666,98303.140625,280.68,-22.012290,2.255337,-11.516110,11.244603,-0.110679,-0.164954,284.68,3.96,282.39,156.43,-33.71,247.832000,1,1,0,1,0,,,,,,,,
436676,98260.968750,280.66,-22.764068,2.322375,-12.660538,11.222253,-0.105358,-0.118128,284.78,3.96,284.34,156.48,-33.60,251.334030,1,1,0,1,0,,,,,,,,
436686,98260.968750,280.66,-22.515071,5.300762,-9.083600,11.226511,-0.052147,-0.118128,284.73,3.96,285.81,156.07,-33.48,251.334030,1,1,0,1,0,,,,,,,,
436696,98241.828125,280.66,-22.601263,1.680729,-13.857639,11.259502,-0.054275,-0.130899,284.78,3.96,287.31,155.68,-33.37,252.923919,1,1,0,1,0,,,,,,,,
436706,98222.671875,280.66,-22.677877,6.143521,-7.426813,11.250988,-0.025541,-0.123450,284.73,3.96,288.82,155.32,-33.29,254.515335,1,1,0,1,0,,,,,,,,
436716,98203.515625,280.66,-21.691467,3.409343,-9.418788,11.212676,-0.001064,-0.184110,284.78,3.96,290.36,154.98,-33.12,256.107025,1,1,0,1,0,,,,,,,,
436726,98184.375000,280.66,-23.180660,5.090072,-12.966996,11.069005,0.060660,-0.195817,284.73,3.96,291.90,154.65,-33.11,257.697662,1,1,0,1,0,,,,,,,,
436736,98146.062500,280.66,-22.620416,5.085284,-12.612654,11.159464,0.022348,-0.245836,284.73,3.96,293.85,154.72,-33.04,260.882263,1,1,0,1,0,,,,,,,,
436746,98126.921875,280.66,-21.772869,0.986411,-12.899958,11.113703,-0.004256,-0.273505,284.58,3.96,295.71,154.70,-32.90,262.473663,1,1,0,1,0,,,,,,,,
436756,98107.765625,280.66,-21.389797,4.941632,-9.686940,11.129666,-0.027669,-0.274570,284.78,3.96,297.51,154.63,-32.74,264.066589,1,1,0,1,0,,,,,,,,
436766,98107.765625,280.66,-22.333112,2.202665,-14.642937,10.949812,0.038312,-0.311817,284.88,3.96,298.86,154.12,-32.68,264.066589,1,1,0,1,0,,,,,,,,
436776,98088.609375,280.66,-22.074539,3.098096,-14.346055,11.136052,-0.123450,-0.288405,284.97,3.96,300.26,153.67,-32.61,265.659790,1,1,0,1,0,,,,,,,,
436786,98069.468750,280.66,-21.772869,3.299209,-9.112331,11.038143,-0.026605,-0.288405,284.58,3.96,301.71,153.26,-32.51,267.251922,1,1,0,1,0,,,,,,,,
436796,98050.312500,280.66,-21.298818,0.339976,-13.761871,10.959390,-0.025541,-0.268184,284.68,3.96,303.19,152.90,-32.37,268.845611,1,1,0,1,0,,,,,,,,
436806,98050.312500,280.66,-21.418527,1.752555,-11.295843,11.041336,-0.043633,-0.241579,284.58,3.96,304.30,152.18,-32.26,268.845611,1,1,0,1,0,,,,,,,,
436816,98031.156250,280.66,-21.610063,2.533065,-10.534487,10.954069,-0.032990,-0.223487,284.88,3.94,305.52,151.58,-32.18,270.439575,1,1,0,1,0,,,,,,,,
436826,98008.187500,280.65,-20.915744,0.699106,-11.846509,10.910436,0.017027,-0.222423,284.88,3.94,306.91,151.15,-32.04,272.351074,1,1,0,1,0,,,,,,,,
436836,97992.859375,280.66,-21.978771,3.117250,-12.239158,10.923207,-0.019156,-0.191560,284.88,3.93,308.27,150.69,-32.02,273.626892,1,1,0,1,0,,,,,,,,
436846,97973.703125,280.66,-20.116083,0.043095,-10.496180,10.895537,0.040440,-0.214973,284.53,3.93,309.69,150.29,-31.82,275.221618,1,1,0,1,0,,,,,,,,
436856,97954.562500,280.66,-20.623653,2.269703,-10.821791,10.889152,-0.007449,-0.202202,284.73,3.92,311.14,149.94,-31.68,276.815246,1,1,0,1,0,,,,,,,,
436866,97954.562500,280.66,-20.202274,1.240196,-10.922348,10.875316,0.061725,-0.219230,284.88,3.92,312.23,149.24,-31.52,276.815246,1,1,0,1,0,,,,,,,,
436876,97916.265625,280.66,-21.001937,2.365471,-13.139378,10.822105,0.076624,-0.223487,284.73,3.92,313.84,149.05,-31.45,280.004638,1,1,0,1,0,,,,,,,,
436886,97893.281250,280.65,-21.083339,0.770932,-13.455412,10.835941,0.076624,-0.203267,284.44,3.91,315.53,148.93,-31.40,281.919250,1,1,0,1,0,,,,,,,,
436896,97874.125000,280.65,-20.542249,3.476380,-11.468225,10.860417,0.084073,-0.219230,284.73,3.92,317.19,148.79,-31.30,283.515258,1,1,0,1,0,,,,,,,,
436906,97854.984375,280.65,-20.412963,3.371036,-13.848062,10.814656,0.090459,-0.240514,284.53,3.92,318.83,148.64,-31.20,285.110229,1,1,0,1,0,,,,,,,,
436916,97835.828125,280.65,-20.207061,1.182735,-11.923124,10.806142,0.047890,-0.234129,284.88,3.92,320.46,148.48,-31.09,286.706756,1,1,0,1,0,,,,,,,,
436926,97816.687500,280.65,-20.298042,3.174711,-12.401964,10.750802,0.032990,-0.240514,284.58,3.91,322.08,148.31,-30.99,288.302215,1,1,0,1,0,,,,,,,,
436936,97797.531250,280.65,-19.369091,0.407014,-12.588712,10.725261,0.028734,-0.241579,284.78,3.92,323.69,148.14,-30.82,289.899261,1,1,0,1,0,,,,,,,,
436946,97797.531250,280.65,-19.742586,3.112462,-13.053187,10.690141,0.008513,-0.257542,284.73,3.91,324.91,147.58,-30.70,289.899261,1,1,0,1,0,,,,,,,,
436956,97778.375000,280.65,-20.460847,2.140416,-11.789049,10.714619,-0.044697,-0.230936,284.78,3.91,326.21,147.11,-30.66,291.496520,1,1,0,1,0,,,,,,,,
436966,97778.375000,280.65,-20.044256,1.254561,-14.460977,10.558177,-0.027669,-0.236257,284.73,3.91,327.18,146.33,-30.58,291.496520,1,1,0,1,0,,,,,,,,
436976,97743.906250,280.66,-20.365079,1.326387,-13.397952,10.639059,-0.083009,-0.217101,284.68,3.91,328.63,146.01,-30.54,294.371246,1,1,0,1,0,,,,,,,,
436986,97720.921875,280.65,-18.847154,1.364694,-10.965443,10.579463,-0.047890,-0.201138,284.78,3.91,330.18,145.81,-30.36,296.288604,1,1,0,1,0,,,,,,,,
436996,97701.781250,280.65,-19.388244,0.895431,-11.089941,10.636930,-0.064917,-0.183046,284.58,3.92,331.75,145.63,-30.25,297.885589,1,1,0,1,0,,,,,,,,
437006,97701.781250,280.65,-19.804836,3.663128,-9.289502,10.612453,-0.063853,-0.157505,284.93,3.91,332.92,145.06,-30.19,297.885589,1,1,0,1,0,,,,,,,,
437016,97682.625000,280.65,-19.680337,0.895431,-12.296619,10.507095,-0.001064,-0.170276,284.88,3.93,334.20,144.59,-30.12,299.484130,1,1,0,1,0,,,,,,,,
437026,97659.640625,280.63,-20.192697,2.748543,-11.726799,10.618839,0.007449,-0.166019,284.73,3.94,335.63,144.28,-30.11,301.402465,1,1,0,1,0,,,,,,,,
437036,97644.328125,280.65,-19.062633,1.407790,-13.129801,10.558177,0.029798,-0.155376,284.93,3.94,337.02,143.94,-29.99,302.680694,1,1,0,1,0,,,,,,,,
437046,97625.171875,280.65,-20.082563,1.795651,-12.354080,10.619903,0.041504,-0.146863,284.73,3.95,338.47,143.65,-29.98,304.279998,1,1,0,1,0,,,,,,,,
437056,97606.031250,280.65,-18.267759,0.861912,-9.734824,10.582654,0.057468,-0.131963,284.73,3.96,339.94,143.40,-29.80,305.878265,1,1,0,1,0,,,,,,,,
437066,97586.875000,280.65,-19.867084,2.671929,-12.119448,10.641187,0.022348,-0.143670,284.73,3.96,341.45,143.18,-29.79,307.478057,1,1,0,1,0,,,,,,,,
437076,97563.906250,280.63,-19.412187,1.800439,-10.481815,10.602874,0.004256,-0.128771,284.68,3.96,343.06,143.06,-29.73,309.396606,1,1,0,1,0,,,,,,,,
437086,97544.750000,280.63,-18.828001,2.149993,-10.606313,10.513480,0.021284,-0.146863,284.58,3.96,344.66,142.94,-29.63,310.997009,1,1,0,1,0,,,,,,,,
437096,97544.750000,280.63,-19.378667,2.600102,-12.660538,10.469846,-0.028734,-0.128771,284.53,3.96,345.87,142.43,-29.58,310.997009,1,1,0,1,0,,,,,,,,
437106,97506.453125,280.63,-18.650831,0.948103,-12.301407,10.413443,-0.009578,-0.111743,284.73,3.96,347.56,142.41,-29.48,314.197204,1,1,0,1,0,,,,,,,,
437116,97506.453125,280.63,-19.024326,2.456450,-9.021351,10.394287,-0.039376,-0.092587,284.88,3.96,348.84,141.98,-29.42,314.197204,1,1,0,1,0,,,,,,,,
437126,97487.296875,280.63,-18.713079,2.537853,-8.078036,10.423021,-0.020220,-0.112807,284.58,3.96,350.19,141.63,-29.33,315.798339,1,1,0,1,0,,,,,,,,
437136,97468.156250,280.63,-17.985242,1.881842,-11.999738,10.329369,-0.021284,-0.111743,284.88,3.96,351.60,141.34,-29.18,317.398437,1,1,0,1,0,,,,,,,,
437146,97449.000000,280.63,-18.713079,3.074154,-10.347739,10.336818,-0.036183,-0.097908,284.68,3.96,353.06,141.10,-29.12,319.000091,1,1,0,1,0,,,,,,,,
437156,97429.859375,280.63,-18.837577,-0.220266,-10.582371,10.334691,0.013834,-0.118128,284.44,3.96,354.55,140.89,-29.07,320.600677,1,1,0,1,0,,,,,,,,
437166,97429.859375,280.63,-18.636465,1.757344,-12.933477,10.409186,-0.036183,-0.111743,284.68,3.96,355.67,140.32,-29.01,320.600677,1,1,0,1,0,,,,,,,,
437176,97410.703125,280.63,-18.808847,1.450886,-7.632714,10.430470,-0.044697,-0.134092,284.68,3.96,356.90,139.88,-28.97,322.202850,1,1,0,1,0,,,,,,,,
437186,97372.406250,280.63,-17.247829,1.283292,-9.088389,10.362360,-0.017027,-0.175597,284.78,3.96,358.62,139.92,-28.79,325.406616,1,1,0,1,0,,,,,,,,
437196,97372.406250,280.63,-18.033126,0.565031,-10.309432,10.324048,-0.005321,-0.187303,284.73,3.96,359.92,139.53,-28.70,325.406616,1,1,0,1,0,,,,,,,,
437206,97353.250000,280.63,-18.713079,2.422932,-9.437942,10.325113,-0.040440,-0.168147,284.58,3.96,361.28,139.22,-28.68,327.009552,1,1,0,1,0,,,,,,,,
437216,97334.109375,280.63,-18.875885,2.413355,-8.355763,10.348525,-0.037247,-0.186239,284.73,3.94,362.71,138.97,-28.68,328.611419,1,1,0,1,0,,,,,,,,
437226,97314.953125,280.63,-17.812860,-0.205901,-10.189722,10.344268,-0.076624,-0.156441,284.68,3.93,364.17,138.77,-28.58,330.214874,1,1,0,1,0,,,,,,,,
437236,97295.812500,280.63,-17.606958,2.489969,-7.105990,10.320856,-0.059596,-0.150055,284.97,3.93,365.67,138.60,-28.47,331.817230,1,1,0,1,0,,,,,,,,
437246,97295.812500,280.63,-18.104953,2.264914,-9.361328,10.270837,0.018091,-0.160697,284.78,3.92,366.80,138.07,-28.42,331.817230,1,1,0,1,0,,,,,,,,
437256,97276.656250,280.63,-18.588581,0.823605,-11.152191,10.321920,-0.025541,-0.148991,284.68,3.92,368.04,137.65,-28.41,333.421203,1,1,0,1,0,,,,,,,,
437266,97238.359375,280.63,-17.994819,3.653551,-6.416460,10.326176,-0.046825,-0.125578,284.44,3.92,369.76,137.71,-28.36,336.628540,1,1,0,1,0,,,,,,,,
437276,97234.546875,280.61,-17.769763,0.775721,-10.759542,10.229332,0.054275,-0.172404,284.58,3.92,371.14,137.43,-28.28,336.947906,1,1,0,1,0,,,,,,,,
437286,97215.390625,280.61,-17.578227,3.280056,-11.286266,10.269773,-0.015963,-0.163890,284.58,3.92,372.57,137.21,-28.20,338.552673,1,1,0,1,0,,,,,,,,
437296,97200.062500,280.63,-17.214309,0.253785,-9.188945,10.203790,0.011706,-0.210716,284.58,3.91,373.96,136.96,-28.08,339.836914,1,1,0,1,0,,,,,,,,
437306,97200.062500,280.63,-17.899051,2.734178,-9.342174,10.226140,-0.015963,-0.204331,284.78,3.92,375.01,136.37,-28.05,339.836914,1,1,0,1,0,,,,,,,,
437316,97177.093750,280.61,-17.089811,1.853112,-4.855441,10.206983,0.055339,-0.241579,284.44,3.91,376.27,136.00,-27.94,341.761657,1,1,0,1,0,,,,,,,,
437326,97157.953125,280.61,-17.223886,0.560243,-10.984597,10.247424,-0.015963,-0.252221,284.88,3.92,377.61,135.71,-27.85,343.365875,1,1,0,1,0,,,,,,,,
437336,97142.609375,280.63,-17.386692,1.345541,-7.105990,10.183570,0.005321,-0.277762,284.78,3.91,378.94,135.41,-27.79,344.652069,1,1,0,1,0,,,,,,,,
437346,97138.796875,280.61,-16.582241,-1.723825,-6.856993,10.330433,0.027669,-0.278826,284.73,3.91,380.01,134.87,-27.65,344.971679,1,1,0,1,0,,,,,,,,
437356,97104.312500,280.63,-18.066646,2.145204,-13.287818,10.094176,0.022348,-0.236257,284.78,3.92,381.53,134.76,-27.67,347.863006,1,1,0,1,0,,,,,,,,
437366,97119.656250,280.61,-17.247829,0.675164,-6.756437,10.289993,0.012770,-0.253285,284.88,3.91,382.35,133.98,-27.61,346.576416,1,1,0,1,0,,,,,,,,
437376,97085.156250,280.63,-16.390705,-0.426167,-9.141061,10.151643,0.061725,-0.243707,284.53,3.91,383.68,133.71,-27.48,349.469512,1,1,0,1,0,,,,,,,,
437386,97062.203125,280.61,-17.343597,0.512359,-11.573571,10.194212,-0.014899,-0.219230,284.88,3.91,385.16,133.58,-27.45,351.394775,1,1,0,1,0,,,,,,,,
437396,97062.203125,280.61,-16.735469,2.068590,-4.769249,10.122909,0.012770,-0.201138,284.58,3.91,386.27,133.09,-27.36,351.394775,1,1,0,1,0,,,,,,,,
437406,97043.062500,280.61,-16.697162,1.699883,-11.147402,10.071826,0.072367,-0.222423,284.73,3.92,387.50,132.72,-27.28,353.000549,1,1,0,1,0,,,,,,,,
437416,97023.906250,280.61,-17.152061,0.742202,-11.535264,10.081404,0.001064,-0.228808,284.44,3.93,388.82,132.45,-27.25,354.607879,1,1,0,1,0,,,,,,,,
437426,97004.765625,280.61,-16.678009,2.035071,-7.532158,10.086726,-0.014899,-0.233065,284.73,3.94,390.21,132.25,-27.17,356.214141,1,1,0,1,0,,,,,,,,
437436,96985.609375,280.61,-16.673219,-0.263362,-11.894393,10.160158,-0.100037,-0.237322,284.73,3.95,391.65,132.10,-27.11,357.821990,1,1,0,1,0,,,,,,,,
437446,96966.453125,280.61,-16.754623,0.521935,-7.431602,9.954761,-0.069174,-0.168147,284.78,3.95,393.13,131.99,-27.06,359.430084,1,1,0,1,0,,,,,,,,
437456,96947.312500,280.61,-17.180791,3.064578,-8.753201,9.986688,-0.089394,-0.189432,284.68,3.95,394.65,131.91,-27.05,361.037139,1,1,0,1,0,,,,,,,,
437466,96947.312500,280.61,-16.093824,-2.121262,-10.769119,9.926028,-0.064917,-0.188367,284.58,3.96,395.78,131.47,-26.94,361.037139,1,1,0,1,0,,,,,,,,
437476,96947.312500,280.61,-16.931793,0.948103,-9.998186,9.893036,-0.096844,-0.166019,284.78,3.96,396.63,130.75,-26.92,361.037139,1,1,0,1,0,,,,,,,,
437486,96928.156250,280.61,-17.448942,0.684741,-9.672574,9.910064,-0.085138,-0.135156,284.68,3.96,397.67,130.22,-26.95,362.645751,1,1,0,1,0,,,,,,,,
437496,96889.859375,280.61,-16.452953,1.589749,-8.614337,9.874945,-0.031926,-0.158569,284.78,3.96,399.24,130.22,-26.88,365.862426,1,1,0,1,0,,,,,,,,
437506,96870.718750,280.61,-16.242263,2.533065,-7.273584,9.868559,-0.029798,-0.161762,284.88,3.96,400.82,130.23,-26.80,367.470520,1,1,0,1,0,,,,,,,,
437516,96870.718750,280.61,-16.093824,-0.775721,-8.949525,9.821733,0.021284,-0.153248,284.53,3.96,402.01,129.86,-26.72,367.470520,1,1,0,1,0,,,,,,,,
437526,96851.562500,280.61,-16.476896,-0.172382,-9.097966,9.845147,0.012770,-0.157505,284.88,3.96,403.30,129.58,-26.68,369.080139,1,1,0,1,0,,,,,,,,
437536,96832.421875,280.61,-15.964536,1.225831,-6.924031,9.851532,-0.039376,-0.145798,284.68,3.96,404.66,129.40,-26.59,370.688751,1,1,0,1,0,,,,,,,,
437546,96828.609375,280.60,-15.552734,1.422155,-7.603984,9.873881,0.065981,-0.193688,284.73,3.96,405.77,128.96,-26.47,371.009185,1,1,0,1,0,,,,,,,,
437556,96790.312500,280.60,-15.887922,1.182735,-10.223240,9.739788,0.022348,-0.191560,284.68,3.96,407.40,129.03,-26.40,374.228546,1,1,0,1,0,,,,,,,,
437566,96794.125000,280.61,-15.825673,3.055001,-7.627926,9.787679,0.060660,-0.239450,284.68,3.96,408.54,128.63,-26.32,373.908020,1,1,0,1,0,,,,,,,,
437576,96771.171875,280.60,-15.040374,-0.287304,-8.671798,9.734467,0.091523,-0.252221,284.88,3.97,409.88,128.43,-26.18,375.837951,1,1,0,1,0,,,,,,,,
437586,96755.828125,280.61,-15.796942,2.796427,-10.414776,9.727018,0.048954,-0.267120,284.78,3.96,411.20,128.21,-26.13,377.128295,1,1,0,1,0,,,,,,,,
437596,96736.671875,280.61,-15.380351,1.407790,-8.863334,9.713183,-0.005321,-0.287340,284.73,3.96,412.59,128.07,-26.04,378.739501,1,1,0,1,0,,,,,,,,
437606,96732.875000,280.60,-15.452177,-0.823605,-10.213664,9.624853,0.059596,-0.288405,284.68,3.96,413.72,127.66,-25.96,379.058868,1,1,0,1,0,,,,,,,,
437616,96713.718750,280.60,-15.720328,0.344765,-13.397952,9.691898,-0.090459,-0.255414,284.68,3.94,414.96,127.38,-25.92,380.670379,1,1,0,1,0,,,,,,,,
437626,96717.531250,280.61,-15.844826,4.098873,-6.919242,9.535457,-0.052147,-0.249028,284.88,3.94,415.81,126.71,-25.89,380.349639,1,1,0,1,0,,,,,,,,
437636,96679.234375,280.61,-15.945383,1.886630,-10.855310,9.556741,-0.101101,-0.253285,284.68,3.93,417.25,126.62,-25.88,383.571990,1,1,0,1,0,,,,,,,,
437646,96656.281250,280.60,-15.294159,1.403002,-6.799532,9.498209,-0.087266,-0.258606,284.58,3.92,418.81,126.65,-25.81,385.503814,1,1,0,1,0,,,,,,,,
437656,96656.281250,280.60,-15.016432,3.490746,-8.839392,9.419457,-0.042569,-0.263927,284.78,3.92,419.98,126.31,-25.71,385.503814,1,1,0,1,0,,,,,,,,
437666,96637.125000,280.60,-14.877569,-0.081402,-10.151414,9.587604,-0.096844,-0.255414,284.53,3.92,421.26,126.08,-25.61,387.116333,1,1,0,1,0,,,,,,,,
437676,96617.984375,280.60,-15.217545,2.638410,-5.032611,9.545035,-0.061725,-0.262863,284.44,3.92,422.62,125.92,-25.56,388.727813,1,1,0,1,0,,,,,,,,
437686,96598.828125,280.60,-14.997279,2.001552,-9.763554,9.454576,-0.040440,-0.289469,284.78,3.92,424.04,125.83,-25.49,390.340881,1,1,0,1,0,,,,,,,,
437696,96598.828125,280.60,-14.068328,-1.422155,-7.943961,9.509916,-0.147927,-0.285212,284.68,3.91,425.11,125.41,-25.33,390.340881,1,1,0,1,0,,,,,,,,
437706,96579.687500,280.60,-15.351620,1.522712,-6.751648,9.481181,-0.054275,-0.250092,284.73,3.92,426.31,125.10,-25.32,391.952880,1,1,0,1,0,,,,,,,,
437716,96579.687500,280.60,-14.944606,0.512359,-7.790732,9.597182,-0.135156,-0.237322,284.88,3.92,427.21,124.51,-25.26,391.952880,1,1,0,1,0,,,,,,,,
437726,96560.546875,280.60,-14.288595,0.627280,-5.090072,9.442870,-0.051082,-0.222423,284.78,3.91,428.28,124.10,-25.15,393.565124,1,1,0,1,0,,,,,,,,
437736,96522.250000,280.60,-14.800954,-0.090979,-9.203310,9.521622,-0.104294,-0.194753,284.44,3.91,429.88,124.21,-25.10,396.791748,1,1,0,1,0,,,,,,,,
437746,96522.250000,280.60,-14.422670,-0.009576,-5.262455,9.526944,-0.051082,-0.172404,284.53,3.91,431.09,123.93,-25.01,396.791748,1,1,0,1,0,,,,,,,,
437756,96503.093750,280.60,-14.489708,2.312798,-6.617573,9.447127,-0.007449,-0.176661,284.88,3.91,432.40,123.76,-24.95,398.406097,1,1,0,1,0,,,,,,,,
437766,96483.953125,280.60,-14.135366,-0.981622,-10.017339,9.509916,-0.023412,-0.192624,284.73,3.91,433.78,123.65,-24.85,400.019378,1,1,0,1,0,,,,,,,,
437776,96464.796875,280.60,-14.250288,1.029506,-4.194641,9.421585,0.057468,-0.179854,284.53,3.91,435.22,123.61,-24.78,401.634246,1,1,0,1,0,,,,,,,,
437786,96445.656250,280.60,-14.666879,2.092532,-10.352527,9.413071,0.037247,-0.177725,284.88,3.91,436.70,123.61,-24.75,403.248046,1,1,0,1,0,,,,,,,,
437796,96445.656250,280.60,-14.250288,2.111685,-5.276820,9.431162,0.074495,-0.169211,284.68,3.91,437.81,123.24,-24.68,403.248046,1,1,0,1,0,,,,,,,,
437806,96426.500000,280.60,-14.216769,-0.177170,-9.615114,9.434355,0.056403,-0.191560,284.68,3.91,439.05,123.01,-24.62,404.863433,1,1,0,1,0,,,,,,,,
437816,96407.359375,280.60,-13.326126,-1.077390,-3.964797,9.417328,0.045761,-0.209652,284.58,3.94,440.37,122.87,-24.48,406.477783,1,1,0,1,0,,,,,,,,
437826,96388.203125,280.60,-14.604630,2.480392,-11.367669,9.397109,0.092587,-0.226679,284.68,3.94,441.77,122.79,-24.47,408.093688,1,1,0,1,0,,,,,,,,
437836,96388.203125,280.60,-13.512874,-0.565031,-5.176263,9.373695,0.001064,-0.220294,284.78,3.95,442.82,122.38,-24.36,408.093688,1,1,0,1,0,,,,,,,,
437846,96369.062500,280.60,-14.585476,0.205901,-10.936713,9.352411,0.125578,-0.208588,284.68,3.95,444.01,122.11,-24.36,409.708526,1,1,0,1,0,,,,,,,,
437856,96349.906250,280.60,-13.407528,-0.924161,-5.683834,9.354539,0.032990,-0.238386,284.88,3.96,445.30,121.94,-24.25,411.324951,1,1,0,1,0,,,,,,,,
437866,96346.125000,280.58,-14.259864,-2.188300,-11.224017,9.375823,0.097908,-0.247964,284.88,3.96,446.35,121.54,-24.23,411.644042,1,1,0,1,0,,,,,,,,
437876,96311.609375,280.60,-13.752294,-1.067813,-6.205770,9.355604,-0.021284,-0.234129,284.88,3.96,447.86,121.59,-24.17,414.557281,1,1,0,1,0,,,,,,,,
437886,96307.828125,280.58,-13.603854,-0.478840,-7.211335,9.316227,0.092587,-0.233065,284.68,3.96,449.07,121.35,-24.10,414.876464,1,1,0,1,0,,,,,,,,
437896,96311.609375,280.60,-14.834473,1.493981,-9.203310,9.297070,-0.045761,-0.200074,284.73,3.96,449.91,120.73,-24.15,414.557281,1,1,0,1,0,,,,,,,,
437906,96273.328125,280.60,-13.378798,0.507570,-5.597643,9.323677,0.038312,-0.158569,284.73,3.96,451.33,120.71,-24.06,417.789306,1,1,0,1,0,,,,,,,,
437916,96292.468750,280.60,-13.656526,-1.647210,-10.448295,9.283236,-0.006385,-0.166019,284.58,3.96,452.00,119.95,-24.00,416.173156,1,1,0,1,0,,,,,,,,
437926,96269.546875,280.58,-13.910311,-1.273715,-4.936843,9.259822,0.002128,-0.148991,284.88,3.96,452.97,119.50,-23.97,418.108612,1,1,0,1,0,,,,,,,,
437936,96273.328125,280.60,-14.255076,1.398213,-8.106766,9.327933,0.043633,-0.100037,284.78,3.96,453.62,118.73,-23.98,417.789306,1,1,0,1,0,,,,,,,,
437946,96254.171875,280.60,-13.948618,-0.344765,-5.832275,9.349217,0.021284,-0.081945,284.68,3.96,454.51,118.20,-23.95,419.407043,1,1,0,1,0,,,,,,,,
437956,96212.093750,280.58,-12.871228,-3.007117,-5.511452,9.339639,0.008513,-0.111743,284.78,3.96,456.05,118.33,-23.83,422.961425,1,1,0,1,0,,,,,,,,
437966,96192.953125,280.58,-14.226346,1.422155,-6.660668,9.212997,0.118128,-0.089394,284.78,3.97,457.62,118.46,-23.85,424.578643,1,1,0,1,0,,,,,,,,
437976,96177.578125,280.60,-14.116212,0.804451,-8.130708,9.281107,-0.023412,-0.063853,284.88,3.96,459.12,118.53,-23.86,425.877929,1,1,0,1,0,,,,,,,,
437986,96158.437500,280.60,-13.460201,0.569819,-4.869806,9.200226,0.105358,-0.079816,284.73,3.96,460.65,118.63,-23.80,427.495635,1,1,0,1,0,,,,,,,,
437996,96158.437500,280.60,-13.522451,1.924938,-8.461108,9.160850,0.084073,-0.078752,284.88,3.96,461.80,118.36,-23.76,427.495635,1,1,0,1,0,,,,,,,,
438006,96135.515625,280.58,-13.469779,3.078943,-6.200982,9.282172,0.056403,-0.059596,284.73,3.96,463.14,118.28,-23.71,429.433258,1,1,0,1,0,,,,,,,,
438016,96135.515625,280.58,-12.770671,0.483628,-3.763684,9.181071,0.113872,-0.096844,284.68,3.94,464.15,117.89,-23.60,429.433258,1,1,0,1,0,,,,,,,,
438026,96116.359375,280.58,-13.326126,1.675941,-9.050082,9.123601,0.100037,-0.130899,284.88,3.94,465.31,117.64,-23.56,431.052886,1,1,0,1,0,,,,,,,,
438036,96120.140625,280.60,-12.224793,-1.106121,-7.354987,9.101253,0.068110,-0.154312,284.73,3.92,466.10,117.04,-23.41,430.733154,1,1,0,1,0,,,,,,,,
438046,96097.218750,280.58,-12.751518,0.062249,-10.184933,9.019308,0.128771,-0.152184,284.78,3.92,467.17,116.71,-23.33,432.671417,1,1,0,1,0,,,,,,,,
438056,96081.843750,280.60,-12.832921,1.082179,-6.200982,9.096997,0.026605,-0.188367,284.68,3.92,468.29,116.44,-23.26,433.971740,1,1,0,1,0,,,,,,,,
438066,96062.687500,280.60,-13.436259,0.976834,-11.027692,8.982060,0.118128,-0.232001,284.88,3.92,469.54,116.29,-23.26,435.592071,1,1,0,1,0,,,,,,,,
438076,96039.781250,280.58,-13.101071,2.676717,-4.424484,8.940555,-0.002128,-0.226679,284.68,3.92,470.96,116.31,-23.23,437.529937,1,1,0,1,0,,,,,,,,
438086,96039.781250,280.58,-12.799402,0.378283,-7.292738,8.938426,0.055339,-0.252221,284.78,3.91,472.02,115.99,-23.17,437.529937,1,1,0,1,0,,,,,,,,
438096,96020.625000,280.58,-12.899958,1.053448,-9.572018,8.980996,0.045761,-0.237322,284.58,3.92,473.22,115.80,-23.12,439.150848,1,1,0,1,0,,,,,,,,
438106,96020.625000,280.58,-13.211204,1.412578,-10.625467,8.903307,-0.021284,-0.203267,284.73,3.91,474.12,115.32,-23.11,439.150848,1,1,0,1,0,,,,,,,,
438116,96005.250000,280.60,-12.607866,-0.703895,-5.487510,9.016116,-0.044697,-0.205395,284.88,3.92,475.12,114.95,-23.05,440.452026,1,1,0,1,0,,,,,,,,
438126,96001.484375,280.58,-12.823344,0.301669,-8.801085,8.877766,-0.045761,-0.197945,284.73,3.92,475.94,114.41,-23.00,440.770721,1,1,0,1,0,,,,,,,,
438136,95963.187500,280.58,-12.382810,-0.378283,-5.516240,8.897986,-0.064917,-0.177725,284.73,3.92,477.36,114.45,-22.93,444.012542,1,1,0,1,0,,,,,,,,
438146,95963.187500,280.58,-12.904747,0.641646,-8.719682,8.906500,-0.030862,-0.168147,284.44,3.92,478.43,114.15,-22.91,444.012542,1,1,0,1,0,,,,,,,,
438156,95944.031250,280.58,-12.770671,-0.081402,-6.459556,8.824555,-0.071303,-0.122385,284.78,3.91,479.64,113.99,-22.87,445.634490,1,1,0,1,0,,,,,,,,
438166,95944.031250,280.58,-12.684480,1.388636,-7.158662,8.884152,-0.026605,-0.093651,284.88,3.92,480.54,113.54,-22.84,445.634490,1,1,0,1,0,,,,,,,,
438176,95924.890625,280.58,-12.229581,1.331176,-7.551311,8.956518,-0.036183,-0.108550,284.88,3.91,481.62,113.26,-22.76,447.255401,1,1,0,1,0,,,,,,,,
438186,95905.750000,280.58,-12.258312,0.761356,-3.074154,8.844775,-0.037247,-0.083009,284.68,3.91,482.83,113.11,-22.69,448.876556,1,1,0,1,0,,,,,,,,
438196,95886.593750,280.58,-11.927912,-0.756567,-6.234500,8.795821,0.053211,-0.105358,284.44,3.91,484.14,113.07,-22.60,450.499298,1,1,0,1,0,,,,,,,,
438206,95886.593750,280.58,-11.836933,-1.283292,-6.694187,8.904372,-0.007449,-0.109615,284.78,3.91,485.13,112.71,-22.51,450.499298,1,1,0,1,0,,,,,,,,
438216,95848.296875,280.58,-12.033257,0.316034,-3.308786,8.832004,0.080881,-0.128771,284.68,3.94,486.67,112.90,-22.45,453.744262,1,1,0,1,0,,,,,,,,
438226,95848.296875,280.58,-11.851298,0.416591,-8.839392,8.829875,0.051082,-0.155376,284.88,3.94,487.84,112.72,-22.37,453.744262,1,1,0,1,0,,,,,,,,
438236,95829.156250,280.58,-12.229581,3.739742,-4.074931,8.774537,0.062789,-0.126642,284.88,3.95,489.11,112.64,-22.34,455.366485,1,1,0,1,0,,,,,,,,
438246,95810.015625,280.58,-12.430694,1.647210,-8.643068,8.714940,0.080881,-0.147927,284.53,3.96,490.47,112.65,-22.33,456.988952,1,1,0,1,0,,,,,,,,
438256,95810.015625,280.58,-11.769895,0.076614,-7.762001,8.726646,0.063853,-0.179854,284.44,3.95,491.50,112.33,-22.26,456.988952,1,1,0,1,0,,,,,,,,
438266,95790.859375,280.58,-10.893617,-1.503558,-5.166687,8.876702,0.045761,-0.241579,284.73,3.96,492.66,112.17,-22.11,458.613006,1,1,0,1,0,,,,,,,,
438276,95771.718750,280.58,-12.306196,2.987963,-5.913678,8.624481,0.091523,-0.245836,284.88,3.95,493.95,112.10,-22.11,460.235992,1,1,0,1,0,,,,,,,,
438286,95752.562500,280.58,-12.660538,4.295197,-7.168239,8.744738,0.026605,-0.226679,284.73,3.96,495.31,112.12,-22.14,461.860595,1,1,0,1,0,,,,,,,,
438296,95752.562500,280.58,-11.693281,0.076614,-5.281609,8.695783,0.065981,-0.254349,284.58,3.96,496.34,111.81,-22.08,461.860595,1,1,0,1,0,,,,,,,,
438306,95752.562500,280.58,-11.875240,-0.732625,-6.962338,8.729839,0.002128,-0.285212,284.88,3.96,497.11,111.25,-22.04,461.860595,1,1,0,1,0,,,,,,,,
438316,95733.421875,280.58,-12.162544,2.743755,-5.008669,8.624481,0.053211,-0.243707,284.58,3.96,498.09,110.90,-22.03,463.484130,1,1,0,1,0,,,,,,,,
438326,95714.265625,280.58,-11.621455,0.253785,-9.605537,8.581912,0.037247,-0.245836,284.68,3.96,499.22,110.72,-21.98,465.109222,1,1,0,1,0,,,,,,,,
438336,95714.265625,280.58,-11.013327,-1.192312,-6.124367,8.630866,0.011706,-0.242643,284.78,3.96,500.07,110.26,-21.87,465.109222,1,1,0,1,0,,,,,,,,
438346,95695.125000,280.58,-12.272677,-0.062249,-7.848193,8.652151,-0.021284,-0.199010,284.88,3.96,501.11,109.98,-21.89,466.733276,1,1,0,1,0,,,,,,,,
438356,95675.984375,280.58,-10.817003,-2.126051,-4.271255,8.714940,0.005321,-0.226679,284.88,3.96,502.30,109.85,-21.76,468.357604,1,1,0,1,0,,,,,,,,
438366,95675.984375,280.58,-11.343727,-2.269703,-7.829039,8.612773,-0.050018,-0.223487,284.58,3.96,503.18,109.44,-21.71,468.357604,1,1,0,1,0,,,,,,,,
438376,95637.687500,280.58,-11.563994,0.560243,-4.520252,8.619159,-0.017027,-0.164954,284.44,3.96,504.66,109.59,-21.67,471.608337,1,1,0,1,0,,,,,,,,
438386,95637.687500,280.58,-11.501745,1.757344,-7.575253,8.635123,-0.005321,-0.142606,284.68,3.96,505.77,109.39,-21.64,471.608337,1,1,0,1,0,,,,,,,,
438396,95618.531250,280.58,-11.487380,-1.163581,-5.233724,8.615966,-0.028734,-0.140477,284.78,3.96,507.00,109.31,-21.61,473.234771,1,1,0,1,0,,,,,,,,
438406,95618.531250,280.58,-11.075576,-1.288080,-5.023035,8.661728,-0.041504,-0.104294,284.73,3.96,507.93,108.94,-21.54,473.234771,1,1,0,1,0,,,,,,,,
438416,95599.390625,280.58,-10.697293,-1.853112,-5.564124,8.584040,-0.011706,-0.113872,284.68,3.94,509.03,108.75,-21.44,474.860137,1,1,0,1,0,,,,,,,,
438426,95580.250000,280.58,-11.190498,1.197100,-7.819462,8.565948,0.022348,-0.093651,284.73,3.93,510.25,108.67,-21.40,476.485778,1,1,0,1,0,,,,,,,,
438436,95561.093750,280.58,-11.678915,1.824381,-7.795520,8.568077,0.013834,-0.071303,284.73,3.93,511.58,108.69,-21.41,478.112976,1,1,0,1,0,,,,,,,,
438446,95580.250000,280.58,-10.807426,-1.963245,-4.563348,8.617031,-0.012770,-0.080881,284.88,3.92,512.17,108.00,-21.33,476.485778,1,1,0,1,0,,,,,,,,
438456,95541.953125,280.58,-10.553641,-1.800439,-4.917690,8.531892,0.010642,-0.087266,284.88,3.92,513.42,107.96,-21.24,479.739135,1,1,0,1,0,,,,,,,,
438466,95541.953125,280.58,-10.515334,0.679953,-6.684610,8.474425,0.046825,-0.079816,284.58,3.92,514.36,107.62,-21.15,479.739135,1,1,0,1,0,,,,,,,,
438476,95522.796875,280.58,-11.204863,1.661575,-7.431602,8.544664,-0.020220,-0.070238,284.78,3.92,515.47,107.44,-21.13,481.366912,1,1,0,1,0,,,,,,,,
438486,95503.656250,280.58,-10.778696,2.470816,-3.782838,8.403121,0.006385,-0.070238,284.73,3.92,516.70,107.39,-21.08,482.993591,1,1,0,1,0,,,,,,,,
438496,95484.500000,280.58,-10.907982,1.570596,-8.805873,8.426535,0.047890,-0.097908,284.78,3.92,518.03,107.44,-21.05,484.621856,1,1,0,1,0,,,,,,,,
438506,95484.500000,280.58,-10.697293,0.397437,-3.591302,8.486131,-0.031926,-0.090459,284.88,3.92,519.04,107.16,-21.00,484.621856,1,1,0,1,0,,,,,,,,
438516,95465.359375,280.58,-9.907206,-0.167594,-6.684610,8.348846,0.014899,-0.135156,284.68,3.91,520.19,107.04,-20.87,486.249084,1,1,0,1,0,,,,,,,,
438526,95465.359375,280.58,-10.754754,1.819593,-6.866570,8.371194,0.015963,-0.151119,284.58,3.91,521.06,106.64,-20.84,486.249084,1,1,0,1,0,,,,,,,,
438536,95446.218750,280.58,-10.505757,0.062249,-6.555324,8.405250,0.013834,-0.176661,284.88,3.92,522.11,106.42,-20.79,487.876556,1,1,0,1,0,,,,,,,,
438546,95427.062500,280.58,-10.615890,3.476380,-4.879383,8.361617,-0.001064,-0.177725,284.58,3.92,523.30,106.35,-20.76,489.505615,1,1,0,1,0,,,,,,,,
438556,95427.062500,280.58,-10.745177,1.063025,-7.752425,8.306277,0.017027,-0.181982,284.73,3.92,524.20,105.98,-20.74,489.505615,1,1,0,1,0,,,,,,,,
438566,95407.921875,280.58,-10.194510,-0.038307,-6.775590,8.316920,-0.058532,-0.214973,284.78,3.91,525.28,105.80,-20.67,491.133636,1,1,0,1,0,,,,,,,,
438576,95388.765625,280.58,-10.414776,0.248996,-4.678269,8.294570,-0.077688,-0.225615,284.68,3.91,526.49,105.74,-20.62,492.763244,1,1,0,1,0,,,,,,,,
438586,95369.625000,280.58,-10.558429,2.839523,-4.754884,8.312663,-0.089394,-0.205395,284.73,3.91,527.81,105.79,-20.60,494.391784,1,1,0,1,0,,,,,,,,
438596,95369.625000,280.58,-9.878476,0.914585,-4.180275,8.197726,-0.091523,-0.200074,284.73,3.91,528.79,105.53,-20.51,494.391784,1,1,0,1,0,,,,,,,,
438606,95346.734375,280.56,-10.845733,1.225831,-9.576807,8.089175,-0.156441,-0.189432,284.73,3.91,530.02,105.49,-20.53,496.339721,1,1,0,1,0,,,,,,,,
438616,95346.734375,280.56,-10.611102,1.556231,-3.064578,8.239231,-0.133028,-0.193688,284.58,3.93,530.94,105.15,-20.51,496.339721,1,1,0,1,0,,,,,,,,
438626,95327.578125,280.56,-10.376469,0.019153,-7.541735,8.142387,-0.126642,-0.187303,284.53,3.94,532.03,104.99,-20.48,497.970184,1,1,0,1,0,,,,,,,,
438636,95331.328125,280.58,-10.213664,-0.191536,-6.057330,8.146643,-0.168147,-0.194753,284.73,3.95,532.78,104.49,-20.44,497.650970,1,1,0,1,0,,,,,,,,
438646,95312.187500,280.58,-10.630255,2.466027,-3.902548,8.137065,-0.152184,-0.159633,284.58,3.95,533.73,104.21,-20.44,499.280303,1,1,0,1,0,,,,,,,,
438656,95293.031250,280.58,-10.548852,0.378283,-5.961562,8.147707,-0.128771,-0.128771,284.44,3.95,534.86,104.08,-20.43,500.911224,1,1,0,1,0,,,,,,,,
438666,95273.890625,280.58,-10.199298,0.153228,-4.247313,8.167928,-0.110679,-0.136220,284.88,3.96,536.11,104.08,-20.39,502.541107,1,1,0,1,0,,,,,,,,
438676,95270.140625,280.56,-9.787496,0.430956,-2.729389,8.204112,-0.070238,-0.135156,284.88,3.96,537.12,103.86,-20.31,502.860443,1,1,0,1,0,,,,,,,,
438686,95254.734375,280.58,-10.256759,0.861912,-5.530605,8.170056,-0.063853,-0.139413,284.68,3.96,538.21,103.71,-20.29,504.172546,1,1,0,1,0,,,,,,,,
438696,95231.859375,280.56,-9.998186,1.575384,-2.930502,8.176442,-0.027669,-0.135156,284.58,3.96,539.52,103.77,-20.24,506.121063,1,1,0,1,0,,,,,,,,
438706,95235.593750,280.58,-10.299855,1.120486,-5.142745,8.130680,-0.015963,-0.129835,284.73,3.96,540.41,103.44,-20.23,505.802947,1,1,0,1,0,,,,,,,,
438716,95216.453125,280.58,-9.979032,-0.277727,-5.808333,8.153029,0.026605,-0.154312,284.73,3.96,541.49,103.28,-20.19,507.433593,1,1,0,1,0,,,,,,,,
438726,95216.453125,280.58,-9.696516,0.196324,-4.960785,8.187084,0.027669,-0.170276,284.58,3.96,542.30,102.87,-20.12,507.433593,1,1,0,1,0,,,,,,,,
438736,95193.562500,280.56,-9.624691,0.560243,-3.193865,8.177506,0.034055,-0.168147,284.73,3.96,543.39,102.74,-20.05,509.384094,1,1,0,1,0,,,,,,,,
438746,95197.296875,280.58,-9.998186,0.732625,-5.401319,8.116845,0.078752,-0.160697,284.88,3.96,544.13,102.26,-20.03,509.065856,1,1,0,1,0,,,,,,,,
438756,95178.156250,280.58,-9.490615,-1.034295,-6.598419,8.213689,0.029798,-0.189432,284.68,3.96,545.09,102.00,-19.96,510.697052,1,1,0,1,0,,,,,,,,
438766,95159.000000,280.58,-9.212887,0.383072,-1.015141,8.123230,0.067046,-0.177725,284.73,3.96,546.21,101.91,-19.87,512.329833,1,1,0,1,0,,,,,,,,
438776,95159.000000,280.58,-9.615114,0.349553,-7.647079,8.083854,0.084073,-0.192624,284.58,3.96,547.05,101.54,-19.83,512.329833,1,1,0,1,0,,,,,,,,
438786,95120.703125,280.58,-9.294290,-0.541089,-3.260902,8.105138,0.041504,-0.197945,284.68,3.96,548.50,101.77,-19.76,515.594848,1,1,0,1,0,,,,,,,,
438796,95116.968750,280.56,-9.160215,-0.311246,-4.955997,8.054056,0.057468,-0.210716,284.58,3.96,549.66,101.72,-19.68,515.913330,1,1,0,1,0,,,,,,,,
438806,95097.828125,280.56,-9.193734,-0.349553,-3.596090,8.082790,0.050018,-0.210716,284.58,3.96,550.94,101.79,-19.62,517.545593,1,1,0,1,0,,,,,,,,
438816,95082.421875,280.58,-9.509769,0.306457,-6.157886,8.042349,0.054275,-0.210716,284.88,3.94,552.23,101.86,-19.59,518.859619,1,1,0,1,0,,,,,,,,
438826,95082.421875,280.58,-9.246406,-1.154005,-5.655104,8.063633,0.034055,-0.240514,284.93,3.93,553.20,101.62,-19.54,518.859619,1,1,0,1,0,,,,,,,,
438836,95063.265625,280.58,-9.639056,0.421379,-4.611232,8.006165,0.048954,-0.203267,284.68,3.93,554.34,101.54,-19.53,520.493774,1,1,0,1,0,,,,,,,,
438846,95063.265625,280.58,-8.930372,-2.269703,-4.098873,8.030642,0.026605,-0.189432,284.78,3.92,555.18,101.19,-19.45,520.493774,1,1,0,1,0,,,,,,,,
438856,95063.265625,280.58,-9.323020,-1.867477,-4.625597,7.949762,0.077688,-0.207523,284.78,3.92,555.82,100.63,-19.42,520.493774,1,1,0,1,0,,,,,,,,
438866,95044.125000,280.58,-9.720458,0.402225,-5.559336,7.957211,0.045761,-0.188367,284.78,3.92,556.70,100.32,-19.43,522.126831,1,1,0,1,0,,,,,,,,
438876,95021.250000,280.56,-9.840168,0.124498,-6.057330,7.983817,0.061725,-0.172404,284.68,3.92,557.85,100.26,-19.45,524.078857,1,1,0,1,0,,,,,,,,
438886,95024.968750,280.58,-8.485051,-2.121262,-1.039083,8.039156,0.043633,-0.178789,284.68,3.92,558.63,99.86,-19.34,523.761474,1,1,0,1,0,,,,,,,,
438896,95005.828125,280.58,-9.308655,-1.101332,-5.808333,7.949762,0.079816,-0.167083,284.88,3.92,559.62,99.66,-19.32,525.395080,1,1,0,1,0,,,,,,,,
438906,95005.828125,280.58,-9.548076,1.651999,-4.965574,7.871009,0.064917,-0.123450,284.88,3.92,560.36,99.22,-19.32,525.395080,1,1,0,1,0,,,,,,,,
438916,94986.687500,280.58,-8.987833,-0.488417,-5.554547,8.023193,0.045761,-0.141541,284.88,3.91,561.32,99.00,-19.27,527.028930,1,1,0,1,0,,,,,,,,
438926,94982.953125,280.56,-8.863334,-0.167594,-0.545877,8.023193,0.067046,-0.142606,284.73,3.91,562.12,98.63,-19.21,527.347717,1,1,0,1,0,,,,,,,,
438936,94963.796875,280.56,-8.839392,-2.427720,-6.100425,7.941247,0.109615,-0.147927,284.68,3.91,563.12,98.46,-19.16,528.983215,1,1,0,1,0,,,,,,,,
438946,94948.390625,280.58,-9.002198,-0.459686,-5.631162,7.901872,0.113872,-0.145798,284.73,3.91,564.20,98.37,-19.12,530.298767,1,1,0,1,0,,,,,,,,
438956,94929.234375,280.58,-9.457096,2.365471,-5.281609,7.941247,0.063853,-0.106422,284.78,3.91,565.42,98.40,-19.14,531.934753,1,1,0,1,0,,,,,,,,
438966,94906.359375,280.56,-9.145850,0.047884,-2.097320,7.954019,0.130899,-0.135156,284.88,3.92,566.82,98.62,-19.12,533.888671,1,1,0,1,0,,,,,,,,
438976,94906.359375,280.56,-8.700529,0.177170,-6.876147,7.918899,0.089394,-0.146863,284.97,3.91,567.88,98.50,-19.06,533.888671,1,1,0,1,0,,,,,,,,
438986,94906.359375,280.56,-8.595184,0.023942,-3.476380,7.892293,0.077688,-0.145798,284.68,3.91,568.67,98.13,-19.00,533.888671,1,1,0,1,0,,,,,,,,
438996,94890.937500,280.58,-9.035717,-0.062249,-7.307103,7.820991,0.090459,-0.151119,284.68,3.91,569.59,97.88,-18.98,535.206176,1,1,0,1,0,,,,,,,,
439006,94871.796875,280.58,-9.279925,1.551442,-3.648763,7.912514,0.052147,-0.139413,284.88,3.91,570.68,97.80,-18.99,536.841613,1,1,0,1,0,,,,,,,,
439016,94868.078125,280.56,-8.892065,-0.244208,-6.502651,7.812476,0.077688,-0.134092,284.68,3.93,571.58,97.54,-18.96,537.159362,1,1,0,1,0,,,,,,,,
439026,94871.796875,280.58,-8.954314,-1.810016,-6.550535,7.816734,0.038312,-0.166019,284.88,3.94,572.18,96.99,-18.94,536.841613,1,1,0,1,0,,,,,,,,
439036,94848.921875,280.56,-8.595184,-0.837970,-2.676717,7.828440,0.045761,-0.160697,284.58,3.95,573.11,96.76,-18.89,538.796508,1,1,0,1,0,,,,,,,,
439046,94833.500000,280.58,-9.145850,2.317587,-5.324704,7.752880,0.076624,-0.136220,284.44,3.95,574.14,96.63,-18.90,540.114685,1,1,0,1,0,,,,,,,,
439056,94829.781250,280.56,-8.920795,1.283292,-6.291962,7.752880,0.051082,-0.144734,284.73,3.95,574.98,96.33,-18.88,540.432556,1,1,0,1,0,,,,,,,,
439066,94810.625000,280.56,-8.015787,-2.193088,-3.045424,7.756072,0.028734,-0.177725,284.68,3.96,576.03,96.23,-18.78,542.070190,1,1,0,1,0,,,,,,,,
439076,94791.484375,280.56,-8.810662,0.569819,-5.276820,7.691155,0.050018,-0.162826,284.44,3.96,577.22,96.26,-18.76,543.706726,1,1,0,1,0,,,,,,,,
439086,94810.625000,280.56,-8.317456,-1.077390,-6.143521,7.648586,0.054275,-0.188367,284.78,3.96,577.70,95.62,-18.70,542.070190,1,1,0,1,0,,,,,,,,
439096,94772.343750,280.56,-9.313444,1.489193,-8.240841,7.686898,0.022348,-0.169211,284.78,3.96,578.88,95.64,-18.74,545.343627,1,1,0,1,0,,,,,,,,
439106,94776.062500,280.58,-8.853757,1.273715,-3.327940,7.702861,0.003192,-0.163890,284.58,3.96,579.68,95.31,-18.73,545.025573,1,1,0,1,0,,,,,,,,
439116,94772.343750,280.56,-7.704540,-2.006340,-2.695871,7.661357,0.024477,-0.167083,284.78,3.96,580.36,94.86,-18.61,545.343627,1,1,0,1,0,,,,,,,,
439126,94753.187500,280.56,-8.552088,-0.043095,-5.372588,7.598567,0.028734,-0.160697,284.78,3.96,581.28,94.65,-18.59,546.982055,1,1,0,1,0,,,,,,,,
439136,94737.765625,280.58,-7.977479,-1.173158,-5.406107,7.598567,0.018091,-0.162826,284.73,3.96,582.29,94.54,-18.51,548.301269,1,1,0,1,0,,,,,,,,
439146,94714.906250,280.56,-8.365340,-0.751779,-7.508216,7.625173,-0.002128,-0.174532,284.68,3.96,583.54,94.65,-18.48,550.257080,1,1,0,1,0,,,,,,,,
439156,94718.625000,280.58,-8.207323,0.292092,-1.561019,7.632622,-0.020220,-0.144734,284.78,3.96,584.40,94.38,-18.44,549.938903,1,1,0,1,0,,,,,,,,
439166,94718.625000,280.58,-8.576030,0.651222,-5.540182,7.570897,0.010642,-0.128771,284.88,3.96,585.04,93.91,-18.43,549.938903,1,1,0,1,0,,,,,,,,
439176,94699.468750,280.58,-8.576030,1.058237,-3.174711,7.639008,-0.005321,-0.108550,284.68,3.96,585.93,93.68,-18.42,551.578063,1,1,0,1,0,,,,,,,,
439186,94680.328125,280.58,-8.197746,-1.489193,-4.338293,7.547484,-0.036183,-0.105358,284.88,3.96,587.00,93.63,-18.38,553.216186,1,1,0,1,0,,,,,,,,
439196,94680.328125,280.58,-8.580819,1.259350,-2.566584,7.537907,-0.006385,-0.104294,284.73,3.96,587.81,93.32,-18.38,553.216186,1,1,0,1,0,,,,,,,,
439206,94657.453125,280.56,-8.283937,-1.307234,-5.329493,7.500658,0.013834,-0.101101,284.58,3.96,588.90,93.29,-18.36,555.174316,1,1,0,1,0,,,,,,,,
439216,94642.031250,280.58,-8.532935,1.177947,-4.673481,7.588989,0.030862,-0.097908,284.68,3.94,590.04,93.32,-18.35,556.494628,1,1,0,1,0,,,,,,,,
439226,94642.031250,280.58,-8.068459,0.924161,-4.228159,7.597503,0.027669,-0.101101,284.58,3.94,590.90,93.07,-18.31,556.494628,1,1,0,1,0,,,,,,,,
439236,94622.890625,280.58,-7.876923,0.148440,-4.180275,7.545356,0.019156,-0.097908,284.58,3.93,591.96,93.01,-18.25,558.133544,1,1,0,1,0,,,,,,,,
439246,94622.890625,280.58,-8.130708,1.350329,-3.797203,7.482566,-0.004256,-0.095780,284.68,3.92,592.75,92.69,-18.22,558.133544,1,1,0,1,0,,,,,,,,
439256,94622.890625,280.58,-7.814674,0.181959,-5.272032,7.462346,0.037247,-0.108550,284.78,3.92,593.34,92.19,-18.16,558.133544,1,1,0,1,0,,,,,,,,
439266,94580.875000,280.56,-8.145073,1.029506,-3.979163,7.497466,0.023412,-0.118128,284.73,3.92,594.68,92.41,-18.14,561.732116,1,1,0,1,0,,,,,,,,
439276,94584.593750,280.58,-7.479485,0.354341,-4.788403,7.459154,0.015963,-0.153248,284.78,3.92,595.60,92.24,-18.06,561.413574,1,1,0,1,0,,,,,,,,
439286,94584.593750,280.58,-8.140285,2.418143,-4.778826,7.371887,0.037247,-0.142606,284.93,3.92,596.30,91.84,-18.05,561.413574,1,1,0,1,0,,,,,,,,
439296,94565.437500,280.58,-8.475473,1.163581,-6.086060,7.400622,0.001064,-0.138349,284.78,3.92,597.22,91.67,-18.07,563.054626,1,1,0,1,0,,,,,,,,
439306,94546.296875,280.58,-7.570465,0.239420,-2.901772,7.459154,0.022348,-0.164954,284.78,3.92,598.33,91.68,-18.00,564.694641,1,1,0,1,0,,,,,,,,
439316,94546.296875,280.58,-7.876923,-0.229843,-5.267243,7.377208,0.021284,-0.185175,284.78,3.91,599.15,91.41,-17.97,564.694641,1,1,0,1,0,,,,,,,,
439326,94546.296875,280.58,-7.924807,1.149216,-3.399766,7.435741,-0.007449,-0.179854,284.58,3.91,599.77,90.95,-17.95,564.694641,1,1,0,1,0,,,,,,,,
439336,94542.578125,280.56,-7.627926,0.837970,-4.764461,7.320805,0.006385,-0.177725,284.73,3.92,600.32,90.42,-17.90,565.013305,1,1,0,1,0,,,,,,,,
439346,94527.156250,280.58,-7.445967,-1.996764,-5.808333,7.348474,-0.028734,-0.221358,284.93,3.91,601.05,90.08,-17.83,566.334899,1,1,0,1,0,,,,,,,,
439356,94504.296875,280.56,-8.082824,0.248996,-3.002328,7.416584,-0.032990,-0.230936,284.88,3.91,602.08,90.03,-17.84,568.294250,1,1,0,1,0,,,,,,,,
439366,94485.140625,280.56,-7.694963,0.895431,-2.686294,7.336768,-0.030862,-0.212845,284.88,3.91,603.27,90.13,-17.81,569.936462,1,1,0,1,0,,,,,,,,
439376,94488.859375,280.58,-7.556100,-0.062249,-4.036623,7.286749,0.000000,-0.218166,284.88,3.92,604.08,89.87,-17.77,569.617614,1,1,0,1,0,,,,,,,,
439386,94485.140625,280.56,-7.738059,-0.790086,-5.760449,7.279300,-0.024477,-0.216037,284.68,3.92,604.77,89.49,-17.74,569.936462,1,1,0,1,0,,,,,,,,
439396,94469.703125,280.58,-7.747636,0.296881,-3.643975,7.325061,-0.069174,-0.172404,284.78,3.91,605.61,89.27,-17.72,571.260070,1,1,0,1,0,,,,,,,,
439406,94450.562500,280.58,-7.546523,-0.986411,-4.821922,7.220767,-0.037247,-0.170276,284.78,3.91,606.65,89.24,-17.69,572.901428,1,1,0,1,0,,,,,,,,
439416,94450.562500,280.58,-7.393294,-1.556231,-4.845864,7.249502,-0.075559,-0.167083,284.78,3.93,607.43,88.96,-17.64,572.901428,1,1,0,1,0,,,,,,,,
439426,94431.406250,280.58,-7.939172,0.426167,-4.309563,7.263336,-0.037247,-0.138349,284.68,3.94,608.43,88.88,-17.65,574.544372,1,1,0,1,0,,,,,,,,
439436,94412.265625,280.58,-7.776367,-0.023942,-3.217807,7.322933,-0.068110,-0.135156,284.53,3.94,609.58,88.96,-17.65,576.186279,1,1,0,1,0,,,,,,,,
439446,94412.265625,280.58,-7.426813,-0.411802,-1.604115,7.254823,-0.029798,-0.125578,284.88,3.95,610.45,88.77,-17.61,576.186279,1,1,0,1,0,,,,,,,,
439456,94393.125000,280.58,-7.541735,-0.196324,-5.243301,7.203740,-0.007449,-0.119193,284.73,3.95,611.51,88.76,-17.58,577.828430,1,1,0,1,0,,,,,,,,
439466,94389.406250,280.56,-7.378929,-0.565031,-4.079719,7.232474,-0.014899,-0.120257,284.78,3.96,612.38,88.58,-17.54,578.147521,1,1,0,1,0,,,,,,,,
439476,94389.406250,280.56,-7.489062,-0.972045,-3.658340,7.232474,-0.004256,-0.106422,284.73,3.96,613.04,88.18,-17.52,578.147521,1,1,0,1,0,,,,,,,,
439486,94373.968750,280.58,-7.474697,0.047884,-3.801992,7.231410,0.010642,-0.101101,284.68,3.96,613.86,87.95,-17.50,579.472229,1,1,0,1,0,,,,,,,,
439496,94351.125000,280.56,-7.268796,-1.733402,-4.362235,7.200547,0.025541,-0.110679,284.53,3.96,614.96,87.99,-17.46,581.432739,1,1,0,1,0,,,,,,,,
439506,94335.671875,280.58,-7.316680,0.905008,-3.849876,7.203740,0.029798,-0.098972,284.73,3.96,616.12,88.09,-17.42,582.759216,1,1,0,1,0,,,,,,,,
439516,94351.125000,280.56,-7.364564,0.459686,-5.003881,7.168621,0.032990,-0.088330,284.88,3.96,616.65,87.59,-17.40,581.432739,1,1,0,1,0,,,,,,,,
439526,94335.671875,280.58,-7.043741,-0.292092,-4.046200,7.198419,-0.004256,-0.091523,284.58,3.96,617.39,87.28,-17.35,582.759216,1,1,0,1,0,,,,,,,,
439536,94312.828125,280.56,-6.981492,0.038307,-0.852335,7.250566,0.010642,-0.090459,284.73,3.96,618.42,87.27,-17.29,584.720397,1,1,0,1,0,,,,,,,,
439546,94293.671875,280.56,-7.019799,0.177170,-5.410895,7.153721,0.043633,-0.095780,284.68,3.96,619.61,87.41,-17.25,586.365356,1,1,0,1,0,,,,,,,,
439556,94293.671875,280.56,-7.010222,-0.531512,-4.888959,7.150528,-0.006385,-0.086202,284.88,3.96,620.50,87.26,-17.21,586.365356,1,1,0,1,0,,,,,,,,
439566,94297.375000,280.58,-7.182604,1.048660,-2.537853,7.116474,0.007449,-0.075559,284.73,3.96,621.09,86.82,-17.19,586.047302,1,1,0,1,0,,,,,,,,
439576,94274.531250,280.56,-6.924031,0.679953,-5.056553,7.135629,0.008513,-0.085138,284.73,3.96,622.02,86.71,-17.14,588.009155,1,1,0,1,0,,,,,,,,
439586,94274.531250,280.56,-7.522581,1.905784,-2.542642,7.083482,0.004256,-0.072367,284.78,3.96,622.72,86.37,-17.16,588.009155,1,1,0,1,0,,,,,,,,
439596,94236.234375,280.56,-6.756437,-0.023942,-4.309563,7.102638,-0.019156,-0.090459,284.88,3.96,624.06,86.67,-17.10,591.299011,1,1,0,1,0,,,,,,,,
439606,94236.234375,280.56,-7.182604,-0.105344,-3.390189,7.043042,0.006385,-0.096844,284.73,3.96,625.07,86.63,-17.09,591.299011,1,1,0,1,0,,,,,,,,
439616,94217.093750,280.56,-7.120355,1.154005,-2.628833,7.079226,-0.004256,-0.104294,284.58,3.94,626.23,86.76,-17.08,592.943664,1,1,0,1,0,,,,,,,,
439626,94217.093750,280.56,-6.847416,0.019153,-4.443638,7.014308,0.010642,-0.107486,284.88,3.94,627.11,86.60,-17.04,592.943664,1,1,0,1,0,,,,,,,,
439636,94217.093750,280.56,-6.947973,-0.268150,-3.093308,6.967482,-0.028734,-0.110679,284.73,3.93,627.77,86.23,-17.01,592.943664,1,1,0,1,0,,,,,,,,
439646,94197.953125,280.56,-6.991068,0.569819,-4.869806,6.954711,-0.021284,-0.118128,284.88,3.92,628.67,86.10,-16.99,594.588562,1,1,0,1,0,,,,,,,,
439656,94182.500000,280.58,-6.727706,0.014365,-2.925714,7.015372,-0.006385,-0.122385,284.73,3.92,629.67,86.07,-16.95,595.916748,1,1,0,1,0,,,,,,,,
439666,94178.796875,280.56,-6.928819,0.277727,-4.247313,6.950454,-0.025541,-0.138349,284.68,3.92,630.51,85.88,-16.92,596.235107,1,1,0,1,0,,,,,,,,
439676,94163.359375,280.58,-6.742072,0.038307,-2.992752,6.939812,-0.031926,-0.139413,284.88,3.92,631.46,85.81,-16.89,597.562194,1,1,0,1,0,,,,,,,,
439686,94163.359375,280.58,-7.038952,0.928950,-2.240972,6.949390,-0.002128,-0.130899,284.73,3.92,632.18,85.51,-16.88,597.562194,1,1,0,1,0,,,,,,,,
439696,94140.500000,280.56,-6.742072,-0.363918,-3.849876,6.925977,0.006385,-0.133028,284.78,3.91,633.21,85.51,-16.85,599.527648,1,1,0,1,0,,,,,,,,
439706,94163.359375,280.58,-6.703764,0.881066,-3.337517,6.914270,0.032990,-0.127707,284.53,3.91,633.49,84.78,-16.82,597.562194,1,1,0,1,0,,,,,,,,
439716,94121.359375,280.56,-6.622361,-0.397437,-5.214570,6.924913,0.003192,-0.130899,284.68,3.91,634.59,84.87,-16.78,601.173645,1,1,0,1,0,,,,,,,,
439726,94105.906250,280.58,-6.315904,-0.057460,-1.335964,6.945133,0.019156,-0.148991,284.68,3.91,635.75,85.01,-16.72,602.502746,1,1,0,1,0,,,,,,,,
439736,94105.906250,280.58,-6.478709,-0.574608,-3.366247,6.898307,0.024477,-0.140477,284.58,3.92,636.63,84.87,-16.68,602.502746,1,1,0,1,0,,,,,,,,
439746,94083.062500,280.56,-6.622361,-0.603338,-4.309563,6.846160,0.054275,-0.145798,284.58,3.91,637.77,84.99,-16.65,604.467773,1,1,0,1,0,,,,,,,,
439756,94083.062500,280.56,-6.871358,0.967257,-3.663128,6.964289,0.032990,-0.138349,284.68,3.91,638.63,84.84,-16.66,604.467773,1,1,0,1,0,,,,,,,,
439766,94102.218750,280.56,-6.387730,-0.900219,-3.198653,6.885537,0.051082,-0.138349,284.73,3.91,638.87,84.08,-16.61,602.819885,1,1,0,1,0,,,,,,,,
439776,94063.921875,280.56,-6.488286,0.062249,-3.806780,6.911078,0.030862,-0.151119,284.78,3.91,639.86,84.06,-16.58,606.114624,1,1,0,1,0,,,,,,,,
439786,94067.609375,280.58,-6.540958,0.689530,-3.016694,6.830196,0.018091,-0.122385,284.73,3.91,640.52,83.73,-16.56,605.797302,1,1,0,1,0,,,,,,,,
439796,94044.781250,280.56,-6.402095,-0.320823,-4.352658,6.873830,0.046825,-0.126642,284.53,3.91,641.51,83.71,-16.52,607.761718,1,1,0,1,0,,,,,,,,
439806,94044.781250,280.56,-6.708552,0.536301,-4.319139,6.873830,0.022348,-0.106422,284.88,3.91,642.25,83.45,-16.52,607.761718,1,1,0,1,0,,,,,,,,
439816,94044.781250,280.56,-6.224924,-1.034295,-2.724601,6.847224,0.028734,-0.107486,284.78,3.93,642.80,83.02,-16.47,607.761718,1,1,0,1,0,,,,,,,,
439826,94025.625000,280.56,-6.507440,0.469263,-2.695871,6.813169,0.022348,-0.103229,284.73,3.94,643.63,82.85,-16.46,609.410400,1,1,0,1,0,,,,,,,,
439836,94006.484375,280.56,-6.220135,0.244208,-3.720589,6.770600,0.059596,-0.097908,284.58,3.94,644.65,82.88,-16.42,611.058044,1,1,0,1,0,,,,,,,,
439846,94006.484375,280.56,-6.631938,0.205901,-5.152321,6.821683,0.029798,-0.111743,284.58,3.95,645.42,82.66,-16.42,611.058044,1,1,0,1,0,,,,,,,,
439856,94006.484375,280.56,-6.493074,1.297657,-1.924938,6.784435,0.023412,-0.109615,284.68,3.95,646.00,82.26,-16.41,611.058044,1,1,0,1,0,,,,,,,,
439866,93987.328125,280.56,-6.071695,-0.742202,-3.797203,6.734416,0.014899,-0.116000,284.78,3.96,646.84,82.12,-16.36,612.707275,1,1,0,1,0,,,,,,,,
439876,93971.875000,280.58,-6.301538,0.488417,-2.413355,6.767407,0.034055,-0.123450,284.68,3.95,647.81,82.10,-16.33,614.037902,1,1,0,1,0,,,,,,,,
439886,93949.046875,280.56,-6.157886,0.205901,-4.740519,6.697168,0.018091,-0.135156,284.73,3.96,649.02,82.32,-16.30,616.003906,1,1,0,1,0,,,,,,,,
439896,93949.046875,280.56,-6.191405,0.100556,-2.853888,6.753572,0.039376,-0.151119,284.78,3.96,649.93,82.24,-16.27,616.003906,1,1,0,1,0,,,,,,,,
439906,93949.046875,280.56,-6.354211,0.593762,-4.290409,6.721645,0.010642,-0.138349,284.73,3.96,650.61,81.95,-16.26,616.003906,1,1,0,1,0,,,,,,,,
439916,93929.890625,280.56,-6.478709,1.173158,-1.532289,6.711004,0.029798,-0.127707,284.78,3.96,651.54,81.89,-16.26,617.653991,1,1,0,1,0,,,,,,,,
439926,93929.890625,280.56,-6.224924,-0.138863,-4.673481,6.703554,0.021284,-0.131963,284.68,3.96,652.23,81.60,-16.24,617.653991,1,1,0,1,0,,,,,,,,
439936,93910.750000,280.56,-5.832275,-1.043871,-2.896984,6.712068,0.019156,-0.148991,284.78,3.96,653.16,81.56,-16.18,619.302978,1,1,0,1,0,,,,,,,,
439946,93910.750000,280.56,-6.512228,0.976834,-3.404554,6.713132,0.015963,-0.146863,284.68,3.96,653.86,81.28,-16.19,619.302978,1,1,0,1,0,,,,,,,,
439956,93891.609375,280.56,-6.368576,1.584961,-3.366247,6.637572,0.002128,-0.134092,284.73,3.96,654.79,81.23,-16.19,620.952209,1,1,0,1,0,,,,,,,,
439966,93910.750000,280.56,-5.564124,-0.593762,-3.356670,6.632251,-0.012770,-0.155376,284.78,3.96,655.08,80.57,-16.11,619.302978,1,1,0,1,0,,,,,,,,
439976,93872.453125,280.56,-6.191405,0.263362,-3.059789,6.645021,0.011706,-0.154312,284.78,3.96,656.11,80.63,-16.10,622.603088,1,1,0,1,0,,,,,,,,
439986,93872.453125,280.56,-5.971138,-0.277727,-3.998316,6.601388,-0.044697,-0.150055,284.73,3.96,656.89,80.45,-16.07,622.603088,1,1,0,1,0,,,,,,,,
439996,93872.453125,280.56,-6.153098,0.411802,-2.978386,6.591810,0.005321,-0.154312,284.58,3.96,657.47,80.07,-16.06,622.603088,1,1,0,1,0,,,,,,,,
440006,93853.312500,280.56,-6.406883,0.957680,-4.472368,6.622673,-0.036183,-0.140477,284.78,3.96,658.31,79.95,-16.07,624.252929,1,1,0,1,0,,,,,,,,
440016,93834.171875,280.56,-5.894524,0.569819,-0.909796,6.658857,-0.035119,-0.153248,284.88,3.94,659.36,80.03,-16.04,625.902954,1,1,0,1,0,,,,,,,,
440026,93834.171875,280.56,-6.105214,0.847547,-3.485957,6.588617,0.020220,-0.160697,284.78,3.93,660.14,79.86,-16.02,625.902954,1,1,0,1,0,,,,,,,,
440036,93815.015625,280.56,-6.033388,-0.349553,-3.533841,6.600324,-0.037247,-0.146863,284.73,3.93,661.14,79.90,-16.01,627.554687,1,1,0,1,0,,,,,,,,
440046,93815.015625,280.56,-5.918466,0.656011,-1.867477,6.609902,-0.020220,-0.148991,284.58,3.92,661.89,79.69,-15.98,627.554687,1,1,0,1,0,,,,,,,,
440056,93799.562500,280.58,-5.731718,-0.646434,-3.706224,6.511993,-0.028734,-0.138349,284.73,3.92,662.79,79.63,-15.94,628.887268,1,1,0,1,0,,,,,,,,
440066,93795.875000,280.56,-5.908889,0.842759,-3.562572,6.516250,-0.018091,-0.120257,284.58,3.92,663.54,79.43,-15.92,629.205322,1,1,0,1,0,,,,,,,,
440076,93795.875000,280.56,-5.688622,0.536301,-2.624045,6.520507,-0.050018,-0.112807,284.68,3.92,664.10,79.05,-15.87,629.205322,1,1,0,1,0,,,,,,,,
440086,93776.718750,280.56,-5.798756,0.043095,-2.667140,6.460910,-0.005321,-0.120257,284.73,3.92,664.93,78.93,-15.85,630.857543,1,1,0,1,0,,,,,,,,
440096,93776.718750,280.56,-6.229712,0.641646,-4.046200,6.494966,-0.021284,-0.120257,284.68,3.92,665.55,78.61,-15.87,630.857543,1,1,0,1,0,,,,,,,,
440106,93757.578125,280.56,-5.971138,0.737414,-2.619256,6.497094,-0.012770,-0.117064,284.53,3.92,666.43,78.54,-15.86,632.508728,1,1,0,1,0,,,,,,,,
440116,93757.578125,280.56,-6.038176,0.493205,-2.398990,6.451333,0.011706,-0.119193,284.58,3.91,667.09,78.26,-15.85,632.508728,1,1,0,1,0,,,,,,,,
440126,93757.578125,280.56,-5.406107,-0.488417,-2.135627,6.522635,0.008513,-0.139413,284.78,3.92,667.58,77.83,-15.79,632.508728,1,1,0,1,0,,,,,,,,
440136,93738.437500,280.56,-5.889736,0.751779,-4.946420,6.389607,0.019156,-0.133028,284.53,3.91,668.36,77.67,-15.78,634.160156,1,1,0,1,0,,,,,,,,
440146,93719.281250,280.56,-5.343858,-0.675164,-3.040636,6.508801,0.015963,-0.154312,284.88,3.91,669.35,77.73,-15.72,635.813232,1,1,0,1,0,,,,,,,,
440156,93700.140625,280.56,-5.439626,-0.497993,-3.275267,6.491773,0.001064,-0.167083,284.78,3.92,670.51,77.95,-15.68,637.465209,1,1,0,1,0,,,,,,,,
440166,93700.140625,280.56,-5.588066,1.063025,-1.575384,6.448140,0.001064,-0.158569,284.68,3.91,671.38,77.88,-15.65,637.465209,1,1,0,1,0,,,,,,,,
440176,93700.140625,280.56,-5.722141,0.124498,-3.964797,6.386415,0.010642,-0.155376,284.78,3.91,672.04,77.61,-15.64,637.465209,1,1,0,1,0,,,,,,,,
440186,93681.000000,280.56,-5.626373,-0.148440,-3.682282,6.447076,0.007449,-0.166019,284.78,3.91,672.94,77.57,-15.62,639.117492,1,1,0,1,0,,,,,,,,
440196,93681.000000,280.56,-5.688622,1.063025,-2.331952,6.467296,0.003192,-0.162826,284.73,3.91,673.61,77.32,-15.61,639.117492,1,1,0,1,0,,,,,,,,
440206,93681.000000,280.56,-5.272032,0.014365,-1.096544,6.408763,0.020220,-0.151119,284.78,3.91,674.12,76.91,-15.56,639.117492,1,1,0,1,0,,,,,,,,
440216,93661.843750,280.56,-5.358223,-1.120486,-6.114790,6.347038,0.001064,-0.150055,284.58,3.93,674.91,76.78,-15.52,640.771362,1,1,0,1,0,,,,,,,,
440226,93661.843750,280.56,-5.525817,0.387860,-1.288080,6.415149,-0.011706,-0.166019,284.68,3.94,675.50,76.45,-15.50,640.771362,1,1,0,1,0,,,,,,,,
440236,93642.703125,280.56,-5.736507,0.402225,-3.873818,6.366195,-0.005321,-0.142606,284.73,3.94,676.35,76.39,-15.50,642.424194,1,1,0,1,0,,,,,,,,
440246,93642.703125,280.56,-5.410895,0.167594,-2.231395,6.382158,-0.006385,-0.144734,284.78,3.95,676.99,76.11,-15.47,642.424194,1,1,0,1,0,,,,,,,,
440256,93623.546875,280.56,-5.286397,0.282515,-2.336740,6.372580,-0.010642,-0.152184,284.53,3.96,677.88,76.09,-15.44,644.078613,1,1,0,1,0,,,,,,,,
440266,93623.546875,280.56,-5.410895,-0.215478,-3.485957,6.302341,-0.008513,-0.138349,284.68,3.96,678.55,75.85,-15.42,644.078613,1,1,0,1,0,,,,,,,,
440276,93623.546875,280.56,-5.382165,-0.550666,-3.476380,6.290635,-0.004256,-0.138349,284.68,3.96,679.05,75.44,-15.39,644.078613,1,1,0,1,0,,,,,,,,
440286,93604.406250,280.56,-5.559336,0.277727,-3.462015,6.337460,-0.006385,-0.140477,284.78,3.96,679.84,75.32,-15.39,645.731994,1,1,0,1,0,,,,,,,,
440296,93604.406250,280.56,-5.305551,-0.244208,-1.063025,6.323626,-0.015963,-0.125578,284.88,3.96,680.42,75.01,-15.36,645.731994,1,1,0,1,0,,,,,,,,
440306,93585.265625,280.56,-5.310339,0.114921,-2.365471,6.210818,-0.005321,-0.117064,284.58,3.96,681.28,74.96,-15.34,647.385620,1,1,0,1,0,,,,,,,,
440316,93585.265625,280.56,-5.214570,-1.139639,-3.701435,6.228909,0.002128,-0.123450,284.73,3.96,681.91,74.70,-15.31,647.385620,1,1,0,1,0,,,,,,,,
440326,93566.109375,280.56,-5.171475,-0.612915,-3.303998,6.277864,-0.003192,-0.116000,284.68,3.96,682.80,74.69,-15.28,649.040893,1,1,0,1,0,,,,,,,,
440336,93546.968750,280.56,-5.190629,-0.445321,-1.335964,6.275735,-0.005321,-0.112807,284.88,3.96,683.88,74.86,-15.25,650.695068,1,1,0,1,0,,,,,,,,
440346,93546.968750,280.56,-5.147533,-0.689530,-3.524264,6.241680,-0.018091,-0.106422,284.73,3.96,684.70,74.78,-15.22,650.695068,1,1,0,1,0,,,,,,,,
440356,93546.968750,280.56,-5.597643,1.034295,-2.992752,6.212946,-0.002128,-0.092587,284.68,3.97,685.31,74.49,-15.24,650.695068,1,1,0,1,0,,,,,,,,
440366,93508.671875,280.56,-5.133168,-0.732625,-2.279279,6.264029,0.019156,-0.105358,284.53,3.96,686.59,74.86,-15.21,654.005615,1,1,0,1,0,,,,,,,,
440376,93527.828125,280.56,-5.137956,-0.148440,-4.462791,6.188469,0.011706,-0.097908,284.68,3.96,687.14,74.52,-15.19,652.349487,1,1,0,1,0,,,,,,,,
440386,93508.671875,280.56,-5.080495,-0.325611,-2.983175,6.232102,-0.021284,-0.083009,284.73,3.96,687.96,74.45,-15.16,654.005615,1,1,0,1,0,,,,,,,,
440396,93512.343750,280.58,-4.893748,-0.450109,-1.225831,6.239552,-0.021284,-0.072367,284.78,3.96,688.50,74.10,-15.11,653.688110,1,1,0,1,0,,,,,,,,
440406,93489.531250,280.56,-5.224147,0.047884,-3.074154,6.203368,0.005321,-0.067046,284.78,3.96,689.40,74.10,-15.10,655.660583,1,1,0,1,0,,,,,,,,
440416,93489.531250,280.56,-5.367800,1.000776,-2.542642,6.186341,-0.008513,-0.071303,284.58,3.94,690.07,73.88,-15.11,655.660583,1,1,0,1,0,,,,,,,,
440426,93489.531250,280.56,-5.094861,-0.416591,-3.083731,6.154414,-0.008513,-0.062789,284.73,3.94,690.57,73.50,-15.09,655.660583,1,1,0,1,0,,,,,,,,
440436,93470.375000,280.56,-4.774038,-1.235408,-4.984727,6.154414,-0.002128,-0.073431,284.73,3.93,691.36,73.40,-15.04,657.317199,1,1,0,1,0,,,,,,,,
440446,93451.234375,280.56,-5.157110,0.723048,-1.891419,6.199111,-0.013834,-0.070238,284.68,3.92,692.36,73.52,-15.03,658.972778,1,1,0,1,0,,,,,,,,
440456,93470.375000,280.56,-5.085284,0.052672,-3.663128,6.150157,-0.025541,-0.058532,284.73,3.92,692.70,72.99,-15.02,657.317199,1,1,0,1,0,,,,,,,,
440466,93451.234375,280.56,-4.965574,0.387860,-1.647210,6.129936,-0.027669,-0.047890,284.78,3.92,693.36,72.77,-14.99,658.972778,1,1,0,1,0,,,,,,,,
440476,93454.906250,280.58,-5.147533,0.019153,-3.691859,6.112909,-0.039376,-0.041504,284.73,3.92,693.78,72.33,-14.99,658.655151,1,1,0,1,0,,,,,,,,
440486,93412.937500,280.56,-4.817133,-0.727837,-1.829170,6.075661,-0.023412,-0.047890,284.58,3.92,695.00,72.66,-14.96,662.286071,1,1,0,1,0,,,,,,,,
440496,93412.937500,280.56,-4.917690,-0.450109,-4.007893,6.045863,-0.021284,-0.054275,284.58,3.92,695.91,72.69,-14.93,662.286071,1,1,0,1,0,,,,,,,,
440506,93412.937500,280.56,-5.190629,0.349553,-4.242525,6.073533,-0.007449,-0.043633,284.88,3.91,696.60,72.51,-14.94,662.286071,1,1,0,1,0,,,,,,,,
440516,93393.796875,280.56,-4.865017,-0.287304,-1.953668,6.101202,-0.003192,-0.057468,284.73,3.92,697.53,72.56,-14.91,663.942443,1,1,0,1,0,,,,,,,,
440526,93393.796875,280.56,-5.003881,-0.450109,-3.696647,6.061826,0.014899,-0.057468,284.78,3.91,698.22,72.38,-14.90,663.942443,1,1,0,1,0,,,,,,,,
440536,93393.796875,280.56,-4.951209,0.292092,-2.298433,6.043734,0.005321,-0.053211,284.88,3.91,698.75,72.04,-14.89,663.942443,1,1,0,1,0,,,,,,,,
440546,93374.656250,280.56,-4.874594,0.301669,-3.394978,6.061826,0.009578,-0.063853,284.78,3.92,699.55,71.97,-14.87,665.599060,1,1,0,1,0,,,,,,,,
440556,93374.656250,280.56,-4.673481,-0.306457,-1.134851,6.084175,0.004256,-0.072367,284.78,3.91,700.15,71.71,-14.83,665.599060,1,1,0,1,0,,,,,,,,
440566,93359.171875,280.58,-4.965574,0.330399,-3.414131,6.004358,0.012770,-0.068110,284.58,3.92,700.93,71.63,-14.83,666.939453,1,1,0,1,0,,,,,,,,
440576,93336.359375,280.56,-4.989516,0.962469,-3.078943,5.983074,0.023412,-0.070238,284.88,3.91,702.01,71.83,-14.82,668.914550,1,1,0,1,0,,,,,,,,
440586,93355.500000,280.56,-4.869806,0.363918,-2.461239,6.082046,0.010642,-0.085138,284.78,3.91,702.41,71.38,-14.81,667.257385,1,1,0,1,0,,,,,,,,
440596,93336.359375,280.56,-4.893748,-0.584185,-1.527500,6.025642,0.015963,-0.092587,284.78,3.91,703.12,71.23,-14.80,668.914550,1,1,0,1,0,,,,,,,,
440606,93336.359375,280.56,-4.534617,0.033518,-2.312798,5.966046,0.021284,-0.094716,284.78,3.91,703.65,70.91,-14.75,668.914550,1,1,0,1,0,,,,,,,,
440616,93317.203125,280.56,-4.951209,0.588973,-4.448426,5.985202,0.027669,-0.083009,284.88,3.94,704.46,70.86,-14.75,670.573364,1,1,0,1,0,,,,,,,,
440626,93317.203125,280.56,-4.831499,0.263362,-2.370259,5.935183,-0.012770,-0.073431,284.68,3.94,705.07,70.61,-14.74,670.573364,1,1,0,1,0,,,,,,,,
440636,93317.203125,280.56,-4.587290,0.521935,-2.025494,5.906449,0.002128,-0.078752,284.78,3.95,705.53,70.23,-14.71,670.573364,1,1,0,1,0,,,,,,,,
440646,93298.062500,280.56,-4.630385,0.335188,-2.609679,5.862816,0.021284,-0.078752,284.78,3.95,706.28,70.13,-14.68,672.231140,1,1,0,1,0,,,,,,,,
440656,93278.921875,280.56,-4.764461,-0.220266,-3.878606,5.899000,0.019156,-0.089394,284.88,3.95,707.25,70.25,-14.67,673.889160,1,1,0,1,0,,,,,,,,
440666,93278.921875,280.56,-4.505887,0.488417,-2.049436,5.923477,0.014899,-0.093651,284.88,3.96,707.99,70.14,-14.64,673.889160,1,1,0,1,0,,,,,,,,
440676,93244.281250,280.58,-4.539406,-0.100556,-2.896984,5.881972,-0.006385,-0.095780,284.78,3.96,709.29,70.58,-14.61,676.890563,1,1,0,1,0,,,,,,,,
440686,93259.765625,280.56,-4.659116,0.225054,-1.948880,5.866009,0.011706,-0.092587,284.78,3.96,709.93,70.37,-14.60,675.548828,1,1,0,1,0,,,,,,,,
440696,93259.765625,280.56,-4.472368,0.033518,-1.891419,5.879844,0.040440,-0.111743,284.88,3.96,710.41,70.01,-14.56,675.548828,1,1,0,1,0,,,,,,,,
440706,93240.625000,280.56,-4.596867,0.124498,-4.477157,5.836211,0.004256,-0.106422,284.68,3.96,711.18,69.94,-14.55,677.207397,1,1,0,1,0,,,,,,,,
440716,93221.484375,280.56,-4.395754,1.010353,-1.120486,5.853238,0.015963,-0.096844,284.73,3.96,712.18,70.08,-14.52,678.866271,1,1,0,1,0,,,,,,,,
440726,93221.484375,280.56,-4.548983,0.277727,-3.519476,5.827696,0.005321,-0.103229,284.68,3.96,712.92,69.98,-14.50,678.866271,1,1,0,1,0,,,,,,,,
440736,93221.484375,280.56,-4.735730,0.603338,-2.552218,5.848981,0.006385,-0.106422,284.88,3.96,713.48,69.70,-14.50,678.866271,1,1,0,1,0,,,,,,,,
440746,93221.484375,280.56,-4.400542,0.220266,-2.466027,5.828761,-0.001064,-0.112807,284.78,3.96,713.90,69.29,-14.47,678.866271,1,1,0,1,0,,,,,,,,
440756,93202.328125,280.56,-4.386177,-0.086191,-2.355894,5.806412,-0.004256,-0.118128,284.78,3.96,714.63,69.18,-14.45,680.526733,1,1,0,1,0,,,,,,,,
440766,93186.843750,280.58,-4.419696,0.172382,-2.619256,5.821311,-0.014899,-0.124514,284.53,3.96,715.50,69.22,-14.43,681.869140,1,1,0,1,0,,,,,,,,
440776,93183.187500,280.56,-4.448426,0.383072,-2.164358,5.795770,-0.004256,-0.131963,284.78,3.96,716.24,69.12,-14.41,682.186157,1,1,0,1,0,,,,,,,,
440786,93183.187500,280.56,-4.443638,0.632069,-2.662352,5.748944,-0.025541,-0.121321,284.68,3.96,716.80,68.84,-14.39,682.186157,1,1,0,1,0,,,,,,,,
440796,93144.890625,280.56,-4.424484,0.373495,-2.039859,5.752137,0.004256,-0.131963,284.73,3.96,718.04,69.24,-14.38,685.507141,1,1,0,1,0,,,,,,,,
440806,93164.046875,280.56,-4.290409,0.469263,-2.284068,5.756393,-0.012770,-0.140477,284.73,3.96,718.56,68.93,-14.35,683.845825,1,1,0,1,0,,,,,,,,
440816,93167.703125,280.58,-4.232948,-0.148440,-3.629609,5.694668,-0.010642,-0.151119,284.68,3.94,718.87,68.42,-14.32,683.528808,1,1,0,1,0,,,,,,,,
440826,93144.890625,280.56,-4.414907,0.593762,-2.820369,5.773421,-0.030862,-0.145798,284.58,3.94,719.59,68.32,-14.31,685.507141,1,1,0,1,0,,,,,,,,
440836,93125.750000,280.56,-4.194641,-0.574608,-2.336740,5.755329,-0.037247,-0.141541,284.73,3.92,720.54,68.44,-14.28,687.167419,1,1,0,1,0,,,,,,,,
440846,93125.750000,280.56,-4.070142,0.043095,-0.814028,5.711696,-0.038312,-0.140477,284.58,3.92,721.26,68.33,-14.24,687.167419,1,1,0,1,0,,,,,,,,
440856,93125.750000,280.56,-4.280832,-0.071826,-2.681505,5.674448,-0.040440,-0.139413,284.73,3.92,721.80,68.05,-14.23,687.167419,1,1,0,1,0,,,,,,,,
440866,93129.406250,280.58,-4.333505,0.316034,-2.035071,5.643586,-0.029798,-0.135156,284.68,3.92,722.12,67.56,-14.22,686.850219,1,1,0,1,0,,,,,,,,
440876,93106.593750,280.56,-4.299986,0.296881,-1.929726,5.698925,-0.021284,-0.133028,284.68,3.92,722.85,67.48,-14.21,688.829284,1,1,0,1,0,,,,,,,,
440886,93106.593750,280.56,-4.094084,-0.292092,-2.451662,5.615916,-0.019156,-0.131963,284.73,3.92,723.40,67.22,-14.18,688.829284,1,1,0,1,0,,,,,,,,
440896,93087.453125,280.56,-4.199429,0.445321,-3.184288,5.605273,-0.034055,-0.138349,284.58,3.92,724.23,67.23,-14.16,690.490051,1,1,0,1,0,,,,,,,,
440906,93087.453125,280.56,-4.304774,0.780509,-1.254561,5.609530,-0.020220,-0.129835,284.88,3.91,724.85,67.03,-14.15,690.490051,1,1,0,1,0,,,,,,,,
440916,93068.312500,280.56,-3.940855,-0.225054,-2.308010,5.615916,-0.023412,-0.138349,284.73,3.91,725.72,67.10,-14.12,692.151123,1,1,0,1,0,,,,,,,,
440926,93068.312500,280.56,-4.146757,-0.095768,-3.241749,5.613788,-0.012770,-0.146863,284.88,3.91,726.38,66.94,-14.10,692.151123,1,1,0,1,0,,,,,,,,
440936,93068.312500,280.56,-4.304774,0.612915,-2.509123,5.582925,-0.040440,-0.139413,284.78,3.91,726.88,66.63,-14.10,692.151123,1,1,0,1,0,,,,,,,,
440946,93049.156250,280.56,-4.175487,0.521935,-1.766920,5.610594,-0.020220,-0.140477,284.88,3.92,727.66,66.61,-14.09,693.813781,1,1,0,1,0,,,,,,,,
440956,93049.156250,280.56,-4.003105,-0.378283,-2.370259,5.593567,-0.036183,-0.143670,284.78,3.92,728.25,66.39,-14.06,693.813781,1,1,0,1,0,,,,,,,,
440966,93030.015625,280.56,-4.012681,-0.354341,-1.235408,5.601016,-0.023412,-0.152184,284.78,3.91,729.10,66.44,-14.04,695.475402,1,1,0,1,0,,,,,,,,
440976,93030.015625,280.56,-4.323928,0.459686,-2.102108,5.564833,0.001064,-0.150055,284.44,3.91,729.74,66.28,-14.05,695.475402,1,1,0,1,0,,,,,,,,
440986,93014.515625,280.58,-4.271255,0.124498,-2.715024,5.592503,0.004256,-0.153248,284.68,3.91,730.56,66.28,-14.05,696.821228,1,1,0,1,0,,,,,,,,
440996,93010.875000,280.56,-4.050989,-0.181959,-1.963245,5.582925,-0.001064,-0.146863,284.73,3.91,731.25,66.17,-14.03,697.137329,1,1,0,1,0,,,,,,,,
441006,93010.875000,280.56,-4.070142,0.383072,-1.465251,5.591439,0.008513,-0.146863,284.58,3.91,731.77,65.90,-14.02,697.137329,1,1,0,1,0,,,,,,,,
441016,93014.515625,280.58,-4.041412,0.330399,-1.738190,5.524392,0.010642,-0.129835,284.78,3.93,732.07,65.42,-14.00,696.821228,1,1,0,1,0,,,,,,,,
441026,92991.718750,280.56,-3.955221,-0.100556,-2.226607,5.530778,0.012770,-0.134092,284.78,3.94,732.79,65.34,-13.98,698.800842,1,1,0,1,0,,,,,,,,
441036,92991.718750,280.56,-3.869029,-0.426167,-2.619256,5.540356,0.008513,-0.134092,284.78,3.94,733.34,65.10,-13.95,698.800842,1,1,0,1,0,,,,,,,,
441046,92972.578125,280.56,-4.151545,0.612915,-1.929726,5.491402,-0.001064,-0.127707,284.44,3.95,734.15,65.12,-13.95,700.463317,1,1,0,1,0,,,,,,,,
441056,92972.578125,280.56,-3.792415,-0.809240,-2.777273,5.493530,0.005321,-0.131963,284.44,3.95,734.77,64.95,-13.91,700.463317,1,1,0,1,0,,,,,,,,
441066,92972.578125,280.56,-3.926490,0.349553,-1.369483,5.529714,-0.006385,-0.130899,284.68,3.96,735.23,64.63,-13.90,700.463317,1,1,0,1,0,,,,,,,,
441076,92957.078125,280.58,-4.055777,0.790086,-1.474828,5.489273,-0.004256,-0.130899,284.53,3.95,735.91,64.52,-13.89,701.809753,1,1,0,1,0,,,,,,,,
441086,92953.421875,280.56,-3.988739,0.047884,-1.599326,5.444576,-0.001064,-0.127707,284.78,3.96,736.50,64.33,-13.88,702.127380,1,1,0,1,0,,,,,,,,
441096,92953.421875,280.56,-4.050989,-0.095768,-3.524264,5.424355,0.003192,-0.130899,284.88,3.96,736.94,63.99,-13.88,702.127380,1,1,0,1,0,,,,,,,,
441106,92937.937500,280.58,-3.864241,0.138863,-0.828393,5.466924,-0.015963,-0.122385,284.78,3.96,737.60,63.88,-13.86,703.472717,1,1,0,1,0,,,,,,,,
441116,92937.937500,280.58,-3.825934,-0.368707,-1.163581,5.448832,-0.004256,-0.134092,284.88,3.96,738.10,63.61,-13.84,703.472717,1,1,0,1,0,,,,,,,,
441126,92918.781250,280.58,-3.687070,-0.957680,-2.523488,5.382851,0.004256,-0.139413,284.78,3.96,738.88,63.62,-13.80,705.137268,1,1,0,1,0,,,,,,,,
441136,92918.781250,280.58,-4.036623,0.416591,-3.246537,5.369015,0.009578,-0.126642,284.88,3.96,739.47,63.43,-13.81,705.137268,1,1,0,1,0,,,,,,,,
441146,92915.140625,280.56,-3.682282,-0.052672,-1.403002,5.437126,0.014899,-0.131963,284.88,3.96,739.99,63.19,-13.78,705.453674,1,1,0,1,0,,,,,,,,
441156,92880.500000,280.58,-3.782838,0.067037,-2.207453,5.372208,-0.003192,-0.122385,284.68,3.96,741.13,63.55,-13.76,708.464599,1,1,0,1,0,,,,,,,,
441166,92876.843750,280.56,-3.639186,0.143652,-1.838746,5.337089,-0.009578,-0.114936,284.68,3.96,742.07,63.70,-13.73,708.782409,1,1,0,1,0,,,,,,,,
441176,92880.500000,280.58,-3.797203,-0.521935,-2.394201,5.328575,-0.003192,-0.121321,284.78,3.96,742.69,63.56,-13.72,708.464599,1,1,0,1,0,,,,,,,,
441186,92880.500000,280.58,-3.835510,-0.407014,-2.432508,5.341346,-0.006385,-0.119193,284.68,3.96,743.16,63.26,-13.71,708.464599,1,1,0,1,0,,,,,,,,
441196,92876.843750,280.56,-3.730166,-0.296881,-2.154781,5.345602,-0.004256,-0.122385,284.88,3.96,743.59,62.93,-13.69,708.782409,1,1,0,1,0,,,,,,,,
441206,92857.703125,280.56,-3.734954,0.004788,-0.962469,5.354116,-0.003192,-0.121321,284.78,3.96,744.33,62.89,-13.68,710.446533,1,1,0,1,0,,,,,,,,
441216,92857.703125,280.56,-3.701435,0.095768,-1.513135,5.315804,0.018091,-0.128771,284.58,3.94,744.88,62.68,-13.66,710.446533,1,1,0,1,0,,,,,,,,
441226,92842.203125,280.58,-3.864241,0.220266,-1.982398,5.300905,0.015963,-0.123450,284.78,3.94,745.62,62.67,-13.66,711.794372,1,1,0,1,0,,,,,,,,
441236,92842.203125,280.58,-3.715801,-0.014365,-2.810792,5.320061,0.022348,-0.125578,284.78,3.93,746.19,62.47,-13.65,711.794372,1,1,0,1,0,,,,,,,,
441246,92838.546875,280.56,-3.485957,-0.742202,-1.359906,5.347731,0.014899,-0.130899,284.88,3.92,746.69,62.21,-13.61,712.112304,1,1,0,1,0,,,,,,,,
441256,92823.046875,280.58,-3.715801,0.177170,-1.489193,5.283877,0.015963,-0.124514,284.68,3.92,747.39,62.16,-13.60,713.460327,1,1,0,1,0,,,,,,,,
441266,92823.046875,280.58,-3.639186,0.335188,-1.273715,5.244502,0.023412,-0.114936,284.93,3.92,747.93,61.94,-13.59,713.460327,1,1,0,1,0,,,,,,,,
441276,92800.250000,280.56,-3.634398,-0.239420,-2.920926,5.250886,0.031926,-0.121321,284.68,3.92,748.82,62.07,-13.57,715.443298,1,1,0,1,0,,,,,,,,
441286,92784.750000,280.58,-3.600879,-0.033518,-2.250549,5.226409,0.006385,-0.118128,284.78,3.92,749.82,62.31,-13.56,716.791748,1,1,0,1,0,,,,,,,,
441296,92781.109375,280.56,-3.672705,0.627280,-1.584961,5.193418,0.010642,-0.110679,284.78,3.92,750.66,62.38,-13.55,717.108520,1,1,0,1,0,,,,,,,,
441306,92781.109375,280.56,-3.543418,-0.373495,-2.106897,5.174262,0.020220,-0.105358,284.78,3.92,751.29,62.26,-13.53,717.108520,1,1,0,1,0,,,,,,,,
441316,92781.109375,280.56,-3.538630,-0.641646,-3.035847,5.188097,0.013834,-0.106422,284.53,3.91,751.76,61.98,-13.51,717.108520,1,1,0,1,0,,,,,,,,
441326,92765.609375,280.58,-3.466804,0.593762,-1.024718,5.200868,0.003192,-0.103229,284.78,3.91,752.45,61.91,-13.49,718.457214,1,1,0,1,0,,,,,,,,
441336,92765.609375,280.58,-3.586513,0.450109,-1.680729,5.117858,0.013834,-0.102165,284.78,3.91,752.96,61.67,-13.48,718.457214,1,1,0,1,0,,,,,,,,
441346,92765.609375,280.58,-3.629609,0.320823,-2.360682,5.117858,0.025541,-0.097908,284.58,3.91,753.35,61.32,-13.48,718.457214,1,1,0,1,0,,,,,,,,
441356,92746.468750,280.58,-3.366247,-0.368707,-2.647987,5.145528,0.018091,-0.105358,284.88,3.91,754.05,61.27,-13.45,720.122924,1,1,0,1,0,,,,,,,,
441366,92746.468750,280.58,-3.390189,-0.339976,-1.493981,5.128500,0.010642,-0.112807,284.68,3.91,754.58,61.06,-13.42,720.122924,1,1,0,1,0,,,,,,,,
441376,92746.468750,280.58,-3.519476,0.196324,-2.073378,5.097638,0.005321,-0.109615,284.78,3.91,754.97,60.71,-13.41,720.122924,1,1,0,1,0,,,,,,,,
441386,92727.312500,280.58,-3.457227,0.277727,-2.331952,5.090189,0.010642,-0.113872,284.68,3.90,755.68,60.68,-13.40,721.790283,1,1,0,1,0,,,,,,,,
441396,92727.312500,280.58,-3.605667,0.483628,-1.522712,5.110409,0.013834,-0.119193,284.78,3.91,756.21,60.47,-13.40,721.790283,1,1,0,1,0,,,,,,,,
441406,92727.312500,280.58,-3.620033,0.368707,-2.566584,5.097638,0.029798,-0.134092,284.58,3.91,756.61,60.14,-13.40,721.790283,1,1,0,1,0,,,,,,,,
441416,92689.015625,280.58,-3.294421,-0.799663,-2.547430,5.077418,-0.011706,-0.119193,284.73,3.94,757.74,60.52,-13.37,725.124511,1,1,0,1,0,,,,,,,,
441426,92704.531250,280.56,-3.514688,0.095768,-2.279279,5.043363,0.001064,-0.120257,284.68,3.94,758.25,60.29,-13.37,723.773559,1,1,0,1,0,,,,,,,,
441436,92708.171875,280.58,-3.500322,-0.167594,-2.552218,5.049748,-0.014899,-0.120257,284.78,3.95,758.55,59.87,-13.36,723.456604,1,1,0,1,0,,,,,,,,
441446,92708.171875,280.58,-3.342305,-0.153228,-1.125274,5.057198,-0.012770,-0.118128,284.58,3.95,758.78,59.38,-13.34,723.456604,1,1,0,1,0,,,,,,,,
441456,92689.015625,280.58,-3.490746,0.205901,-2.657563,4.978445,-0.005321,-0.111743,284.88,3.96,759.36,59.23,-13.33,725.124511,1,1,0,1,0,,,,,,,,
441466,92669.875000,280.58,-3.495534,-0.493205,-4.050989,4.999729,-0.037247,-0.101101,284.97,3.96,760.21,59.35,-13.33,726.791381,1,1,0,1,0,,,,,,,,
441476,92666.234375,280.56,-3.423708,-0.086191,-0.268150,5.035913,-0.048954,-0.096844,284.73,3.96,760.93,59.34,-13.32,727.108459,1,1,0,1,0,,,,,,,,
441486,92669.875000,280.58,-3.203441,-0.823605,-2.394201,4.993344,-0.043633,-0.092587,284.78,3.96,761.39,59.08,-13.29,726.791381,1,1,0,1,0,,,,,,,,
441496,92650.718750,280.58,-3.217807,-0.435744,-2.092532,4.991216,-0.064917,-0.085138,284.68,3.96,762.15,59.11,-13.27,728.459838,1,1,0,1,0,,,,,,,,
441506,92650.718750,280.58,-3.418920,-0.244208,-2.135627,4.972060,-0.063853,-0.075559,284.73,3.96,762.72,58.96,-13.26,728.459838,1,1,0,1,0,,,,,,,,
441516,92627.937500,280.56,-3.337517,0.038307,-1.551442,4.997601,-0.062789,-0.067046,284.68,3.96,763.64,59.15,-13.25,730.444458,1,1,0,1,0,,,,,,,,
441526,92631.578125,280.58,-3.232172,-0.837970,-1.273715,5.003986,-0.068110,-0.072367,284.88,3.96,764.25,59.04,-13.23,730.127258,1,1,0,1,0,,,,,,,,
441536,92631.578125,280.58,-3.380612,0.205901,-1.187524,4.961418,-0.056403,-0.062789,284.73,3.96,764.71,58.79,-13.23,730.127258,1,1,0,1,0,,,,,,,,
441546,92631.578125,280.58,-3.318363,-0.335188,-2.437297,4.929491,-0.052147,-0.056403,284.68,3.96,765.06,58.42,-13.21,730.127258,1,1,0,1,0,,,,,,,,
441556,92612.437500,280.58,-3.347093,-0.210689,-1.723825,4.958224,-0.048954,-0.045761,284.78,3.96,765.73,58.37,-13.21,731.794921,1,1,0,1,0,,,,,,,,
441566,92612.437500,280.58,-3.361459,-0.205901,-1.225831,4.963546,-0.043633,-0.039376,284.44,3.96,766.23,58.16,-13.20,731.794921,1,1,0,1,0,,,,,,,,
441576,92608.796875,280.56,-3.394978,-0.105344,-1.503558,4.918848,-0.035119,-0.032990,284.73,3.96,766.69,57.91,-13.20,732.112182,1,1,0,1,0,,,,,,,,
441586,92593.281250,280.58,-3.059789,-0.517147,-1.163581,4.922041,-0.031926,-0.035119,284.73,3.96,767.36,57.88,-13.17,733.464233,1,1,0,1,0,,,,,,,,
441596,92574.140625,280.58,-3.078943,-0.220266,-2.513911,4.911398,-0.018091,-0.030862,284.88,3.96,768.29,58.08,-13.14,735.132507,1,1,0,1,0,,,,,,,,
441606,92574.140625,280.58,-3.026270,-0.071826,-1.177947,4.927362,-0.026605,-0.029798,284.78,3.96,768.98,58.06,-13.11,735.132507,1,1,0,1,0,,,,,,,,
441616,92554.984375,280.58,-3.217807,-0.181959,-1.934514,4.923105,-0.015963,-0.039376,284.78,3.94,769.92,58.28,-13.11,736.802368,1,1,0,1,0,,,,,,,,
441626,92593.281250,280.58,-3.169923,-0.038307,-0.938527,4.932683,0.004256,-0.041504,284.73,3.93,769.80,57.46,-13.09,733.464233,1,1,0,1,0,,,,,,,,
441636,92574.140625,280.58,-3.332728,0.239420,-1.915361,4.905014,0.013834,-0.037247,284.78,3.93,770.11,57.08,-13.09,735.132507,1,1,0,1,0,,,,,,,,
441646,92554.984375,280.58,-3.031059,-0.253785,-1.110909,4.914591,0.017027,-0.034055,284.73,3.92,770.76,57.03,-13.07,736.802368,1,1,0,1,0,,,,,,,,
441656,92554.984375,280.58,-3.102885,-0.081402,-1.982398,4.886921,0.024477,-0.032990,284.44,3.92,771.25,56.82,-13.05,736.802368,1,1,0,1,0,,,,,,,,
441666,92554.984375,280.58,-3.093308,0.411802,-1.273715,4.848609,0.019156,-0.032990,284.68,3.92,771.61,56.49,-13.04,736.802368,1,1,0,1,0,,,,,,,,
441676,92535.843750,280.58,-3.107673,-0.172382,-2.442085,4.809233,0.029798,-0.035119,284.88,3.92,772.30,56.48,-13.03,738.471191,1,1,0,1,0,,,,,,,,
441686,92535.843750,280.58,-3.184288,0.378283,-1.532289,4.839031,0.040440,-0.030862,284.78,3.92,772.81,56.31,-13.02,738.471191,1,1,0,1,0,,,,,,,,
441696,92535.843750,280.58,-2.858676,-0.086191,-1.742978,4.846481,0.037247,-0.034055,284.78,3.91,773.20,56.01,-12.99,738.471191,1,1,0,1,0,,,,,,,,
441706,92516.703125,280.58,-2.930502,0.306457,-1.738190,4.801784,0.029798,-0.042569,284.88,3.92,773.90,56.02,-12.96,740.140258,1,1,0,1,0,,,,,,,,
441716,92516.703125,280.58,-2.940079,0.536301,-1.249773,4.765600,0.018091,-0.044697,284.88,3.91,774.43,55.86,-12.94,740.140258,1,1,0,1,0,,,,,,,,
441726,92478.406250,280.58,-3.035847,0.119710,-1.991975,4.743251,0.025541,-0.050018,284.73,3.91,775.66,56.38,-12.93,743.480651,1,1,0,1,0,,,,,,,,
441736,92497.546875,280.58,-3.064578,0.205901,-1.484405,4.758150,0.034055,-0.055339,284.88,3.92,776.17,56.20,-12.93,741.810974,1,1,0,1,0,,,,,,,,
441746,92478.406250,280.58,-2.877830,0.162805,-1.532289,4.761343,0.046825,-0.069174,284.73,3.92,776.97,56.30,-12.91,743.480651,1,1,0,1,0,,,,,,,,
441756,92478.406250,280.58,-2.973598,0.450109,-1.326387,4.723031,0.042569,-0.074495,284.53,3.91,777.57,56.21,-12.89,743.480651,1,1,0,1,0,,,,,,,,
441766,92478.406250,280.58,-2.882618,-0.009576,-2.212242,4.732609,0.042569,-0.079816,284.73,3.92,778.02,55.98,-12.87,743.480651,1,1,0,1,0,,,,,,,,
