packetType,timestamp_ms,imu1_accel_x,imu1_accel_y,imu1_accel_z,imu1_gyro_x,imu1_gyro_y,imu1_gyro_z,imu1_mag_x,imu1_mag_y,imu1_mag_z,imu2_accel_x,imu2_accel_y,imu2_accel_z,imu2_gyro_x,imu2_gyro_y,imu2_gyro_z,imu2_mag_x,imu2_mag_y,imu2_mag_z,high_g_accel_x,high_g_accel_y,high_g_accel_z,baro1_temp,baro1_pres,baro2_temp,baro2_pres,gps_lat,gps_long,gps_alt,gps_fix_quality,gps_sats_tracked,gps_hdop,battery_voltage,pyro_cont,pyro_status,heading,vtg,pos_x,pos_y,pos_z,vel_x,vel_y,vel_z,acc_x,acc_y,acc_z,q_x,q_y,q_z,q_w,state,gps_lat_mod,gps_long_mod,imu1_accel_x_real,imu1_accel_y_real,imu1_accel_z_real,imu2_accel_x_real,imu2_accel_y_real,imu2_accel_z_real,imu1_gyro_x_real,imu1_gyro_y_real,imu1_gyro_z_real,imu2_gyro_x_real,imu2_gyro_y_real,imu2_gyro_z_real,imu1_mag_x_real,imu1_mag_y_real,imu1_mag_z_real,imu2_mag_x_real,imu2_mag_y_real,imu2_mag_z_real,imu_accel_x_avg,imu_accel_y_avg,imu_accel_z_avg,imu_gyro_x_avg,imu_gyro_y_avg,imu_gyro_z_avg,imu_mag_x_avg,imu_mag_y_avg,imu_mag_z_avg,high_g_accel_x_real,high_g_accel_y_real,high_g_accel_z_real,baro_pres_avg,baro_temp_avg
0,5896826,24,-1369,-46,-24,12,66,-522,2195,1797,50,-1360,0,72,115,70,886,1442,2311,352,-16,208,18.11,0.9998914384406612,23.83,0.9988551690106094,4449.49951171875,-7309.8271484375,39.70000076293945,2,12,0.6299999952316284,7.951751708984375,3,0,0.0,0.0,0.0,0.0,0.0641437926957541,0.0,0.0,0.0068776249684958,-0.1651047594,-0.2656033086,9.7950193131,-0.6539261341094971,-0.2826082408428192,-0.6395981311798096,0.2888382971286773,6,44.824991861979164,-73.16378580729166,0.1722832272,-9.8273224182,-0.3302095188,0.35892339,-9.762716208,0.0,-0.007330382832,0.003665191416,0.020158552788,0.021991148496,0.035124751069999995,0.021380283259999997,-0.30276000000000003,1.2731,1.04226,0.51388,0.83636,1.34038,0.26560330860000003,-9.7950193131,-0.1651047594,0.007330382832,0.019394971243,0.020769418023999998,0.10555999999999999,1.05473,1.19132,10.35584,-0.47072,6.11936,0.9993733037256354,20.97
0,5896931,7,-1370,-30,-20,18,47,-522,2195,1797,40,-1360,8,70,111,53,886,1442,2311,352,-16,240,18.11,0.9998420922773256,23.84,0.9989834690352823,4449.49951171875,-7309.8271484375,39.70000076293945,2,12,0.6299999952316284,7.966064453125,3,0,0.0,0.0,0.0,0.0,0.0525618864629189,0.0,0.0,-0.0068313564090237,-0.0789631458,-0.1686939932999999,9.798608547,-0.653919517993927,-0.2825960516929626,-0.6396333575248718,0.2887870967388153,6,44.824991861979164,-73.16378580729166,0.050249274600000005,-9.834500886,-0.215354034,0.287138712,-9.762716208,0.0574277424,-0.0061086523599999994,0.005497787124,0.014355333045999999,0.021380283259999997,0.033903020597999996,0.016187928754,-0.30276000000000003,1.2731,1.04226,0.51388,0.83636,1.34038,0.1686939933,-9.798608547,-0.0789631458,0.007635815449999999,0.019700403861,0.0152716309,0.10555999999999999,1.05473,1.19132,10.35584,-0.47072,7.0608,0.999412780656304,20.975
0,5897036,-5,-1376,-66,-12,16,32,-520,2183,1799,21,-1369,-15,57,109,28,897,1417,2310,352,-16,272,18.11,0.9997730076486552,23.83,0.9989143844066124,4449.49951171875,-7309.8271484375,39.70000076293945,2,12,0.6299999952316284,7.9445953369140625,3,0,0.0,0.0,0.0,0.0,0.0946998852403329,0.0,0.0,0.0382001706352666,-0.2907279458999999,-0.0574277423999999,9.8524470555,-0.6539337038993835,-0.2827833890914917,-0.6396597623825073,0.2885129451751709,6,44.824991861979164,-73.16378580729166,-0.035892339,-9.8775716928,-0.4737788748,0.1507478238,-9.8273224182,-0.107677017,-0.003665191416,0.004886921888,0.009773843776,0.017409659225999997,0.033292155361999996,0.008552113303999999,-0.3016,1.26614,1.04342,0.5202600000000001,0.82186,1.3398,0.05742774240000001,-9.8524470555,-0.2907279459,0.006872233904999999,0.019089538625,0.009162978539999998,0.10933000000000004,1.044,1.19161,10.35584,-0.47072,8.00224,0.9993436960276338,20.97
0,5897142,3,-1371,-70,-1,17,45,-505,2165,1832,24,-1368,-25,100,112,35,879,1415,2256,368,48,304,18.09,0.999694053787318,23.84,0.9989735998026154,4449.49951171875,-7309.8271484375,39.70000076293945,2,12,0.6299999952316284,7.966064453125,3,0,0.0,0.0,0.0,0.0,0.0732275627181041,0.0,0.0,0.0125899766403492,-0.3409772204999999,-0.0969093152999999,9.8309116521,-0.6067836284637451,-0.3685910999774933,-0.5962678790092468,0.3747252225875854,6,44.824991861979164,-73.16378580729166,0.0215354034,-9.8416793538,-0.502492746,0.1722832272,-9.8201439504,-0.179461695,-0.000305432618,0.005192354505999999,0.01374446781,0.0305432618,0.034208453215999995,0.010690141629999999,-0.2929,1.2557,1.06256,0.50982,0.8207,1.30848,0.09690931529999999,-9.8309116521,-0.3409772205,0.015118914591,0.019700403861,0.012217304719999999,0.10846000000000003,1.0382,1.18552,10.82656,1.41216,8.94368,0.9993338267949667,20.965
0,5897247,9,-1371,-59,-19,27,70,-505,2165,1832,35,-1366,-2,80,120,53,879,1415,2256,384,48,224,18.1,0.9996150999259809,23.82,0.9988847767086108,4449.49951171875,-7309.8271484375,39.70000076293945,2,12,0.6299999952316284,7.955841064453125,3,0,0.0,0.0,0.0,0.0,0.1205447457497336,0.0,0.0,0.0625320355774929,-0.2189432679,-0.1579262916,9.8237331843,-0.606888473033905,-0.3684353530406952,-0.5962485074996948,0.3747393488883972,6,44.824991861979164,-73.16378580729166,0.0646062102,-9.8416793538,-0.4235296002,0.251246373,-9.8057870148,-0.0143569356,-0.005803219742,0.008246680686,0.021380283259999997,0.024434609439999998,0.03665191416,0.016187928754,-0.2929,1.2557,1.06256,0.50982,0.8207,1.30848,0.15792629160000002,-9.8237331843,-0.21894326790000002,0.009315694848999998,0.022449297423,0.018784106007,0.10846000000000003,1.0382,1.18552,11.29728,1.41216,6.59008,0.9992499383172958,20.96
0,5897353,9,-1367,-47,-26,16,70,-522,2202,1806,35,-1364,9,67,115,61,908,1457,2316,336,80,272,18.12,0.9998618307426598,23.83,0.9989143844066124,4449.49951171875,-7309.8271484375,39.59999847412109,2,12,0.6299999952316284,7.9578857421875,3,0,0.0,0.0,0.0,0.0,0.1357112607877554,0.0,0.0,0.0728822380666844,-0.1363908881999999,-0.1579262916,9.802197780899998,-0.6069410443305969,-0.3682818710803985,-0.5962324738502502,0.3748306334018707,6,44.824991861979164,-73.16378580729166,0.0646062102,-9.812965482600001,-0.3373879866,0.251246373,-9.7914300792,0.0646062102,-0.007941248068,0.004886921888,0.021380283259999997,0.020463985405999998,0.035124751069999995,0.018631389698,-0.30276000000000003,1.27716,1.04748,0.52664,0.84506,1.34328,0.15792629160000002,-9.8021977809,-0.1363908882,0.006261368668999999,0.020005836479,0.020005836479,0.11193999999999998,1.06111,1.19538,9.88512,2.3536,8.00224,0.999388107574636,20.975
0,5897458,12,-1375,-30,-35,24,62,-522,2202,1806,34,-1361,10,48,99,63,908,1457,2316,240,-16,224,18.11,0.9998322230446582,23.83,0.998756476683938,4449.49951171875,-7309.8271484375,39.59999847412109,2,12,0.6299999952316284,7.958396911621094,3,0,0.0,0.0,0.0,0.0,0.1589505590734265,0.0,0.0,0.0895758582451433,-0.0717846779999999,-0.1651047594,9.8201439504,-0.6069944500923157,-0.3681550025939941,-0.5962188839912415,0.3748902380466461,6,44.824991861979164,-73.16378580729166,0.0861416136,-9.870393225,-0.215354034,0.24406790520000002,-9.7698946758,0.071784678,-0.010690141629999999,0.007330382832,0.018936822316,0.014660765664,0.030237829182,0.019242254934,-0.30276000000000003,1.27716,1.04748,0.52664,0.84506,1.34328,0.16510475940000002,-9.8201439504,-0.07178467799999999,0.0019853120170000007,0.018784106007,0.019089538625,0.11193999999999998,1.06111,1.19538,7.0608,-0.47072,6.59008,0.9992943498642981,20.97
0,5897564,8,-1375,-70,-21,3,48,-514,2173,1778,23,-1365,-13,70,109,45,871,1393,2317,336,32,208,18.11,0.9997730076486552,23.84,0.998825561312608,4449.49951171875,-7309.8271484375,39.59999847412109,2,12,0.6299999952316284,7.968620300292969,3,0,0.0,0.0,0.0,0.0,0.1991581250525423,0.0,0.0,0.1238024300269197,-0.2979064137,-0.1112662509,9.834500886,-0.6070337295532227,-0.3681623637676239,-0.5962327122688293,0.3747974932193756,6,44.824991861979164,-73.16378580729166,0.0574277424,-9.870393225,-0.502492746,0.1651047594,-9.798608547,-0.0933200814,-0.006414084978,0.000916297854,0.014660765664,0.021380283259999997,0.033292155361999996,0.01374446781,-0.29812,1.26034,1.03124,0.50518,0.80794,1.34386,0.1112662509,-9.834500886,-0.29790641370000004,0.007483099140999998,0.017104226607999998,0.014202616737,0.10352999999999998,1.03414,1.1875499999999999,9.88512,0.94144,6.11936,0.9992992844806317,20.975
0,5897669,4,-1372,-76,-3,-4,41,-514,2173,1778,23,-1364,-26,77,82,40,871,1393,2317,368,80,256,18.11,0.9998420922773256,23.82,0.998894645941278,4449.49951171875,-7309.8271484375,39.59999847412109,2,12,0.6299999952316284,7.9548187255859375,3,0,0.0,0.0,0.0,0.0,0.1549200858058557,0.0,0.0,0.064937670819236,-0.3661018577999999,-0.0969093152999999,9.8201439504,-0.6070648431777954,-0.3682633638381958,-0.5962384343147278,0.3746386766433716,6,44.824991861979164,-73.16378580729166,0.0287138712,-9.848857821600001,-0.5455635528,0.1651047594,-9.7914300792,-0.1866401628,-0.000916297854,-0.001221730472,0.012522737337999999,0.023518311586,0.025045474675999997,0.012217304719999999,-0.29812,1.26034,1.03124,0.50518,0.80794,1.34386,0.09690931529999999,-9.8201439504,-0.36610185780000004,0.011301006866,0.011911872102,0.012370021028999999,0.10352999999999998,1.03414,1.1875499999999999,10.82656,2.3536,7.53152,0.9993683691093018,20.965
0,5897775,-1,-1370,-66,-3,-6,52,-529,2187,1793,19,-1367,-24,87,86,39,889,1422,2310,336,64,336,18.11,0.9997335307179868,23.84,0.9988354305452752,4449.49951171875,-7309.8271484375,39.59999847412109,2,12,0.6299999952316284,7.951751708984375,3,0,0.0,0.0,0.0,0.0,0.1661953693564873,0.0,0.0,0.0706649760402751,-0.3230310509999999,-0.0646062101999999,9.8237331843,-0.6070036888122559,-0.3683890402317047,-0.596232533454895,0.3746236562728882,6,44.824991861979164,-73.16378580729166,-0.0071784678,-9.834500886,-0.4737788748,0.1363908882,-9.812965482600001,-0.1722832272,-0.000916297854,-0.001832595708,0.015882496136,0.026572637766,0.026267205148,0.011911872102,-0.30682,1.26846,1.03994,0.51562,0.82476,1.3398,0.0646062102,-9.8237331843,-0.323031051,0.012828169956,0.012217304719999999,0.013897184118999999,0.10439999999999999,1.04661,1.18987,9.88512,1.88288,9.88512,0.999284480631631,20.975
0,5897880,6,-1370,-44,-13,28,53,-529,2187,1793,30,-1362,4,76,122,50,889,1422,2310,320,32,240,18.11,0.9998322230446582,23.83,0.998963730569948,4449.49951171875,-7309.8271484375,39.59999847412109,2,12,0.6299999952316284,7.964530944824219,3,0,0.0,0.0,0.0,0.0,0.0455666711907237,0.0,0.0,-0.059211460159319,-0.1435693559999999,-0.1292124203999999,9.8057870148,-0.6069471836090088,-0.368302047252655,-0.5962820053100586,0.3747219443321228,6,44.824991861979164,-73.16378580729166,0.0430708068,-9.834500886,-0.31585258320000004,0.215354034,-9.777073143600001,0.0287138712,-0.003970624034,0.008552113303999999,0.016187928754,0.023212878968,0.037262779396,0.0152716309,-0.30682,1.26846,1.03994,0.51562,0.82476,1.3398,0.1292124204,-9.8057870148,-0.143569356,0.009621127467,0.02290744635,0.015729779827,0.10439999999999999,1.04661,1.18987,9.4144,0.94144,7.0608,0.9993979768073031,20.97
0,5897985,9,-1371,-43,-17,23,64,-515,2206,1816,32,-1364,4,76,118,59,878,1410,2251,416,32,384,18.11,0.9998322230446582,23.84,0.9988749074759438,4449.49951171875,-7309.8271484375,39.59999847412109,2,12,0.6299999952316284,7.9670867919921875,3,0,0.0,0.0,0.0,0.0,0.0819531339826142,0.0,0.0,-0.0172307336061722,-0.1399801220999999,-0.1471585899,9.8165547165,-0.607009768486023,-0.3680998980998993,-0.596330463886261,0.3747421205043793,6,44.824991861979164,-73.16378580729166,0.0646062102,-9.8416793538,-0.3086741154,0.2297109696,-9.7914300792,0.0287138712,-0.005192354505999999,0.0070249502139999994,0.019547687552,0.023212878968,0.036041048924,0.018020524462,-0.2987,1.27948,1.05328,0.50924,0.8178,1.30558,0.1471585899,-9.8165547165,-0.1399801221,0.009010262231,0.021532999569,0.018784106007,0.10527,1.04864,1.17943,12.23872,0.94144,11.29728,0.999353565260301,20.975
0,5898091,12,-1376,-48,-25,20,66,-515,2206,1816,38,-1369,3,75,117,64,878,1410,2251,416,48,288,18.12,0.9999013076733284,23.84,0.9988749074759438,4449.49951171875,-7309.8271484375,39.59999847412109,2,12,0.6299999952316284,7.947662353515625,3,0,0.0,0.0,0.0,0.0,0.133136148895427,0.0,0.0,0.0385613838954383,-0.1615155255,-0.1794616949999999,9.8524470555,-0.6072077751159668,-0.3679381012916565,-0.5962777733802795,0.3746638894081116,6,44.824991861979164,-73.16378580729166,0.0861416136,-9.8775716928,-0.3445664544,0.2727817764,-9.8273224182,0.0215354034,-0.00763581545,0.0061086523599999994,0.020158552788,0.02290744635,0.035735616306,0.019547687552,-0.2987,1.27948,1.05328,0.50924,0.8178,1.30558,0.179461695,-9.8524470555,-0.1615155255,0.00763581545,0.020922134333,0.01985312017,0.10527,1.04864,1.17943,12.23872,1.41216,8.47296,0.999388107574636,20.98
0,5898196,19,-1369,-58,-25,34,45,-539,2195,1798,43,-1370,-8,111,136,42,885,1396,2281,448,-80,224,18.11,0.9996743153219836,23.82,0.9987367382186036,4449.49951171875,-7309.8271484375,39.59999847412109,2,12,0.6299999952316284,7.946128845214844,3,0,0.0,0.0,0.0,0.0,0.095557225101425,0.0,0.0,-0.0002266774859689,-0.2368894373999999,-0.2225325017999999,9.8309116521,-0.6539626717567444,-0.2840941846370697,-0.6379177570343018,0.2910056114196777,6,44.824991861979164,-73.16378580729166,0.1363908882,-9.8273224182,-0.4163511324,0.3086741154,-9.834500886,-0.0574277424,-0.00763581545,0.010384709011999999,0.01374446781,0.033903020597999996,0.041538836047999995,0.012828169956,-0.31262,1.2731,1.04284,0.5133,0.80968,1.32298,0.2225325018,-9.8309116521,-0.23688943739999999,0.013133602573999998,0.025961772529999996,0.013286318883,0.10033999999999998,1.0413899999999998,1.1829100000000001,13.18016,-2.3536,6.59008,0.9992055267702936,20.965
0,5898302,5,-1367,-97,-20,14,56,-539,2195,1798,27,-1368,-47,68,92,52,885,1396,2281,368,64,336,18.1,0.9998223538119912,23.84,0.9989735998026154,4449.49951171875,-7309.8271484375,39.59999847412109,2,12,0.6299999952316284,7.951751708984375,3,0,0.0,0.0,0.0,0.0,0.1009610980673863,0.0,0.0,0.0054850988620899,-0.5168496816,-0.1148554847999999,9.8165547165,-0.6539509892463684,-0.2841320931911468,-0.6379587054252625,0.290905088186264,6,44.824991861979164,-73.16378580729166,0.035892339,-9.812965482600001,-0.6963113766,0.1938186306,-9.8201439504,-0.3373879866,-0.0061086523599999994,0.004276056651999999,0.017104226607999998,0.020769418023999998,0.028099800855999998,0.015882496136,-0.31262,1.2731,1.04284,0.5133,0.80968,1.32298,0.1148554848,-9.8165547165,-0.5168496816,0.007330382831999999,0.016187928754,0.016493361372,0.10033999999999998,1.0413899999999998,1.1829100000000001,10.82656,1.88288,9.88512,0.9993979768073034,20.97
0,5898407,2,-1368,-47,-10,-2,48,-522,2183,1804,16,-1366,3,78,95,43,890,1449,2294,448,80,256,18.11,0.9998322230446582,23.83,0.9988650382432764,4449.49951171875,-7309.8271484375,39.59999847412109,2,12,0.6299999952316284,7.9548187255859375,3,0,0.0,0.0,0.0,0.0,0.1019740932963009,0.0,0.0,0.0076570499679106,-0.1579262916,-0.0646062102,9.8129654826,-0.6538600325584412,-0.2842679321765899,-0.6379742622375488,0.2909429669380188,6,44.824991861979164,-73.16378580729166,0.0143569356,-9.8201439504,-0.3373879866,0.1148554848,-9.8057870148,0.0215354034,-0.0030543261799999997,-0.000610865236,0.014660765664,0.023823744204,0.029016098709999997,0.013133602574,-0.30276000000000003,1.26614,1.04632,0.5162,0.8404200000000001,1.33052,0.0646062102,-9.8129654826,-0.15792629160000002,0.010384709011999999,0.014202616736999999,0.013897184119,0.10671999999999998,1.05328,1.1884199999999998,13.18016,2.3536,7.53152,0.9993486306439674,20.97
0,5898513,5,-1366,-30,-38,6,52,-522,2183,1804,36,-1365,16,53,97,54,890,1449,2294,416,-32,384,18.11,0.9997236614853195,23.84,0.9989439921046138,4449.49951171875,-7309.8271484375,39.59999847412109,2,12,0.6299999952316284,7.94970703125,3,0,0.0,0.0,0.0,0.0,0.1252576000098062,0.0,0.0,0.0299427335635223,-0.0502492745999999,-0.1471585899,9.802197780899998,-0.6537122130393982,-0.2842027544975281,-0.6380913853645325,0.2910818755626678,6,44.824991861979164,-73.16378580729166,0.035892339,-9.8057870148,-0.215354034,0.2584248408,-9.798608547,0.1148554848,-0.011606439484,0.001832595708,0.015882496136,0.016187928754,0.029626963946,0.016493361372,-0.30276000000000003,1.26614,1.04632,0.5162,0.8404200000000001,1.33052,0.1471585899,-9.8021977809,-0.0502492746,0.0022907446349999996,0.015729779827,0.016187928754,0.10671999999999998,1.05328,1.1884199999999998,12.23872,-0.94144,11.29728,0.9993338267949667,20.975
0,5898618,17,-1372,-52,-32,20,60,-522,2186,1794,44,-1360,1,56,114,57,896,1425,2329,384,64,336,18.11,0.9997730076486552,23.83,0.9988650382432764,4449.49951171875,-7309.8271484375,39.59999847412109,2,12,0.6299999952316284,7.975265502929687,3,0,0.0,0.0,0.0,0.0,0.1602598367688366,0.0,0.0,0.0635943645534849,-0.1830509289,-0.2189432679,9.8057870148,-0.6538069248199463,-0.2840376198291778,-0.6380912661552429,0.2910303473472595,6,44.824991861979164,-73.16378580729166,0.12203395260000001,-9.848857821600001,-0.3732803256,0.31585258320000004,-9.762716208,0.0071784678,-0.009773843776,0.0061086523599999994,0.01832595708,0.017104226607999998,0.034819318451999995,0.017409659225999997,-0.30276000000000003,1.2678800000000001,1.0405200000000001,0.51968,0.8265,1.35082,0.21894326790000002,-9.8057870148,-0.18305092890000002,0.003665191415999999,0.020463985405999998,0.017867808153,0.10846,1.04719,1.19567,11.29728,1.88288,9.88512,0.9993190229459659,20.97
0,5898724,24,-1370,-27,7,4,71,-522,2186,1794,55,-1364,13,86,89,63,881,1400,2310,336,-48,208,18.11,0.9999901307673328,23.83,0.998756476683938,4449.5,-7309.8271484375,39.5,2,12,0.6299999952316284,7.94970703125,3,0,0.0,0.0,0.0,0.0,0.1735874054479668,0.0,0.0,0.0699461667033135,-0.0502492746,-0.2835494781,9.8129654826,-0.6539406180381775,-0.2840251624584198,-0.6379839181900024,0.2909774780273437,6,44.825,-73.16378580729166,0.1722832272,-9.834500886,-0.1938186306,0.394815729,-9.7914300792,0.0933200814,0.0021380283259999997,0.001221730472,0.021685715878,0.026267205148,0.027183503002,0.019242254934,-0.30276000000000003,1.2678800000000001,1.0405200000000001,0.51098,0.812,1.3398,0.2835494781,-9.8129654826,-0.050249274600000005,0.014202616737,0.014202616736999999,0.020463985406,0.10410999999999998,1.03994,1.19016,9.88512,-1.41216,6.11936,0.9993733037256354,20.97
0,5898829,16,-1367,-48,-28,37,66,-515,2185,1773,43,-1363,-10,65,130,67,881,1400,2310,320,16,240,18.09,0.9996841845546508,23.83,0.998756476683938,4449.5,-7309.8271484375,39.5,2,12,0.6299999952316284,7.96197509765625,3,0,0.0,0.0,0.0,0.0,0.1948725606642311,0.0,0.0,0.0879399734975849,-0.2081755662,-0.2117648000999999,9.798608547,-0.6541004180908203,-0.2839335799217224,-0.6379117965698242,0.2908658385276794,6,44.825,-73.16378580729166,0.1148554848,-9.812965482600001,-0.3445664544,0.3086741154,-9.7842516114,-0.071784678,-0.008552113303999999,0.011301006866,0.020158552788,0.01985312017,0.03970624034,0.020463985405999998,-0.2987,1.2673,1.02834,0.51098,0.812,1.3398,0.2117648001,-9.798608547,-0.2081755662,0.005650503433,0.025503623603,0.020311269096999998,0.10613999999999998,1.03965,1.1840700000000002,9.4144,0.47072,7.0608,0.9992203306192944,20.96
0,5898934,2,-1379,-80,-20,23,64,-515,2185,1773,16,-1369,-32,61,102,62,914,1425,2268,384,64,336,18.11,0.9996743153219836,23.82,0.9988452997779422,4449.5,-7309.8271484375,39.5,2,12,0.6299999952316284,7.94970703125,3,0,0.0,0.0,0.0,0.0,0.1705976380243447,0.0,0.0,0.0572215629538485,-0.4019941967999999,-0.0646062102,9.8632147572,-0.6541370749473572,-0.283907949924469,-0.6378905773162842,0.2908550202846527,6,44.825,-73.16378580729166,0.0143569356,-9.8991070962,-0.574277424,0.1148554848,-9.8273224182,-0.2297109696,-0.0061086523599999994,0.0070249502139999994,0.019547687552,0.018631389698,0.031154127036,0.018936822316,-0.2987,1.2673,1.02834,0.53012,0.8265,1.31544,0.0646062102,-9.8632147572,-0.40199419680000004,0.006261368669,0.019089538625,0.019242254934,0.11571000000000001,1.0469,1.1718899999999999,11.29728,1.88288,9.88512,0.9992598075499629,20.965
0,5899040,2,-1370,-72,-16,9,48,-511,2178,1776,26,-1363,-18,79,94,43,914,1425,2268,336,-16,288,18.1,0.9995558845299778,23.84,0.998766345916605,4449.5,-7309.8271484375,39.5,2,12,0.6299999952316284,7.955841064453125,3,0,0.0,0.0,0.0,0.0,0.2500191358892901,0.0,0.0,0.1371413911399802,-0.323031051,-0.1004985492,9.809376248699998,-0.6540853381156921,-0.283886045217514,-0.6379239559173584,0.2909194827079773,6,44.825,-73.16378580729166,0.0143569356,-9.834500886,-0.5168496816,0.1866401628,-9.7842516114,-0.1292124204,-0.004886921888,0.002748893562,0.014660765664,0.024129176821999998,0.028710666091999997,0.013133602574,-0.29638,1.26324,1.03008,0.53012,0.8265,1.31544,0.10049854920000001,-9.809376248700001,-0.323031051,0.009621127467,0.015729779827,0.013897184119,0.11687000000000003,1.04487,1.17276,9.88512,-0.47072,8.47296,0.9991611152232913,20.97
0,5899145,20,-1370,-4,-4,45,55,-521,2206,1783,58,-1356,22,83,137,47,895,1412,2313,352,64,256,18.11,0.9997236614853195,23.84,0.9989341228719468,4449.5,-7309.8271484375,39.5,2,12,0.6299999952316284,7.966575622558594,3,0,0.0,0.0,0.0,0.0,0.2376726281352696,0.0,0.0,0.111950246500967,0.0646062102,-0.2799602442,9.784251611399998,-0.5517548322677612,-0.4448994398117065,-0.5380062460899353,0.4562679231166839,6,44.825,-73.16378580729166,0.143569356,-9.834500886,-0.0287138712,0.4163511324,-9.7340023368,0.15792629160000002,-0.001221730472,0.01374446781,0.016798793989999998,0.025350907293999997,0.041844268665999995,0.014355333045999999,-0.30218,1.27948,1.03414,0.5191,0.81896,1.34154,0.2799602442,-9.7842516114,0.06460621020000001,0.012064588410999999,0.027794368237999998,0.015577063518,0.10846,1.04922,1.18784,10.35584,1.88288,7.53152,0.9993288921786332,20.975
0,5899251,25,-1366,-37,-28,38,61,-521,2206,1783,44,-1368,2,57,116,46,895,1412,2313,432,-16,336,18.12,0.999753269183321,23.84,0.9989242536392796,4449.5,-7309.8271484375,39.5,2,12,0.6299999952316284,7.94970703125,3,0,0.0,0.0,0.0,0.0,0.1962967113559419,0.0,0.0,0.0584338229846141,-0.1256231864999999,-0.2476571390999999,9.8129654826,-0.5516459941864014,-0.4449009299278259,-0.5380983352661133,0.4562894403934479,6,44.825,-73.16378580729166,0.179461695,-9.8057870148,-0.26560330860000003,0.31585258320000004,-9.8201439504,0.0143569356,-0.008552113303999999,0.011606439484,0.018631389698,0.017409659225999997,0.035430183688,0.014049900427999999,-0.30218,1.27948,1.03414,0.5191,0.81896,1.34154,0.24765713910000003,-9.8129654826,-0.1256231865,0.004428772960999999,0.023518311586,0.016340645063,0.10846,1.04922,1.18784,12.70944,-0.47072,9.88512,0.9993387614113003,20.98
0,5899356,-3,-1370,-69,-12,10,75,-523,2194,1803,18,-1365,-24,75,94,57,905,1409,2311,416,48,288,18.11,0.9997828768813224,23.83,0.9988156920799408,4449.5,-7309.8271484375,39.400001525878906,2,12,0.6299999952316284,7.94970703125,3,0,0.0,0.0,0.0,0.0,0.2395396510598277,0.0,0.0,0.0948953143600906,-0.3337987527,-0.0538385085,9.8165547165,-0.5516539216041565,-0.4449398815631866,-0.5380967855453491,0.4562437236309051,6,44.825,-73.16378580729166,-0.0215354034,-9.834500886,-0.4953142782,0.1292124204,-9.798608547,-0.1722832272,-0.003665191416,0.0030543261799999997,0.02290744635,0.02290744635,0.028710666091999997,0.017409659225999997,-0.30334,1.27252,1.0457400000000001,0.5249,0.8172200000000001,1.34038,0.0538385085,-9.8165547165,-0.33379875270000003,0.009621127467,0.015882496136,0.020158552788,0.11078000000000002,1.04487,1.19306,12.23872,1.41216,8.47296,0.9992992844806317,20.97
0,5899462,5,-1372,-37,-28,40,65,-523,2194,1803,25,-1367,16,70,115,55,905,1409,2311,368,80,352,18.1,0.9998223538119912,23.83,0.9988650382432764,4449.5,-7309.8271484375,39.400001525878906,2,12,0.6299999952316284,7.951751708984375,3,0,0.0,0.0,0.0,0.0,0.2360730948668178,0.0,0.0,0.081956569760563,-0.0753739118999999,-0.1076770169999999,9.8309116521,-0.551726758480072,-0.4448966979980469,-0.5380590558052063,0.4562423825263977,6,44.825,-73.16378580729166,0.035892339,-9.848857821600001,-0.26560330860000003,0.179461695,-9.812965482600001,0.1148554848,-0.008552113303999999,0.012217304719999999,0.01985312017,0.021380283259999997,0.035124751069999995,0.016798793989999998,-0.30334,1.27252,1.0457400000000001,0.5249,0.8172200000000001,1.34038,0.107677017,-9.830911652100001,-0.0753739119,0.006414084977999999,0.023671027894999995,0.018325957079999997,0.11078000000000002,1.04487,1.19306,10.82656,2.3536,10.35584,0.9993436960276338,20.965
0,5899567,-3,-1374,-86,-18,3,50,-493,2194,1736,10,-1369,-48,77,85,50,894,1425,2332,368,96,336,18.11,0.9996841845546508,23.83,0.9989045151739452,4449.5,-7309.8271484375,39.400001525878906,2,12,0.6299999952316284,7.95379638671875,3,0,0.0,0.0,0.0,0.0,0.2190301794516055,0.0,0.0,0.0562761221847469,-0.4809573425999999,-0.0251246372999999,9.8452685877,-0.5518164038658142,-0.444789171218872,-0.5380144715309143,0.4562913775444031,6,44.825,-73.16378580729166,-0.0215354034,-9.8632147572,-0.6173482308,0.071784678,-9.8273224182,-0.3445664544,-0.005497787124,0.000916297854,0.0152716309,0.023518311586,0.02596177253,0.0152716309,-0.28594,1.27252,1.00688,0.51852,0.8265,1.35256,0.025124637300000002,-9.8452685877,-0.4809573426,0.009010262230999998,0.013439035192,0.0152716309,0.11628999999999998,1.0495100000000002,1.17972,10.82656,2.82432,9.88512,0.999294349864298,20.97
0,5899673,16,-1373,-30,-1,13,46,-493,2194,1736,46,-1367,7,95,100,34,894,1425,2332,336,48,304,18.12,0.9998618307426598,23.84,0.9988749074759438,4449.5,-7309.8271484375,39.400001525878906,2,12,0.6299999952316284,7.9670867919921875,3,0,0.0,0.0,0.0,0.0,0.111784558417603,0.0,0.0,-0.0576172901035042,-0.0825523796999999,-0.2225325018,9.834500886,-0.5519378185272217,-0.4447692036628723,-0.5379676222801208,0.4562190175056457,6,44.825,-73.16378580729166,0.1148554848,-9.8560362894,-0.215354034,0.3302095188,-9.812965482600001,0.050249274600000005,-0.000305432618,0.003970624034,0.014049900427999999,0.029016098709999997,0.0305432618,0.010384709011999999,-0.28594,1.27252,1.00688,0.51852,0.8265,1.35256,0.2225325018,-9.834500886,-0.0825523797,0.014355333045999999,0.017256942917,0.012217304719999999,0.11628999999999998,1.0495100000000002,1.17972,9.88512,1.41216,8.94368,0.9993683691093018,20.98
0,5899778,27,-1368,-39,-55,33,47,-531,2176,1768,54,-1367,10,72,119,43,891,1397,2302,352,48,384,18.11,0.9997730076486552,23.84,0.9988847767086108,4449.5,-7309.8271484375,39.400001525878906,2,12,0.6299999952316284,7.946640014648437,3,0,0.0,0.0,0.0,0.0,0.0899722431072193,0.0,0.0,-0.0720465842636487,-0.1040877831,-0.2907279458999999,9.8165547165,-0.5517943501472473,-0.4448717534542084,-0.538014829158783,0.4562368988990783,6,44.825,-73.16378580729166,0.1938186306,-9.8201439504,-0.2799602442,0.3876372612,-9.812965482600001,0.071784678,-0.016798793989999998,0.010079276394,0.014355333045999999,0.021991148496,0.036346481542,0.013133602574,-0.30798,1.26208,1.02544,0.51678,0.81026,1.33516,0.2907279459,-9.8165547165,-0.1040877831,0.002596177253000001,0.023212878968,0.01374446781,0.10440000000000002,1.03617,1.1803,10.35584,1.41216,11.29728,0.999328892178633,20.975
0,5899883,5,-1373,-58,-12,22,58,-531,2176,1768,28,-1363,-7,68,116,49,891,1397,2302,416,32,288,18.12,0.9998519615099926,23.84,0.9986084381939304,4449.5,-7309.8271484375,39.400001525878906,2,12,0.6299999952316284,7.939483642578125,3,0,0.0,0.0,0.0,0.0,0.0997130168501798,0.0,0.0,-0.0508701257303026,-0.2333002035,-0.1184447186999999,9.8201439504,-0.5516640543937683,-0.445021778345108,-0.5380328297615051,0.45622718334198,6,44.825,-73.16378580729166,0.035892339,-9.8560362894,-0.4163511324,0.20099709840000002,-9.7842516114,-0.050249274600000005,-0.003665191416,0.006719517596,0.017715091844,0.020769418023999998,0.035430183688,0.014966198282,-0.30798,1.26208,1.02544,0.51678,0.81026,1.33516,0.1184447187,-9.8201439504,-0.2333002035,0.008552113303999999,0.021074850642,0.016340645063000002,0.10440000000000002,1.03617,1.1803,12.23872,0.94144,8.47296,0.9992301998519615,20.98
0,5899989,1,-1371,-21,-7,18,59,-538,2169,1771,27,-1368,18,80,112,50,914,1426,2322,432,96,288,18.12,0.9997039230199852,23.84,0.9988749074759438,4449.5,-7309.8271484375,39.400001525878906,2,12,0.6299999952316284,7.94970703125,3,0,0.0,0.0,0.0,0.0,0.136774692767484,0.0,0.0,-0.0058638442539533,-0.0107677016999999,-0.1004985492,9.8309116521,-0.5516037344932556,-0.4451397359371185,-0.5380081534385681,0.4562140107154846,6,44.825,-73.16378580729166,0.0071784678,-9.8416793538,-0.1507478238,0.1938186306,-9.8201439504,0.1292124204,-0.0021380283259999997,0.005497787124,0.018020524462,0.024434609439999998,0.034208453215999995,0.0152716309,-0.31204,1.25802,1.02718,0.53012,0.82708,1.34676,0.10049854920000001,-9.8309116521,-0.010767701700000007,0.011148290557,0.01985312017,0.016646077681,0.10904000000000003,1.0425499999999999,1.18697,12.70944,2.82432,8.47296,0.9992894152479646,20.98
0,5900094,2,-1371,-67,-32,34,58,-538,2169,1771,32,-1370,-14,61,121,51,914,1426,2322,352,96,352,18.11,0.9997730076486552,23.83,0.9989143844066124,4449.5,-7309.8271484375,39.400001525878906,2,12,0.6299999952316284,7.9578857421875,3,0,0.0,0.0,0.0,0.0,0.0978913715621907,0.0,0.0,-0.0447954242783505,-0.2907279458999999,-0.1220339526,9.8380901199,-0.551738977432251,-0.4450795948505401,-0.5379471778869629,0.4561811983585357,6,44.825,-73.16378580729166,0.0143569356,-9.8416793538,-0.4809573426,0.2297109696,-9.834500886,-0.10049854920000001,-0.009773843776,0.010384709011999999,0.017715091844,0.018631389698,0.036957346778,0.015577063518,-0.31204,1.25802,1.02718,0.53012,0.82708,1.34676,0.12203395260000001,-9.8380901199,-0.2907279459,0.004428772961,0.023671027895,0.016646077681,0.10904000000000003,1.0425499999999999,1.18697,10.35584,2.82432,10.35584,0.9993436960276338,20.97
0,5900200,10,-1366,-78,8,14,50,-498,2178,1756,37,-1361,-22,104,98,35,888,1419,2317,352,96,352,18.11,0.9998914384406612,23.85,0.9990525536639526,4449.5,-7309.8271484375,39.400001525878906,2,12,0.6299999952316284,7.958908081054687,3,0,0.0,0.0,0.0,0.0,0.0352915644160718,0.0,0.0,-0.1051217369277636,-0.3589233899999999,-0.1686939932999999,9.7878408453,-0.7137635946273804,-0.055793609470129,-0.6958042979240417,0.0573155507445335,6,44.825,-73.16378580729166,0.071784678,-9.8057870148,-0.5599204884,0.26560330860000003,-9.7698946758,-0.15792629160000002,0.002443460944,0.004276056651999999,0.0152716309,0.031764992272,0.029932396564,0.010690141629999999,-0.28884,1.26324,1.01848,0.51504,0.82302,1.34386,0.1686939933,-9.7878408453,-0.35892339,0.017104226607999998,0.017104226607999998,0.012980886264999998,0.11310000000000003,1.04313,1.18117,10.35584,2.82432,10.35584,0.9994719960523069,20.98
0,5900305,41,-1362,-11,-9,25,37,-498,2178,1756,65,-1359,26,80,110,35,890,1397,2287,320,16,272,18.12,0.999743399950654,23.83,0.9989045151739452,4449.5,-7309.8271484375,39.400001525878906,2,12,0.6299999952316284,7.96197509765625,3,0,0.0,0.0,0.0,0.0,0.063067412510264,0.0,0.0,-0.0628523255411607,0.0538385084999999,-0.3804587934,9.766305441899998,-0.713719367980957,-0.0557868517935276,-0.6958516836166382,0.0572967827320098,6,44.825,-73.16378580729166,0.2943171798,-9.777073143600001,-0.07896314580000001,0.466600407,-9.755537740200001,0.1866401628,-0.002748893562,0.00763581545,0.011301006866,0.024434609439999998,0.033597587979999996,0.010690141629999999,-0.28884,1.26324,1.01848,0.5162,0.81026,1.32646,0.3804587934,-9.766305441900002,0.0538385085,0.010842857938999998,0.020616701714999998,0.010995574248,0.11368,1.03675,1.1724700000000001,9.4144,0.47072,8.00224,0.9993239575622996,20.975
0,5900411,5,-1366,-65,-50,3,58,-527,2183,1755,34,-1367,-15,48,90,49,890,1397,2287,384,64,288,18.1,0.9996150999259809,23.84,0.998825561312608,4449.5,-7309.8271484375,39.400001525878906,2,12,0.6299999952316284,7.94970703125,3,0,0.0,0.0,0.0,0.0,0.0905929457353255,0.0,0.0,-0.0247834216997802,-0.2871387119999999,-0.1399801221,9.8093762487,-0.713635265827179,-0.0559622384607791,-0.6959315538406372,0.0572041012346744,6,44.825,-73.16378580729166,0.035892339,-9.8057870148,-0.466600407,0.24406790520000002,-9.812965482600001,-0.107677017,-0.0152716309,0.000916297854,0.017715091844,0.014660765664,0.02748893562,0.014966198282,-0.30566,1.26614,1.0179,0.5162,0.81026,1.32646,0.13998012210000002,-9.809376248700001,-0.287138712,-0.0003054326179999997,0.014202616736999999,0.016340645063000002,0.10527,1.0382,1.17218,11.29728,1.88288,8.47296,0.9992203306192944,20.97
0,5900516,8,-1361,-12,-21,14,56,-527,2183,1755,34,-1352,26,69,100,54,948,1459,2337,368,112,272,18.12,0.9998618307426598,23.84,0.9989242536392796,4449.5,-7309.8271484375,39.400001525878906,2,12,0.6299999952316284,7.96197509765625,3,0,0.0,0.0,0.0,0.0,0.0348725403361753,0.0,0.0,-0.0788293926965123,0.0502492745999999,-0.1507478237999999,9.7375915707,-0.7136523723602295,-0.0560952946543693,-0.6959151029586792,0.0570601671934127,6,44.825,-73.16378580729166,0.0574277424,-9.7698946758,-0.0861416136,0.24406790520000002,-9.7052884656,0.1866401628,-0.006414084978,0.004276056651999999,0.017104226607999998,0.021074850641999997,0.0305432618,0.016493361372,-0.30566,1.26614,1.0179,0.54984,0.84622,1.35546,0.1507478238,-9.737591570700001,0.050249274600000005,0.007330382831999998,0.017409659225999997,0.016798793989999998,0.12209,1.05618,1.18668,10.82656,3.29504,8.00224,0.9993930421909697,20.98
0,5900622,-2,-1374,-82,-38,37,53,-530,2206,1828,15,-1374,-27,54,137,54,948,1459,2337,400,64,352,18.12,0.9997137922526524,23.85,0.9988452997779422,4449.5,-7309.8271484375,39.400001525878906,2,12,0.6299999952316284,7.962486267089844,3,0,0.0,0.0,0.0,0.0,0.0321484407887337,0.0,0.0,-0.0724334171480412,-0.3912264950999999,-0.0466600406999999,9.8632147572,-0.7137513756752014,-0.0560177341103553,-0.6958351135253906,0.0568727776408195,6,44.825,-73.16378580729166,-0.0143569356,-9.8632147572,-0.5886343596,0.107677017,-9.8632147572,-0.1938186306,-0.011606439484,0.011301006866,0.016187928754,0.016493361372,0.041844268665999995,0.016493361372,-0.3074,1.27948,1.06024,0.54984,0.84622,1.35546,0.0466600407,-9.8632147572,-0.3912264951,0.0024434609439999994,0.026572637765999996,0.016340645063,0.12122,1.06285,1.20785,11.768,1.88288,10.35584,0.9992795460152973,20.985
0,5900727,-2,-1376,-113,7,23,49,-530,2206,1828,19,-1370,-75,94,110,47,893,1428,2316,320,80,352,18.12,0.9997927461139896,23.84,0.9989341228719468,4449.5,-7309.8271484375,39.400001525878906,2,12,0.6299999952316284,7.968109130859375,3,0,0.0,0.0,0.0,0.0,0.0910098290675154,0.0,0.0,-0.0056495508325601,-0.6747759731999999,-0.0610169762999999,9.8560362894,-0.7138161659240723,-0.0559337958693504,-0.6957778930664062,0.0568431243300437,6,44.825,-73.16378580729166,-0.0143569356,-9.8775716928,-0.8111668614,0.1363908882,-9.834500886,-0.538385085,0.0021380283259999997,0.0070249502139999994,0.014966198282,0.028710666091999997,0.033597587979999996,0.014355333045999999,-0.3074,1.27948,1.06024,0.51794,0.82824,1.34328,0.061016976300000005,-9.8560362894,-0.6747759732,0.015424347209,0.020311269096999998,0.014660765664,0.10526999999999997,1.05386,1.2017600000000002,9.4144,2.3536,10.35584,0.9993634344929683,20.98
0,5900832,21,-1370,-9,22,22,64,-519,2191,1805,57,-1373,31,96,111,57,893,1428,2316,352,-16,368,18.11,0.9997828768813224,23.84,0.998825561312608,4449.5,-7309.8271484375,39.400001525878906,2,12,0.6299999952316284,7.95379638671875,3,0,0.0,0.0,0.0,0.0,0.0787299753796907,0.0,0.0,-0.013655370135514,0.0789631458,-0.2799602442,9.845268587699998,-0.7138004899024963,-0.0558283068239688,-0.6957916021347046,0.0569748394191265,6,44.825,-73.16378580729166,0.1507478238,-9.834500886,-0.0646062102,0.4091726646,-9.8560362894,0.2225325018,0.006719517596,0.006719517596,0.019547687552,0.029321531328,0.033903020597999996,0.017409659225999997,-0.30102,1.27078,1.0469,0.51794,0.82824,1.34328,0.2799602442,-9.845268587700001,0.0789631458,0.018020524462,0.020311269096999998,0.018478673389,0.10845999999999997,1.04951,1.19509,10.35584,-0.47072,10.82656,0.9993042190969652,20.975
0,5900938,7,-1372,-23,-39,33,68,-519,2191,1805,34,-1361,1,51,118,67,909,1460,2293,352,128,336,18.12,0.999950653836664,23.84,0.9988749074759438,4449.5,-7309.8271484375,39.400001525878906,2,12,0.6299999952316284,7.95379638671875,3,0,0.0,0.0,0.0,0.0,0.1590545904637655,0.0,0.0,0.0683240480157804,-0.0789631458,-0.1471585899,9.8093762487,-0.7137430310249329,-0.0557976812124252,-0.6958491206169128,0.0570223964750766,6,44.825,-73.16378580729166,0.050249274600000005,-9.848857821600001,-0.1651047594,0.24406790520000002,-9.7698946758,0.0071784678,-0.011911872102,0.010079276394,0.020769418023999998,0.015577063518,0.036041048924,0.020463985405999998,-0.30102,1.27078,1.0469,0.52722,0.8468,1.32994,0.14715858990000003,-9.809376248700001,-0.0789631458,0.001832595708,0.023060162659,0.020616701714999998,0.1131,1.0587900000000001,1.1884199999999998,10.35584,3.76576,9.88512,0.9994127806563039,20.98
0,5901043,1,-1371,-38,-27,-7,50,-505,2197,1806,24,-1372,0,64,87,43,909,1460,2293,352,32,224,18.1,0.9997137922526524,23.84,0.9988354305452752,4449.5,-7309.8271484375,39.400001525878906,2,12,0.6299999952316284,7.958908081054687,3,0,0.0,0.0,0.0,0.0,0.1320007410396708,0.0,0.0,0.0368387222135677,-0.1363908881999999,-0.0897308475,9.8452685877,-0.7137600183486938,-0.0558700710535049,-0.6958340406417847,0.0569216944277286,6,44.825,-73.16378580729166,0.0071784678,-9.8416793538,-0.2727817764,0.1722832272,-9.848857821600001,0.0,-0.008246680686,-0.0021380283259999997,0.0152716309,0.019547687552,0.026572637766,0.013133602574,-0.2929,1.27426,1.04748,0.52722,0.8468,1.32994,0.0897308475,-9.845268587700001,-0.1363908882,0.005650503433,0.012217304719999999,0.014202616737,0.11716000000000001,1.06053,1.18871,10.35584,0.94144,6.59008,0.9992746113989639,20.97
0,5901149,6,-1374,-16,-6,9,45,-540,2185,1771,36,-1369,23,76,92,38,910,1449,2305,464,-16,352,18.12,0.9998519615099926,23.83,0.9989143844066124,4449.5,-7309.8271484375,39.400001525878906,2,12,0.6299999952316284,7.9507293701171875,3,0,0.0,0.0,0.0,0.0,0.0646246886485374,0.0,0.0,-0.037762941548975,0.0251246373,-0.1507478238,9.8452685877,-0.7156189680099487,-0.1065308526158332,-0.6812079548835754,0.1117875948548317,6,44.825,-73.16378580729166,0.0430708068,-9.8632147572,-0.1148554848,0.2584248408,-9.8273224182,0.1651047594,-0.001832595708,0.002748893562,0.01374446781,0.023212878968,0.028099800855999998,0.011606439484,-0.3132,1.2673,1.02718,0.5278,0.8404200000000001,1.3369,0.1507478238,-9.8452685877,0.025124637299999995,0.01069014163,0.015424347209,0.012675453646999998,0.10730000000000003,1.05386,1.18204,13.65088,-0.47072,10.35584,0.9993831729583025,20.975
0,5901254,2,-1370,-77,-15,20,56,-540,2185,1771,20,-1372,-33,72,102,42,910,1449,2305,304,-16,240,18.11,0.9998322230446582,23.84,0.9988749074759438,4449.5,-7309.8271484375,39.400001525878906,2,12,0.6299999952316284,7.952774047851562,3,0,0.0,0.0,0.0,0.0,0.1393606536837077,0.0,0.0,0.0418362391735356,-0.394815729,-0.0789631458,9.8416793538,-0.7156767845153809,-0.1065257713198661,-0.6811659336090088,0.1116782054305076,6,44.825,-73.16378580729166,0.0143569356,-9.834500886,-0.5527420206,0.143569356,-9.848857821600001,-0.2368894374,-0.00458148927,0.0061086523599999994,0.017104226607999998,0.021991148496,0.031154127036,0.012828169956,-0.3132,1.2673,1.02718,0.5278,0.8404200000000001,1.3369,0.07896314580000001,-9.8416793538,-0.394815729,0.008704829613,0.018631389698,0.014966198282,0.10730000000000003,1.05386,1.18204,8.94368,-0.47072,7.0608,0.999353565260301,20.975
0,5901360,13,-1370,-69,-9,30,69,-508,2197,1817,38,-1364,-21,74,131,58,902,1463,2302,352,-16,304,18.11,0.9996743153219836,23.84,0.9989242536392796,4449.5,-7309.8271484375,39.400001525878906,2,12,0.6299999952316284,7.966064453125,3,0,0.0,0.0,0.0,0.0,0.1066545242443287,0.0,0.0,0.0053612974326337,-0.3230310509999999,-0.1830509288999999,9.8129654826,-0.7156975269317627,-0.1064502000808715,-0.6811533570289612,0.1116936951875686,6,44.825,-73.16378580729166,0.0933200814,-9.834500886,-0.4953142782,0.2727817764,-9.7914300792,-0.1507478238,-0.002748893562,0.00916297854,0.021074850641999997,0.022602013732,0.040011672958,0.017715091844,-0.29464,1.27426,1.05386,0.52316,0.84854,1.33516,0.18305092890000002,-9.8129654826,-0.323031051,0.009926560085,0.024587325748999998,0.019394971243,0.11425999999999997,1.0614,1.19451,10.35584,-0.47072,8.94368,0.9992992844806317,20.975
0,5901465,19,-1370,-37,-23,43,66,-508,2197,1817,50,-1363,7,78,128,60,902,1463,2302,336,32,272,18.1,0.9998223538119912,23.84,0.9988749074759438,4449.5,-7309.8271484375,39.400001525878906,2,12,0.6299999952316284,7.94970703125,3,0,0.0,0.0,0.0,0.0,0.1672907429147458,0.0,0.0,0.0694238890971913,-0.1076770169999999,-0.2476571390999999,9.809376248699998,-0.7157533764839172,-0.1063423082232475,-0.6811188459396362,0.1116493567824363,6,44.825,-73.16378580729166,0.1363908882,-9.834500886,-0.26560330860000003,0.35892339,-9.7842516114,0.050249274600000005,-0.0070249502139999994,0.013133602574,0.020158552788,0.023823744204,0.039095375104,0.01832595708,-0.29464,1.27426,1.05386,0.52316,0.84854,1.33516,0.2476571391,-9.809376248700001,-0.10767701700000001,0.008399396994999999,0.026114488839,0.019242254934,0.11425999999999997,1.0614,1.19451,9.88512,0.94144,8.00224,0.9993486306439675,20.97
0,5901571,-4,-1371,-42,-25,40,59,-517,2200,1777,24,-1364,2,68,128,55,914,1443,2311,288,128,320,18.12,0.9999013076733284,23.84,0.9990426844312856,4449.5,-7309.8271484375,39.400001525878906,2,12,0.6299999952316284,7.9578857421875,3,0,0.0,0.0,0.0,0.0,0.1189248752535692,0.0,0.0,0.0118319505966787,-0.1435693559999999,-0.071784678,9.8165547165,-0.715751588344574,-0.1064228117465972,-0.6811091899871826,0.1116428598761558,6,44.825,-73.16378580729166,-0.0287138712,-9.8416793538,-0.3014956476,0.1722832272,-9.7914300792,0.0143569356,-0.00763581545,0.012217304719999999,0.018020524462,0.020769418023999998,0.039095375104,0.016798793989999998,-0.29986,1.276,1.03066,0.53012,0.83694,1.34038,0.071784678,-9.8165547165,-0.143569356,0.006566801286999999,0.025656339911999997,0.017409659225999997,0.11513000000000001,1.05647,1.18552,8.47296,3.76576,9.4144,0.9994719960523071,20.98
0,5901676,-51,-3889,-548,-215,-1055,84,-517,2200,1777,-365,-6315,-660,-101,-843,43,914,1443,2311,480,16,256,18.13,0.9998716999753268,23.84,0.9987169997532692,4449.5,-7309.8271484375,39.400001525878906,2,12,0.6299999952316284,7.9906005859375,3,0,0.0,0.0,0.0,0.0,0.1397072861373204,0.0,0.0,0.0957825879693914,-4.335794551199999,1.4931213024,36.6245427156,-0.71527498960495,-0.1081156730651855,-0.6810652613639832,0.1133259087800979,6,44.825,-73.16378580729166,-0.36610185780000004,-27.9170612742,-3.9338003544,-2.620140747,-45.332024157,-4.737788748,-0.06566801287,-0.32223141199,0.025656339912,-0.030848694418,-0.25747969697399997,0.013133602574,-0.29986,1.276,1.03066,0.53012,0.83694,1.34038,-1.4931213024,-36.6245427156,-4.3357945512,-0.048258353643999996,-0.28985555448199996,0.019394971243,0.11513000000000001,1.05647,1.18552,14.1216,0.47072,7.53152,0.999294349864298,20.985
0,5901781,-8,-9183,-540,-19,2399,53,-561,2216,1813,171,-9111,-228,26,2612,106,912,1440,2304,2304,160,160,18.1,0.999506538366642,23.83,0.9986972612879348,4449.5,-7309.8271484375,39.400001525878906,2,12,0.6299999952316284,7.950218200683594,3,0,0.0,0.0,0.0,0.0,0.5422301443962664,0.0,0.0,5.440701722665019,-2.7565316352,-0.5850451256999999,65.66144496659999,-0.7186872363090515,-0.0928160548210144,-0.6825972199440002,0.0945251509547233,6,44.825,-73.16378580729166,-0.0574277424,-65.9198698074,-3.876372612,1.2275179938,-65.4030201258,-1.6366906584,-0.005803219742,0.732732850582,0.016187928754,0.007941248068,0.7977899982159999,0.032375857508,-0.32538,1.28528,1.05154,0.52896,0.8352,1.33632,0.5850451257,-65.6614449666,-2.7565316352,0.0010690141629999999,0.7652614243989999,0.024281893130999998,0.10178999999999999,1.06024,1.19393,67.78368,4.7072,4.7072,0.9991018998272885,20.965
0,5901781,-8,-9183,-540,-19,2399,53,-561,2216,1813,171,-9111,-228,26,2612,106,912,1440,2304,2304,160,160,18.1,0.999506538366642,23.83,0.9986972612879348,4449.5,-7309.8271484375,39.400001525878906,2,12,0.6299999952316284,7.950218200683594,3,0,0.0,0.0,0.0,0.0,0.5422301443962664,0.0,0.0,5.440701722665019,-2.7565316352,-0.5850451256999999,65.66144496659999,-0.7186872363090515,-0.0928160548210144,-0.6825972199440002,0.0945251509547233,6,44.825,-73.16378580729166,-0.0574277424,-65.9198698074,-3.876372612,1.2275179938,-65.4030201258,-1.6366906584,-0.005803219742,0.732732850582,0.016187928754,0.007941248068,0.7977899982159999,0.032375857508,-0.32538,1.28528,1.05154,0.52896,0.8352,1.33632,0.5850451257,-65.6614449666,-2.7565316352,0.0010690141629999999,0.7652614243989999,0.024281893130999998,0.10178999999999999,1.06024,1.19393,67.78368,4.7072,4.7072,0.9991018998272885,20.965
0,5901797,-1241,-9209,324,-162,3973,264,-561,2216,1813,-849,-9143,-846,-781,3722,219,912,1440,2304,2336,-32,400,18.1,0.9995558845299778,23.84,0.9986281766592648,4449.5,-7309.8271484375,39.400001525878906,2,12,0.6299999952316284,7.97015380859375,3,0,0.0,0.0,0.0,0.0,0.6677313598949283,0.0,0.0,6.325952103250186,-1.8735800958,7.501498850999999,65.86962053279998,-0.7187440991401672,-0.0864749252796173,-0.6841521859169006,0.0886835753917694,6,44.825,-73.16378580729166,-8.9084785398,-66.10650997020001,2.3258235672,-6.0945191622,-65.6327310954,-6.0729837588,-0.049480084115999995,1.213483791314,0.080634211152,-0.23854287465799998,1.1368202041959998,0.066889743342,-0.32538,1.28528,1.05154,0.52896,0.8352,1.33632,-7.501498851000001,-65.86962053280001,-1.8735800958000002,-0.14401147938699999,1.175151997755,0.073761977247,0.10178999999999999,1.06024,1.19393,68.72512,-0.94144,11.768,0.9990920305946214,20.97
0,5901812,-304,-9099,1211,1291,5671,105,-561,2216,1813,-898,-9119,420,1768,5288,195,912,1440,2304,2192,144,624,18.11,0.9994670614359732,23.83,0.9988650382432764,4449.5,-7309.8271484375,39.400001525878906,2,12,0.6299999952316284,7.951751708984375,3,0,0.0,0.0,0.0,0.0,0.7815292979304375,0.0,0.0,7.187300829953771,5.854040490899999,4.3142591478,65.38866319019999,-0.7221630811691284,-0.0781229212880134,-0.6826716065406799,0.0796046331524849,6,44.825,-73.16378580729166,-2.1822542112,-65.3168785122,8.6931245058,-6.4462640844,-65.4604478682,3.014956476,0.39431350983799995,1.7321083766779999,0.03207042489,0.540004868624,1.6151276839839999,0.05955936051,-0.32538,1.28528,1.05154,0.52896,0.8352,1.33632,-4.3142591478,-65.3886631902,5.8540404909,0.46715918923099997,1.6736180303309998,0.0458148927,0.10178999999999999,1.06024,1.19393,64.48864,4.23648,18.35808,0.9991660498396249,20.97
0,5901721,11,-9210,-872,-1026,1996,-63,-517,2200,1777,27,-9142,-742,-572,2250,-14,912,1440,2304,2448,64,464,18.11,0.999565753762645,23.84,0.998766345916605,4449.5,-7309.8271484375,39.400001525878906,2,12,0.6299999952316284,7.9445953369140625,3,0,0.0,0.0,0.0,0.0,0.2840424083358932,0.0,0.0,2.2295105817645178,-5.7930235146,-0.1363908882,65.8696205328,-0.7161754965782166,-0.1027513369917869,-0.6820452213287354,0.1065327450633049,6,44.825,-73.16378580729166,0.07896314580000001,-66.113688438,-6.2596239216,0.1938186306,-65.6255526276,-5.3264231076,-0.313373866068,0.609643505528,-0.019242254934,-0.174707457496,0.6872233904999999,-0.004276056651999999,-0.29986,1.276,1.03066,0.52896,0.8352,1.33632,0.1363908882,-65.8696205328,-5.7930235146,-0.244040661782,0.6484334480139999,-0.011759155793,0.11454999999999999,1.0556,1.18349,72.02016,1.88288,13.65088,0.999166049839625,20.975
0,5901736,-638,-8643,182,461,1674,-160,-517,2200,1777,-896,-8646,131,866,1921,-122,912,1440,2304,2208,96,128,18.1,0.9997631384159882,23.84,0.9990328151986184,4449.5,-7309.8271484375,39.400001525878906,2,12,0.6299999952316284,7.966064453125,3,0,0.0,0.0,0.0,0.0,0.2881058233782222,0.0,0.0,3.038623924664368,1.1234302106999998,5.5058848026,62.0542648971,-0.7175454497337341,-0.1005123853683471,-0.6814472675323486,0.1032250225543975,6,44.825,-73.16378580729166,-4.5798624564,-62.0434971954,1.3064811396,-6.431907148800001,-62.0650325988,0.9403792818000001,0.14080443689799998,0.511294202532,-0.048869218879999995,0.264504647188,0.586736059178,-0.037262779396,-0.29986,1.276,1.03066,0.52896,0.8352,1.33632,-5.505884802600001,-62.0542648971,1.1234302107,0.20265454204299999,0.549015130855,-0.043065999137999994,0.11454999999999999,1.0556,1.18349,64.95936,2.82432,3.76576,0.9993979768073034,20.97
0,5901751,-647,-7666,903,430,637,-109,-561,2216,1813,-620,-7927,568,898,1162,-117,912,1440,2304,2176,240,224,18.11,0.9996348383913152,23.83,0.9986577843572664,4449.5,-7309.8271484375,39.400001525878906,2,12,0.6299999952316284,7.94970703125,3,0,0.0,0.0,0.0,0.0,0.3726087288551524,0.0,0.0,3.8643934025810274,5.279763066899999,4.5475593513,55.9669242027,-0.7187017202377319,-0.0996281057596206,-0.6806268692016602,0.1014356836676597,6,44.825,-73.16378580729166,-4.6444686666,-55.0301341548,6.4821564234,-4.450650036,-56.903714250600004,4.0773697104,0.13133602574,0.194560577666,-0.033292155361999996,0.274278490964,0.35491270211599996,-0.035735616306,-0.32538,1.28528,1.05154,0.52896,0.8352,1.33632,-4.5475593513,-55.9669242027,5.2797630669,0.20280725835199997,0.27473663989099995,-0.034513885834,0.10178999999999999,1.06024,1.19393,64.01792,7.0608,6.59008,0.9991463113742908,20.97
0,5901766,-387,-9222,-636,-500,1858,15,-561,2216,1813,-109,-9059,-644,-656,1925,30,912,1440,2304,2080,160,640,18.09,0.9998026153466568,23.84,0.998766345916605,4449.5,-7309.8271484375,39.400001525878906,2,12,0.6299999952316284,7.9445953369140625,3,0,0.0,0.0,0.0,0.0,0.4283927743794406,0.0,0.0,4.554387045777694,-4.594219391999999,1.7802600143999998,65.61478492589998,-0.7181737422943115,-0.0966842323541641,-0.6820374727249146,0.0985065996646881,6,44.825,-73.16378580729166,-2.7780670386,-66.1998300516,-4.5655055208,-0.7824529902,-65.0297398002,-4.6229332632,-0.152716309,0.567493804244,0.00458148927,-0.20036379740799998,0.58795778965,0.00916297854,-0.32538,1.28528,1.05154,0.52896,0.8352,1.33632,-1.7802600144,-65.61478492590001,-4.594219392,-0.17654005320399999,0.577725796947,0.0068722339050000004,0.10178999999999999,1.06024,1.19393,61.1936,4.7072,18.8288,0.9992844806316309,20.965
0,5901849,250,-9188,627,1115,691,151,-561,2216,1813,216,-8927,891,1231,803,137,912,1440,2304,2176,160,224,18.1,0.9998223538119912,23.82,0.998638045891932,4449.5,-7309.8271484375,39.400001525878906,2,12,0.6299999952316284,7.947151184082031,3,0,0.0,0.0,0.0,0.0,0.8863778659343705,0.0,0.0,8.017777779354194,5.448457060199999,-1.6725829973999995,65.0189720985,-0.7240971326828003,-0.0771095380187034,-0.6808749437332153,0.0784017667174339,2,44.825,-73.16378580729166,1.79461695,-65.9557621464,4.5008993106,1.5505490448,-64.0821820506,6.3960148098000005,0.34055736907,0.211053939038,0.046120325318,0.375987552758,0.24526239225399998,0.041844268665999995,-0.32538,1.28528,1.05154,0.52896,0.8352,1.33632,1.6725829974000002,-65.0189720985,5.448457060200001,0.358272460914,0.228158165646,0.043982296992,0.10178999999999999,1.06024,1.19393,64.01792,4.7072,6.59008,0.9992301998519616,20.96
0,5901863,155,-9009,-800,-604,-1735,233,-561,2216,1813,447,-8921,-524,-569,-956,235,912,1440,2304,2256,-16,464,18.1,0.9992894152479644,23.82,0.9987367382186036,4449.5,-7309.8271484375,39.400001525878906,2,12,0.6299999952316284,7.94970703125,3,0,0.0,0.0,0.0,0.0,1.0590982638844877,0.0,0.0,8.902654127911996,-4.752145683599999,-2.1607188078,64.35496382699999,-0.7229190468788147,-0.0788936987519264,-0.6816035509109497,0.081120066344738,2,44.825,-73.16378580729166,1.112662509,-64.6708164102,-5.74277424,3.2087751066,-64.03911124380001,-3.7615171272000003,-0.184481301272,-0.52992559223,0.071165799994,-0.17379115964199998,-0.291993582808,0.07177666523,-0.32538,1.28528,1.05154,0.52896,0.8352,1.33632,2.1607188078,-64.354963827,-4.7521456836,-0.179136230457,-0.41095958751899997,0.071471232612,0.10178999999999999,1.06024,1.19393,66.37152,-0.47072,13.65088,0.9990130767332841,20.96
0,5901879,434,-9046,205,316,-1728,198,-561,2216,1813,199,-9002,417,150,-1789,121,912,1440,2304,2192,16,208,18.11,0.9997730076486552,23.82,0.9982630150505798,4449.5,-7309.8271484375,39.400001525878906,2,12,0.6299999952316284,7.962486267089844,3,0,0.0,0.0,0.0,0.0,1.2374045553003117,0.0,0.0,9.76925467611406,2.2325034858,-2.2719850587,64.7784934272,-0.7229194045066833,-0.0815971717238426,-0.680903971195221,0.0842566490173339,2,44.825,-73.16378580729166,3.1154550252,-64.9364197188,1.4715858990000001,1.4285150922,-64.6205671356,2.9934210726,0.09651670728799999,-0.527787563904,0.060475658364,0.0458148927,-0.546418953602,0.036957346778,-0.32538,1.28528,1.05154,0.52896,0.8352,1.33632,2.2719850587000003,-64.7784934272,2.2325034858,0.071165799994,-0.537103258753,0.048716502571,0.10178999999999999,1.06024,1.19393,64.48864,0.47072,6.11936,0.9990180113496174,20.965
0,5901894,81,-9103,-164,323,-799,35,-561,2216,1813,-328,-9099,-203,284,-1115,1,873,1432,2381,2272,160,352,18.1,0.9996644460893166,23.82,0.9987367382186036,4449.5,-7309.8271484375,39.400001525878906,2,12,0.6299999952316284,7.9578857421875,3,0,0.0,0.0,0.0,0.0,1.3722319752819725,0.0,0.0,10.581113283060626,-1.3172488413,0.8865407733,65.3312354478,-0.7231495976448059,-0.0832974687218666,-0.6802568435668945,0.0858310759067535,2,44.825,-73.16378580729166,0.5814558918,-65.3455923834,-1.1772687192,-2.3545374384,-65.3168785122,-1.4572289634,0.098654735614,-0.24404066178199998,0.010690141629999999,0.086742863512,-0.34055736907,0.000305432618,-0.32538,1.28528,1.05154,0.50634,0.83056,1.38098,-0.8865407732999999,-65.3312354478,-1.3172488413,0.092698799563,-0.292299015426,0.005497787123999999,0.09048,1.05792,1.2162600000000001,66.84224,4.7072,10.35584,0.9992005921539602,20.96
0,5901910,-593,-9401,312,334,-663,120,-561,2216,1813,-591,-9191,77,144,-663,69,873,1432,2381,2256,48,336,18.1,0.9993979768073032,23.83,0.998756476683938,4449.5,-7309.8271484375,39.400001525878906,2,12,0.6299999952316284,7.9221038818359375,3,0,0.0,0.0,0.0,0.0,1.5479847075520272,0.0,0.0,11.432360525083109,1.3962119871,4.2496529376,66.73103666879999,-0.7233483791351318,-0.0843998417258262,-0.6797544956207275,0.0870496034622192,2,44.825,-73.16378580729166,-4.2568314054,-67.4847757878,2.2396819536,-4.2424744698,-65.9772975498,0.5527420206,0.102014494412,-0.202501825734,0.03665191416,0.043982296992,-0.202501825734,0.021074850641999997,-0.32538,1.28528,1.05154,0.50634,0.83056,1.38098,-4.2496529376000005,-66.7310366688,1.3962119871,0.07299839570200001,-0.202501825734,0.028863382400999997,0.09048,1.05792,1.2162600000000001,66.37152,1.41216,9.88512,0.9990772267456206,20.965
0,5901925,319,-9247,835,544,-2089,423,-561,2216,1813,78,-9275,884,690,-1863,408,873,1432,2381,2256,192,368,18.09,0.999388107574636,23.82,0.998460399703923,4449.5,-7309.8271484375,39.400001525878906,2,12,0.6299999952316284,7.956352233886719,3,0,0.0,0.0,0.0,0.0,1.771945228660916,0.0,0.0,12.34294097212141,6.169893074099999,-1.4249258583,66.4797902958,-0.7239261865615845,-0.0870890691876411,-0.6782987713813782,0.0908693373203277,2,44.825,-73.16378580729166,2.2899312282,-66.3792917466,5.994020613,0.5599204884,-66.580288845,6.3457655352,0.16615534419199998,-0.638048739002,0.12919799741399998,0.21074850641999998,-0.569020967334,0.124616508144,-0.32538,1.28528,1.05154,0.50634,0.83056,1.38098,1.4249258583,-66.4797902958,6.1698930741,0.18845192530599997,-0.603534853168,0.126907252779,0.09048,1.05792,1.2162600000000001,66.37152,5.64864,10.82656,0.9989242536392795,20.955
0,5901941,225,-9294,-834,-209,-2043,319,-561,2216,1813,-331,-9119,-74,-609,-2231,327,873,1432,2381,2352,256,416,18.1,0.9994571922033062,23.82,0.9986281766592648,4449.5,-7309.8271484375,39.400001525878906,2,12,0.6299999952316284,7.94970703125,3,0,0.0,0.0,0.0,0.0,1.9690588598565044,0.0,0.0,13.205935838214591,-3.2590243812,0.3804587933999999,66.0885638007,-0.72283935546875,-0.0899660587310791,-0.678514301776886,0.0950146988034248,2,44.825,-73.16378580729166,1.6151552550000001,-66.7166797332,-5.9868421452,-2.3760728418,-65.4604478682,-0.5312066172000001,-0.063835417162,-0.623998838574,0.097433005142,-0.186008464362,-0.681420170758,0.099876466086,-0.32538,1.28528,1.05154,0.50634,0.83056,1.38098,-0.3804587934,-66.0885638007,-3.2590243811999997,-0.124921940762,-0.652709504666,0.098654735614,0.09048,1.05792,1.2162600000000001,69.19584,7.53152,12.23872,0.9990426844312855,20.96
0,5901956,-32,-9564,834,681,-1107,100,-549,2199,1848,-165,-9268,645,778,-846,52,873,1432,2381,2336,224,224,18.1,0.9992894152479644,23.82,0.9987367382186036,4449.5,-7309.8271484375,39.400001525878906,2,12,0.6299999952316284,7.96197509765625,3,0,0.0,0.0,0.0,0.0,2.1800627916392066,0.0,0.0,14.064084968073352,5.3084769381,0.7070790782999999,67.59245280479999,-0.7237111926078796,-0.0916945114731788,-0.6771257519721985,0.0966182798147201,2,44.825,-73.16378580729166,-0.2297109696,-68.6548660392,5.9868421452,-1.184447187,-66.5300395704,4.630111731,0.20799961285799998,-0.338113908126,0.0305432618,0.23762657680399998,-0.25839599482799996,0.015882496136,-0.31842,1.27542,1.07184,0.50634,0.83056,1.38098,-0.7070790782999999,-67.5924528048,5.3084769381,0.22281309483099998,-0.298254951477,0.023212878968,0.09396000000000002,1.0529899999999999,1.22641,68.72512,6.59008,6.59008,0.9990130767332841,20.96
0,5901972,-335,-9283,-706,-244,354,-122,-549,2199,1848,-54,-9168,-197,-35,655,-142,873,1432,2381,2304,112,544,18.1,0.9992499383172958,23.82,0.9983617073772514,4449.5,-7309.8271484375,39.400001525878906,2,12,0.6299999952316284,7.97015380859375,3,0,0.0,0.0,0.0,0.0,2.4530319755048904,0.0,0.0,14.997898749039432,-3.2410782117,1.3962119871,66.2249546889,-0.7235156297683716,-0.0912778154015541,-0.6775317192077637,0.0956260338425636,2,44.825,-73.16378580729166,-2.404786713,-66.6377165874,-5.0679982668,-0.3876372612,-65.8121927904,-1.4141581566,-0.074525558792,0.108123146772,-0.037262779396,-0.010690141629999999,0.20005836479,-0.043371431756,-0.31842,1.27542,1.07184,0.50634,0.83056,1.38098,-1.3962119871,-66.2249546889,-3.2410782117,-0.042607850211,0.154090755781,-0.040317105576000004,0.09396000000000002,1.0529899999999999,1.22641,67.78368,3.29504,16.00448,0.9988058228472736,20.96
0,5901987,-2,-9473,713,595,572,-27,-549,2199,1848,41,-9280,164,507,657,-33,873,1432,2381,2304,144,144,18.09,0.999437453737972,23.82,0.9984110535405872,4449.5,-7309.8271484375,40.900001525878906,2,12,0.7099999785423279,7.951751708984375,3,0,0.0,0.0,0.0,0.0,2.697818038661873,0.0,0.0,15.865560717190755,3.1477581303,-0.1399801221,67.3089033267,-0.724435567855835,-0.0906724035739898,-0.6767923831939697,0.0944652035832405,2,44.825,-73.16378580729166,-0.0143569356,-68.0016254694,5.118247541400001,0.2943171798,-66.616181184,1.1772687192,0.18173240771,0.174707457496,-0.008246680686,0.15485433732599999,0.20066923002599998,-0.010079276394,-0.31842,1.27542,1.07184,0.50634,0.83056,1.38098,0.1399801221,-67.3089033267,3.1477581303,0.16829337251799997,0.187688343761,-0.009162978539999998,0.09396000000000002,1.0529899999999999,1.22641,67.78368,4.23648,4.23648,0.9989242536392796,20.955
0,5902002,-119,-9345,-195,-172,2358,-23,-549,2199,1848,-229,-9241,277,-198,2303,16,873,1432,2381,2336,192,512,18.11,0.9990525536639526,23.82,0.9981741919565754,4449.5,-7309.8271484375,40.900001525878906,2,12,0.7099999785423279,7.951751708984375,3,0,0.0,0.0,0.0,0.0,3.031926199617696,0.0,0.0,16.83202711169329,0.2943171797999999,1.2490533972,66.70950126540001,-0.7245803475379944,-0.0872019752860069,-0.6776148676872253,0.0906492248177528,2,44.825,-73.16378580729166,-0.8542376682,-67.082781591,-1.3998012210000002,-1.6438691262,-66.3362209398,1.9884355806,-0.052534410296,0.720210113244,-0.0070249502139999994,-0.060475658364,0.7034113192539999,0.004886921888,-0.31842,1.27542,1.07184,0.50634,0.83056,1.38098,-1.2490533972,-66.70950126540001,0.29431717979999994,-0.056505034329999995,0.7118107162489999,-0.0010690141629999999,0.09396000000000002,1.0529899999999999,1.22641,68.72512,5.64864,15.06304,0.998613372810264,20.965
0,5902018,-984,-9477,137,331,2437,-36,-549,2199,1848,-143,-9310,670,393,2355,75,873,1432,2381,2256,80,176,18.1,0.99913150752529,23.82,0.9982630150505798,4449.5,-7309.8271484375,40.900001525878906,2,12,0.7099999785423279,7.9507293701171875,3,0,0.0,0.0,0.0,0.0,3.3456911757394803,0.0,0.0,17.751814147415526,2.8965117573,4.0450666053,67.4309372793,-0.725571870803833,-0.0837028250098228,-0.6775185465812683,0.0866483971476554,2,44.825,-73.16378580729166,-7.0636123152,-68.03033934060001,0.9834500886,-1.0265208954,-66.831535218,4.809573426,0.101098196558,0.744339290066,-0.010995574248,0.12003501887399999,0.7192938153899999,0.02290744635,-0.31842,1.27542,1.07184,0.50634,0.83056,1.38098,-4.045066605300001,-67.4309372793,2.8965117573,0.11056660771599999,0.731816552728,0.005955936051,0.09396000000000002,1.0529899999999999,1.22641,66.37152,2.3536,5.17792,0.9986972612879349,20.96
0,5902033,0,-9311,11,673,3093,-291,-549,2199,1848,119,-9187,144,906,3111,-300,873,1432,2381,2304,64,368,18.1,0.9990821613619542,23.82,0.9980656303972366,4449.5,-7309.8271484375,40.900001525878906,2,12,0.7099999785423279,7.96197509765625,3,0,0.0,0.0,0.0,0.0,3.69586253135294,0.0,0.0,18.70688060552881,0.5563312545,-0.4271188340999999,66.3936486822,-0.7272770404815674,-0.0797129645943641,-0.6768819689750671,0.0808997750282287,2,44.825,-73.16378580729166,0.0,-66.8387136858,0.07896314580000001,0.8542376682,-65.9485836786,1.0336993632,0.20555615191399998,0.9447030874739999,-0.08888089183799999,0.276721951908,0.950200874598,-0.0916297854,-0.31842,1.27542,1.07184,0.50634,0.83056,1.38098,0.4271188341,-66.3936486822,0.5563312545,0.241139051911,0.9474519810359999,-0.090255338619,0.09396000000000002,1.0529899999999999,1.22641,67.78368,1.88288,10.82656,0.9985738958795953,20.96
0,5902049,-282,-9362,144,236,1161,-393,-549,2199,1848,-264,-9230,82,348,1210,-404,873,1432,2381,2224,16,336,18.09,0.998963730569948,23.83,0.9981840611892424,4449.5,-7309.8271484375,40.900001525878906,2,12,0.7099999785423279,7.952774047851562,3,0,0.0,0.0,0.0,0.0,4.047941305950041,0.0,0.0,19.632953951481447,0.8111668614,1.9597217094,66.73103666879999,-0.7278149127960205,-0.0787717103958129,-0.6767229437828064,0.0782726928591728,2,44.825,-73.16378580729166,-2.0243279196,-67.2048155436,1.0336993632,-1.8951154992,-66.257257794,0.5886343596,0.072082097848,0.354607269498,-0.12003501887399999,0.106290551064,0.36957346778,-0.123394777672,-0.31842,1.27542,1.07184,0.50634,0.83056,1.38098,-1.9597217094000001,-66.7310366688,0.8111668614,0.089186324456,0.362090368639,-0.121714898273,0.09396000000000002,1.0529899999999999,1.22641,65.43008,0.47072,9.88512,0.9985738958795952,20.96
0,5902064,-324,-9297,-54,380,663,-610,-549,2199,1848,-289,-9192,-17,442,658,-625,873,1432,2381,2288,64,288,18.1,0.9990821613619542,23.82,0.9979965457685664,4449.5,-7309.8271484375,40.900001525878906,2,12,0.7099999785423279,7.9507293701171875,3,0,0.0,0.0,0.0,0.0,4.410898566369555,0.0,0.0,20.560829224898782,-0.2548356068999999,2.2002003807,66.3613455771,-0.7283987998962402,-0.0790302604436874,-0.6763055920600891,0.0761594325304031,2,44.825,-73.16378580729166,-2.3258235672,-66.7382151366,-0.3876372612,-2.0745771942,-65.9844760176,-0.12203395260000001,0.11606439483999999,0.202501825734,-0.18631389697999998,0.135001217156,0.200974662644,-0.19089538625,-0.31842,1.27542,1.07184,0.50634,0.83056,1.38098,-2.2002003807,-66.3613455771,-0.2548356069,0.12553280599799999,0.201738244189,-0.18860464161499998,0.09396000000000002,1.0529899999999999,1.22641,67.31296,1.88288,8.47296,0.9985393535652602,20.96
0,5902080,-356,-9366,229,531,108,-683,-549,2199,1848,-297,-9280,208,615,189,-703,873,1432,2381,2304,160,352,18.1,0.9990821613619542,23.82,0.9982235381199112,4449.5,-7309.8271484375,40.900001525878906,2,12,0.7099999785423279,7.946128845214844,3,0,0.0,0.0,0.0,0.0,4.743864496448345,0.0,0.0,21.43566012166166,1.5684952143,2.3437697367,66.9248552994,-0.7291271090507507,-0.0802358761429786,-0.6755351424217224,0.0747538208961486,2,44.825,-73.16378580729166,-2.5555345368,-67.2335294148,1.6438691262,-2.1320049366,-66.616181184,1.4931213024,0.16218472015799998,0.032986722744,-0.208610478094,0.18784106006999998,0.057726764801999994,-0.21471913045399998,-0.31842,1.27542,1.07184,0.50634,0.83056,1.38098,-2.3437697367,-66.92485529940001,1.5684952143,0.17501289011399998,0.045356743772999995,-0.21166480427399997,0.09396000000000002,1.0529899999999999,1.22641,67.78368,4.7072,10.35584,0.9986528497409326,20.96
0,5902095,-255,-9367,43,549,-326,-891,-549,2199,1848,-302,-9264,94,593,-159,-883,850,1453,2379,2336,160,384,18.11,0.9990032075006168,23.82,0.9979471996052308,4449.5,-7309.8271484375,40.900001525878906,2,12,0.7099999785423279,7.952774047851562,3,0,0.0,0.0,0.0,0.0,5.126792762256307,0.0,0.0,22.358795156266297,0.4917250442999999,1.9992032823,66.8710167909,-0.7297456860542297,-0.082369789481163,-0.6747256517410278,0.0737010091543197,2,44.825,-73.16378580729166,-1.830509289,-67.2407078826,0.3086741154,-2.1678972756,-66.50132569920001,0.6747759732,0.167682507282,-0.09957103346799999,-0.27214046263799996,0.181121542474,-0.048563786261999996,-0.26969700169399996,-0.31842,1.27542,1.07184,0.493,0.84274,1.37982,-1.9992032823,-66.8710167909,0.4917250443,0.174402024878,-0.07406740986499999,-0.27091873216599993,0.08729,1.05908,1.22583,68.72512,4.7072,11.29728,0.9984752035529239,20.965
0,5902111,-346,-9328,254,628,-461,-920,-549,2199,1848,-314,-9237,231,734,-355,-953,850,1453,2379,2224,144,272,18.1,0.9988847767086108,23.83,0.9981741919565754,4449.5,-7309.8271484375,40.900001525878906,2,12,0.7099999785423279,7.933349609375,3,0,0.0,0.0,0.0,0.0,5.495189461122431,0.0,0.0,23.250424101530168,1.7407784414999998,2.368894374,66.63412735349999,-0.7304913997650146,-0.0848601832985878,-0.6737041473388672,0.0728270187973976,2,44.825,-73.16378580729166,-2.4837498588,-66.96074763840001,1.8233308212000001,-2.2540388892000003,-66.3075070686,1.6582260618,0.19181168410399999,-0.14080443689799998,-0.28099800855999996,0.224187541612,-0.10842857938999999,-0.291077284954,-0.31842,1.27542,1.07184,0.493,0.84274,1.37982,-2.368894374,-66.6341273535,1.7407784415,0.207999612858,-0.124616508144,-0.28603764675699994,0.08729,1.05908,1.22583,65.43008,4.23648,8.00224,0.9985294843325931,20.965
0,5902126,-215,-9310,42,631,-499,-1119,-549,2199,1848,-164,-9218,63,734,-386,-1143,850,1453,2379,2288,112,320,18.09,0.9988650382432764,23.83,0.9981347150259068,4449.5,-7309.8271484375,40.900001525878906,2,12,0.7099999785423279,7.968109130859375,3,0,0.0,0.0,0.0,0.0,5.872059023850781,0.0,0.0,24.133197436842213,0.3768695595,1.3603196481,66.5013256992,-0.7311887741088867,-0.0877287164330482,-0.6726993918418884,0.0717096030712127,2,44.825,-73.16378580729166,-1.5433705770000001,-66.831535218,0.3014956476,-1.1772687192,-66.1711161804,0.45224347140000004,0.19272798195799998,-0.152410876382,-0.341779099542,0.224187541612,-0.117896990548,-0.34910948237399997,-0.31842,1.27542,1.07184,0.493,0.84274,1.37982,-1.3603196481,-66.50132569920001,0.3768695595,0.20845776178499997,-0.135153933465,-0.345444290958,0.08729,1.05908,1.22583,67.31296,3.29504,9.4144,0.9984998766345916,20.96
0,5902141,-365,-9349,132,671,-369,-1188,-549,2199,1848,-306,-9241,168,764,-287,-1210,850,1453,2379,2256,96,320,18.1,0.9990426844312856,23.82,0.997907722674562,4449.5,-7309.8271484375,40.900001525878906,2,12,0.7099999785423279,7.94970703125,3,0,0.0,0.0,0.0,0.0,6.2556336945567415,0.0,0.0,25.006907904129317,1.07677017,2.4083759469,66.723858201,-0.7319369316101074,-0.0905394628643989,-0.6716625690460205,0.0702877640724182,2,44.825,-73.16378580729166,-2.620140747,-67.1114954622,0.9475577496,-2.1966111468,-66.3362209398,1.2059825904,0.204945286678,-0.112704636042,-0.36285395018399996,0.23335052015199997,-0.087659161366,-0.36957346778,-0.31842,1.27542,1.07184,0.493,0.84274,1.37982,-2.4083759469,-66.723858201,1.07677017,0.21914790341499998,-0.10018189870399999,-0.366213708982,0.08729,1.05908,1.22583,66.37152,2.82432,9.4144,0.9984752035529239,20.96
0,5902157,-231,-9301,57,690,-184,-1419,-614,2202,1915,-187,-9204,108,793,-114,-1443,850,1453,2379,2288,160,288,18.09,0.9989735998026154,23.83,0.9979175919072292,4449.5,-7309.8271484375,40.900001525878906,2,12,0.7099999785423279,7.94970703125,3,0,0.0,0.0,0.0,0.0,6.646904846243817,0.0,0.0,25.87810498862301,0.5922235935,1.5002997701999998,66.41877331949999,-0.7326932549476624,-0.093466468155384,-0.6706511974334717,0.0682029500603675,2,44.825,-73.16378580729166,-1.6582260618,-66.7669290078,0.4091726646,-1.3423734786000001,-66.07061763120001,0.7752745224,0.21074850641999998,-0.056199601711999995,-0.433408884942,0.24220806607399997,-0.034819318451999995,-0.44073926777399997,-0.35612,1.27716,1.1107,0.493,0.84274,1.37982,-1.5002997702,-66.4187733195,0.5922235935,0.22647828624699998,-0.04550946008199999,-0.437074076358,0.06844,1.0599500000000002,1.24526,67.31296,4.7072,8.47296,0.9984455958549223,20.96
0,5902172,-235,-9364,91,710,88,-1509,-614,2202,1915,-187,-9256,134,818,168,-1519,850,1453,2379,2288,32,288,18.09,0.9989143844066124,23.82,0.9978485072785592,4449.5,-7309.8271484375,40.900001525878906,2,12,0.7099999785423279,7.94970703125,3,0,0.0,0.0,0.0,0.0,7.055031378947455,0.0,0.0,26.748822842521864,0.8075776275,1.5146567057999998,66.831535218,-0.7334985136985779,-0.0961093306541442,-0.669664204120636,0.0655198618769645,2,44.825,-73.16378580729166,-1.6869399330000001,-67.2191724792,0.6532405698,-1.3423734786000001,-66.4438979568,0.9619146852,0.21685715877999998,0.026878070384,-0.46089782056199996,0.24984388152399997,0.051312679824,-0.46395214674199997,-0.35612,1.27716,1.1107,0.493,0.84274,1.37982,-1.5146567058000002,-66.831535218,0.8075776275,0.23335052015199997,0.039095375104,-0.46242498365199997,0.06844,1.0599500000000002,1.24526,67.31296,0.94144,8.47296,0.9983814458425858,20.955
0,5902188,-160,-9234,5,713,-132,-1738,-614,2202,1915,-118,-9134,41,818,-59,-1746,850,1453,2379,2256,96,368,18.09,0.998707130520602,23.81,0.997720207253886,4449.5,-7309.8271484375,40.900001525878906,2,12,0.7099999785423279,7.962486267089844,3,0,0.0,0.0,0.0,0.0,7.507808091262034,0.0,0.0,27.65990393696285,0.1651047594,0.9978070242,65.9270482752,-0.7342092394828796,-0.0994766429066658,-0.6686477661132812,0.0628610476851463,2,44.825,-73.16378580729166,-1.148554848,-66.28597166520001,0.035892339,-0.8470592004,-65.5681248852,0.2943171798,0.217773456634,-0.040317105576,-0.530841890084,0.24984388152399997,-0.018020524462,-0.533285351028,-0.35612,1.27716,1.1107,0.493,0.84274,1.37982,-0.9978070242000001,-65.92704827520001,0.1651047594,0.233808669079,-0.029168815018999997,-0.532063620556,0.06844,1.0599500000000002,1.24526,66.37152,2.82432,10.82656,0.998213668887244,20.95
0,5902203,-206,-9255,114,771,-177,-1913,-614,2202,1915,-164,-9144,163,867,-94,-1926,850,1453,2379,2224,80,368,18.1,0.9988354305452752,23.81,0.9977300764865532,4449.5,-7309.8271484375,40.900001525878906,2,12,0.7099999785423279,7.94970703125,3,0,0.0,0.0,0.0,0.0,7.939442116350104,0.0,0.0,28.51976323337929,0.9942177903,1.328016543,66.0383145261,-0.7349395155906677,-0.1032092720270156,-0.6675431132316589,0.0599840693175792,2,44.825,-73.16378580729166,-1.4787643668000001,-66.436719489,0.8183453292,-1.1772687192,-65.6399095632,1.1700902514,0.235488548478,-0.054061573386,-0.5842925982339999,0.26481007980599996,-0.028710666091999997,-0.588263222268,-0.35612,1.27716,1.1107,0.493,0.84274,1.37982,-1.328016543,-66.03831452610001,0.9942177903,0.250149314142,-0.041386119739,-0.586277910251,0.06844,1.0599500000000002,1.24526,65.43008,2.3536,10.82656,0.9982827535159142,20.955
0,5902219,-156,-9124,132,783,-335,-2043,-614,2202,1915,-101,-9013,155,881,-260,-2067,850,1453,2379,2240,-16,336,18.11,0.9987959536146064,23.82,0.9977399457192204,4449.5,-7309.8271484375,40.900001525878906,2,12,0.7099999785423279,7.974754333496094,3,0,0.0,0.0,0.0,0.0,8.37288219485955,0.0,0.0,29.369292941931192,1.0301101293,0.9224331123,65.0979352443,-0.7356165051460266,-0.107416883111,-0.6663796901702881,0.0571680106222629,2,44.825,-73.16378580729166,-1.1198409768,-65.4963402072,0.9475577496,-0.7250252478,-64.6995302814,1.112662509,0.239153739894,-0.10231992703,-0.623998838574,0.269086136458,-0.07941248068,-0.631329221406,-0.35612,1.27716,1.1107,0.493,0.84274,1.37982,-0.9224331123,-65.0979352443,1.0301101293000001,0.254119938176,-0.090866203855,-0.62766402999,0.06844,1.0599500000000002,1.24526,65.9008,-0.47072,9.88512,0.9982679496669133,20.965
0,5902234,-227,-9113,172,805,-597,-2189,-614,2202,1915,-181,-9001,199,899,-507,-2213,850,1453,2379,2144,80,320,18.09,0.9986577843572664,23.82,0.9975228226005428,4449.5,-7309.8271484375,40.900001525878906,2,12,0.7099999785423279,7.962997436523437,3,0,0.0,0.0,0.0,0.0,8.85251000912353,0.0,0.0,30.24089582681657,1.3316057768999998,1.4644074311999995,65.01538286459999,-0.7362328171730042,-0.1122584119439125,-0.6651191711425781,0.0545513145625591,2,44.825,-73.16378580729166,-1.6295121906,-65.4173770614,1.2346964616,-1.2993026718,-64.61338866780001,1.4285150922,0.24587325749,-0.182343272946,-0.668592000802,0.274583923582,-0.15485433732599999,-0.6759223836339999,-0.35612,1.27716,1.1107,0.493,0.84274,1.37982,-1.4644074312000002,-65.01538286460001,1.3316057769,0.260228590536,-0.168598805136,-0.672257192218,0.06844,1.0599500000000002,1.24526,63.076480000000004,2.3536,9.4144,0.9980903034789046,20.955
0,5902250,-221,-9149,153,774,-1049,-2293,-614,2202,1915,-177,-9032,205,881,-955,-2328,850,1453,2379,2192,64,368,18.08,0.9984209227732544,23.82,0.9976313841598816,4449.5,-7309.8271484375,40.900001525878906,2,12,0.7099999785423279,7.951751708984375,3,0,0.0,0.0,0.0,0.0,9.345993797982189,0.0,0.0,31.11210627936798,1.2849457362,1.4285150921999998,65.2558615359,-0.7367013096809387,-0.1179631948471069,-0.6637744307518005,0.0525310821831226,2,44.825,-73.16378580729166,-1.5864413838,-65.6758019022,1.0983055734,-1.2705888006000001,-64.8359211696,1.4715858990000001,0.23640484633199998,-0.32039881628199995,-0.700356993074,0.269086136458,-0.29168815019,-0.7110471347039999,-0.35612,1.27716,1.1107,0.493,0.84274,1.37982,-1.4285150922,-65.25586153590001,1.2849457362,0.252745491395,-0.30604348323599995,-0.7057020638889999,0.06844,1.0599500000000002,1.24526,64.48864,1.88288,10.82656,0.998026153466568,20.95
0,5902265,-193,-9124,119,746,-1468,-2380,-614,2202,1915,-149,-9028,161,874,-1383,-2422,850,1453,2379,2176,112,336,18.09,0.9984998766345916,23.8,0.9975030841352084,4449.5,-7309.8271484375,40.900001525878906,2,12,0.7099999785423279,7.954307556152344,3,0,0.0,0.0,0.0,0.0,9.842044661315548,0.0,0.0,31.975564377549365,1.004985492,1.2275179937999998,65.1517737528,-0.737036406993866,-0.1244575083255767,-0.6623273491859436,0.0510904230177402,2,44.825,-73.16378580729166,-1.3854442854,-65.4963402072,0.8542376682,-1.0695917022,-64.8072072984,1.1557333158,0.227852733028,-0.448375083224,-0.72692963084,0.266948108132,-0.42241331069399995,-0.739757800796,-0.35612,1.27716,1.1107,0.493,0.84274,1.37982,-1.2275179938,-65.15177375280001,1.004985492,0.24740042058,-0.43539419695899995,-0.733343715818,0.06844,1.0599500000000002,1.24526,64.01792,3.29504,9.88512,0.9980014803849,20.945
0,5902280,-179,-9182,163,770,-2024,-2444,-614,2202,1915,-133,-9088,205,875,-1921,-2481,850,1453,2379,2224,112,368,18.09,0.9983814458425856,23.8,0.997295830249198,4449.5,-7309.8271484375,40.900001525878906,2,12,0.7099999785423279,7.968109130859375,3,0,0.0,0.0,0.0,0.0,10.378307396652287,0.0,0.0,32.86694963508633,1.3208380752,1.1198409768,65.57530335299998,-0.7372702956199646,-0.1318804919719696,-0.6606757640838623,0.0504737421870231,2,44.825,-73.16378580729166,-1.2849457362,-65.9126913396,1.1700902514,-0.9547362174,-65.2379153664,1.4715858990000001,0.23518311585999999,-0.6181956188319999,-0.7464773183919999,0.26725354074999996,-0.586736059178,-0.7577783252579999,-0.35612,1.27716,1.1107,0.493,0.84274,1.37982,-1.1198409768,-65.57530335300001,1.3208380752000002,0.25121832830499996,-0.602465839005,-0.7521278218249999,0.06844,1.0599500000000002,1.24526,65.43008,3.29504,10.82656,0.9978386380458918,20.945
0,5902296,-168,-9071,177,821,-2500,-2507,-614,2202,1915,-88,-8957,242,915,-2388,-2561,663,1466,2453,2272,176,432,18.09,0.998282753515914,23.81,0.9974043918085368,4449.5,-7309.8271484375,40.900001525878906,2,12,0.7099999785423279,7.9507293701171875,3,0,0.0,0.0,0.0,0.0,10.907863005720726,0.0,0.0,33.742968584457536,1.5038890041,0.9188438784,64.7067087492,-0.737449049949646,-0.1401344686746597,-0.6587702035903931,0.0505281314253807,2,44.825,-73.16378580729166,-1.2059825904,-65.1158814138,1.2705888006000001,-0.6317051664000001,-64.2975360846,1.7371892076000002,0.250760179378,-0.763581545,-0.7657195733259999,0.27947084547,-0.729373091784,-0.7822129346979999,-0.35612,1.27716,1.1107,0.38454,0.85028,1.4227400000000001,-0.9188438784000001,-64.7067087492,1.5038890041000001,0.265115512424,-0.7464773183919999,-0.7739662540119999,0.01421,1.06372,1.26672,66.84224,5.17792,12.70944,0.9978435726622255,20.95
0,5902311,-134,-8984,116,753,-3134,-2536,-614,2202,1915,-92,-8878,168,862,-3009,-2581,663,1466,2453,2208,112,288,18.1,0.9983123612139156,23.82,0.9974241302738712,4449.5009765625,-7309.8271484375,46.79999923706055,2,12,0.6299999952316284,7.931304931640625,3,0,0.0,0.0,0.0,0.0,11.425310800918396,0.0,0.0,34.57864651193662,1.0193424275999998,0.8111668613999999,64.1108959218,-0.7373961210250854,-0.1493583768606186,-0.6567147970199585,0.05162088945508,2,44.825016276041666,-73.16378580729166,-0.9619146852,-64.4913547152,0.8327022648,-0.6604190376,-63.730437128400006,1.2059825904,0.22999076135399998,-0.9572258248119999,-0.774577119248,0.26328291671599996,-0.919046747562,-0.7883215870579999,-0.35612,1.27716,1.1107,0.38454,0.85028,1.4227400000000001,-0.8111668614,-64.11089592180001,1.0193424276,0.24663683903499997,-0.938136286187,-0.781449353153,0.01421,1.06372,1.26672,64.95936,3.29504,8.47296,0.9978682457438934,20.96
0,5902327,-86,-8970,219,806,-3765,-2588,-614,2202,1915,-66,-8873,258,903,-3637,-2629,663,1466,2453,2240,128,384,18.08,0.9983222304465827,23.82,0.9973747841105354,4449.5009765625,-7309.8271484375,46.79999923706055,2,12,0.6299999952316284,7.9507293701171875,3,0,0.0,0.0,0.0,0.0,11.942643588898502,0.0,0.0,35.39170293265299,1.7120645703,0.5455635527999999,64.0427004777,-0.7372466325759888,-0.1596038937568664,-0.6543030738830566,0.0536803677678108,2,44.825016276041666,-73.16378580729166,-0.6173482308,-64.390856166,1.5720844482,-0.4737788748,-63.694544789400005,1.8520446924,0.24617869010799998,-1.14995380677,-0.790459615384,0.275805654054,-1.110858431666,-0.8029823527219999,-0.35612,1.27716,1.1107,0.38454,0.85028,1.4227400000000001,-0.5455635528,-64.04270047770001,1.7120645703,0.260992172081,-1.130406119218,-0.796720984053,0.01421,1.06372,1.26672,65.9008,3.76576,11.29728,0.997848507278559,20.95
0,5902342,-20,-8936,214,786,-4255,-2604,-614,2202,1915,-4,-8844,251,871,-4107,-2651,663,1466,2453,2096,0,448,18.09,0.9981347150259068,23.82,0.9972168763878608,4449.5009765625,-7309.8271484375,46.79999923706055,2,12,0.6299999952316284,7.943572998046875,3,0,0.0,0.0,0.0,0.0,12.501442107545028,0.0,0.0,36.23539908746467,1.6689937634999998,0.0861416135999999,63.81657874199999,-0.7368998527526855,-0.1705776751041412,-0.6516801118850708,0.0565247572958469,2,44.825016276041666,-73.16378580729166,-0.143569356,-64.14678826080001,1.5361921092000002,-0.0287138712,-63.4863692232,1.8017954178,0.24007003774799998,-1.29961578959,-0.795346537272,0.266031810278,-1.254411762126,-0.809701870318,-0.35612,1.27716,1.1107,0.38454,0.85028,1.4227400000000001,-0.0861416136,-63.816578742000004,1.6689937635,0.253050924013,-1.277013775858,-0.802524203795,0.01421,1.06372,1.26672,61.664320000000004,0.0,13.18016,0.9976757957068838,20.955
0,5902358,-12,-9025,222,792,-5099,-2618,-784,2234,1983,12,-8888,265,885,-4912,-2671,663,1466,2453,2208,96,416,18.09,0.9983419689119172,23.82,0.9972168763878608,4449.5009765625,-7309.8271484375,46.79999923706055,2,12,0.6299999952316284,7.974754333496094,3,0,0.0,0.0,0.0,0.0,13.025038907899187,0.0,0.0,37.02393398448652,1.7479569093,0.0,64.2939468507,-0.7363396286964417,-0.1827855706214904,-0.6486186385154724,0.0607227720320224,2,44.825016276041666,-73.16378580729166,-0.0861416136,-64.78567189500001,1.5936198516,0.0861416136,-63.802221806400006,1.902293967,0.241902633456,-1.557400919182,-0.7996225939239999,0.27030786693,-1.5002850196159998,-0.8158105226779999,-0.45472,1.29572,1.15014,0.38454,0.85028,1.4227400000000001,0.0,-64.29394685070001,1.7479569093,0.256105250193,-1.5288429693989998,-0.807716558301,-0.03509000000000001,1.073,1.28644,64.95936,2.82432,12.23872,0.9977794226498891,20.955
0,5902373,-2,-8882,239,765,-5653,-2632,-784,2234,1983,54,-8770,273,859,-5641,-2697,663,1466,2453,2160,80,336,18.09,0.9980754996299038,23.8,0.9970787071305206,4449.5009765625,-7309.8271484375,46.79999923706055,2,12,0.6299999952316284,7.94970703125,3,0,0.0,0.0,0.0,0.0,13.597646986253302,0.0,0.0,37.85985234854209,1.8376877568,-0.1866401627999999,63.35715680279999,-0.7354991436004639,-0.1959410309791565,-0.6452099680900574,0.0659723579883575,2,44.825016276041666,-73.16378580729166,-0.0143569356,-63.7591509996,1.7156538042,0.3876372612,-62.955162606,1.9597217094000001,0.23365595276999998,-1.7266105895539998,-0.803898650576,0.26236661886199997,-1.7229453981379999,-0.8237517707459999,-0.45472,1.29572,1.15014,0.38454,0.85028,1.4227400000000001,0.1866401628,-63.357156802800006,1.8376877568,0.24801128581599996,-1.7247779938459997,-0.813825210661,-0.03509000000000001,1.073,1.28644,63.547200000000004,2.3536,9.88512,0.9975771033802122,20.945
0,5902389,23,-8859,263,804,-6384,-2623,-784,2234,1983,63,-8734,270,869,-6186,-2699,663,1466,2453,2144,32,480,18.09,0.9980360226992352,23.79,0.9969602763385148,4449.5009765625,-7309.8271484375,46.79999923706055,2,12,0.6299999952316284,7.964019775390625,3,0,0.0,0.0,0.0,0.0,14.184489535765408,0.0,0.0,38.68355317886628,1.9130616687,-0.3086741154,63.14539200269999,-0.7344285249710083,-0.2099914103746414,-0.6413226127624512,0.0722755640745163,2,44.825016276041666,-73.16378580729166,0.1651047594,-63.5940462402,1.8879370314000001,0.45224347140000004,-62.696737765200005,1.938186306,0.245567824872,-1.9498818333119998,-0.8011497570139999,0.265420945042,-1.8894061749479998,-0.824362635982,-0.45472,1.29572,1.15014,0.38454,0.85028,1.4227400000000001,0.3086741154,-63.14539200270001,1.9130616687000002,0.255494384957,-1.9196440041299998,-0.8127561964979999,-0.03509000000000001,1.073,1.28644,63.076480000000004,0.94144,14.1216,0.997498149518875,20.939999999999998
0,5902404,81,-8860,254,810,-6952,-2618,-784,2234,1983,111,-8783,286,876,-6894,-2693,663,1466,2453,2144,48,336,18.09,0.9980656303972366,23.81,0.9970885763631878,4449.5009765625,-7309.8271484375,46.79999923706055,2,12,0.6299999952316284,7.9507293701171875,3,0,0.0,0.0,0.0,0.0,14.741640773329664,0.0,0.0,39.45859343034997,1.938186306,-0.6891329088,63.32485369769999,-0.7330620288848877,-0.2249128669500351,-0.6369397640228271,0.0796370655298233,2,44.825016276041666,-73.16378580729166,0.5814558918,-63.601224708000004,1.8233308212000001,0.7968099258,-63.0484826874,2.0530417908,0.24740042057999997,-2.123367560336,-0.7996225939239999,0.267558973368,-2.105652468492,-0.822530040274,-0.45472,1.29572,1.15014,0.38454,0.85028,1.4227400000000001,0.6891329088,-63.32485369770001,1.938186306,0.25747969697399997,-2.114510014414,-0.811076317099,-0.03509000000000001,1.073,1.28644,63.076480000000004,1.41216,9.88512,0.9975771033802122,20.95
0,5902419,50,-8898,269,825,-7672,-2584,-784,2234,1983,75,-8832,315,901,-7424,-2670,663,1466,2453,2192,64,400,18.09,0.9977596841845546,23.8,0.9969306686405132,4449.5009765625,-7309.8271484375,46.79999923706055,2,12,0.6299999952316284,7.991111755371094,3,0,0.0,0.0,0.0,0.0,15.354586785382669,0.0,0.0,40.28410555992802,2.0961125975999995,-0.4486542374999999,63.63711704699999,-0.7313897013664246,-0.2406295090913772,-0.6319913864135742,0.0880536511540412,2,44.825016276041666,-73.16378580729166,0.35892339,-63.874006484400006,1.9310078382,0.538385085,-63.4002276096,2.261217357,0.25198190984999996,-2.3432790452959997,-0.789237884912,0.27519478881799997,-2.267531756032,-0.8155050900599999,-0.45472,1.29572,1.15014,0.38454,0.85028,1.4227400000000001,0.4486542375,-63.637117047000004,2.0961125976,0.263588349334,-2.305405400664,-0.802371487486,-0.03509000000000001,1.073,1.28644,64.48864,1.88288,11.768,0.9973451764125338,20.945
0,5902435,54,-8808,332,840,-8207,-2518,-784,2234,1983,91,-8682,352,921,-7976,-2622,663,1466,2453,2240,128,432,18.09,0.9978287688132248,23.8,0.9967628916851716,4449.5009765625,-7309.8271484375,46.79999923706055,2,12,0.6299999952316284,7.9578857421875,3,0,0.0,0.0,0.0,0.0,15.972132585686,0.0,0.0,41.10588250290724,2.4550359876,-0.5204389155,62.775700911,-0.7293961644172668,-0.2569526135921478,-0.6264708638191223,0.0974212884902954,2,44.825016276041666,-73.16378580729166,0.3876372612,-63.227944382400004,2.3832513096000003,0.6532405698,-62.323457439600006,2.5268206656000003,0.25656339912,-2.506685495926,-0.7690793321239999,0.281303441178,-2.436130561168,-0.800844324396,-0.45472,1.29572,1.15014,0.38454,0.85028,1.4227400000000001,0.5204389155,-62.775700911,2.4550359876000005,0.268933420149,-2.4714080285469997,-0.7849618282599999,-0.03509000000000001,1.073,1.28644,65.9008,3.76576,12.70944,0.9972958302491982,20.945
0,5902450,42,-8793,322,823,-8588,-2408,-784,2234,1983,138,-8691,315,884,-8422,-2488,663,1466,2453,2240,48,384,18.09,0.9975129533678756,23.8,0.9965556377991612,4449.5009765625,-7309.8271484375,46.79999923706055,2,12,0.6299999952316284,7.923126220703125,3,0,0.0,0.0,0.0,0.0,16.652222350505255,0.0,0.0,41.96906072504842,2.2863419943,-0.6460621019999999,62.75416550759999,-0.7270480394363403,-0.273555040359497,-0.6204710602760315,0.1076312139630317,2,44.825016276041666,-73.16378580729166,0.3014956476,-63.120267365400004,2.3114666316,0.9906285564,-62.3880636498,2.261217357,0.251371044614,-2.623055323384,-0.7354817441439999,0.270002434312,-2.5723535087959997,-0.759916353584,-0.45472,1.29572,1.15014,0.38454,0.85028,1.4227400000000001,0.646062102,-62.75416550760001,2.2863419943,0.26068673946300003,-2.59770441609,-0.747699048864,-0.03509000000000001,1.073,1.28644,65.9008,1.41216,11.29728,0.9970342955835184,20.945
0,5902466,30,-8787,313,785,-9273,-2301,-784,2234,1983,46,-8682,345,855,-9013,-2405,663,1466,2453,2144,-16,416,18.08,0.9973846533432026,23.8,0.996614853195164,4449.5009765625,-7309.8271484375,46.79999923706055,2,12,0.6299999952316284,7.954307556152344,3,0,0.0,0.0,0.0,0.0,17.33111566731265,0.0,0.0,42.81661552816658,2.3617159062,-0.2727817764,62.70032699909999,-0.7242274880409241,-0.2907745838165283,-0.6138249039649963,0.1190111264586448,2,44.825016276041666,-73.16378580729166,0.215354034,-63.0771965586,2.2468604214,0.3302095188,-62.323457439600006,2.4765713910000002,0.23976460512999997,-2.832276666714,-0.702800454018,0.26114488839,-2.752864186034,-0.73456544629,-0.45472,1.29572,1.15014,0.38454,0.85028,1.4227400000000001,0.2727817764,-62.7003269991,2.3617159062,0.25045474676,-2.7925704263739997,-0.718682950154,-0.03509000000000001,1.073,1.28644,63.076480000000004,-0.47072,12.23872,0.9969997532691832,20.939999999999998
0,5902481,130,-8712,351,778,-9501,-2188,-784,2234,1983,106,-8631,370,781,-9404,-2268,569,1467,2431,2240,64,448,18.09,0.9975524302985442,23.78,0.996358253145818,4449.5009765625,-7309.8271484375,46.79999923706055,2,12,0.6299999952316284,7.961463928222656,3,0,0.0,0.0,0.0,0.0,18.011332453131534,0.0,0.0,43.65104179245039,2.5878376419,-0.8470592003999999,62.24808352769999,-0.720992922782898,-0.3080678284168243,-0.6067039370536804,0.131048634648323,2,44.825016276041666,-73.16378580729166,0.933200814,-62.5388114736,2.5196421978,0.7609175868,-61.9573555818,2.6560330860000003,0.23762657680399998,-2.901915303618,-0.668286568184,0.23854287465799998,-2.872288339672,-0.692721177624,-0.45472,1.29572,1.15014,0.33002,0.85086,1.40998,0.8470592003999999,-62.248083527700004,2.5878376419,0.23808472573099998,-2.887101821645,-0.680503872904,-0.062350000000000017,1.07329,1.28006,65.9008,1.88288,13.18016,0.9969553417221811,20.935000000000002
0,5902497,99,-8756,398,671,-10001,-2074,-784,2234,1983,141,-8663,358,682,-9852,-2170,569,1467,2431,2112,-48,336,18.08,0.9973747841105354,23.8,0.996308906982482,4449.5009765625,-7309.8271484375,46.79999923706055,2,12,0.6299999952316284,7.952774047851562,3,0,0.0,0.0,0.0,0.0,18.71157591091781,0.0,0.0,44.48680863977339,2.7134608284,-0.8614161359999999,62.5208653041,-0.7171672582626343,-0.3256511092185974,-0.5990667343139648,0.144019678235054,2,44.825016276041666,-73.16378580729166,0.7106683122,-62.854664056800004,2.8570301844,1.0121639598,-62.1870665514,2.5698914724,0.204945286678,-3.054631612618,-0.633467249732,0.20830504547599998,-3.009122152536,-0.6627887810599999,-0.45472,1.29572,1.15014,0.33002,0.85086,1.40998,0.8614161360000001,-62.5208653041,2.7134608284,0.206625166077,-3.031876882577,-0.648128015396,-0.062350000000000017,1.07329,1.28006,62.135040000000004,-1.41216,9.88512,0.9968418455465087,20.939999999999998
0,5902512,131,-8734,359,565,-10394,-1943,-784,2234,1983,183,-8632,430,643,-10065,-2067,569,1467,2431,2176,32,384,18.08,0.997226745620528,23.79,0.9963286454478164,4449.5009765625,-7309.8271484375,46.79999923706055,2,12,0.6299999952316284,7.94970703125,3,0,0.0,0.0,0.0,0.0,19.417657464514,0.0,0.0,45.31942121932035,2.8319055471,-1.1270194446,62.3306359074,-0.7128242254257202,-0.3432499468326568,-0.5909454822540283,0.1576216369867324,2,44.825016276041666,-73.16378580729166,0.9403792818000001,-62.696737765200005,2.5770699402,1.3136596074,-61.964534049600005,3.0867411540000003,0.17256942916999998,-3.174666631492,-0.593455576774,0.196393173374,-3.07417930017,-0.631329221406,-0.45472,1.29572,1.15014,0.33002,0.85086,1.40998,1.1270194446000001,-62.33063590740001,2.8319055471,0.184481301272,-3.124422965831,-0.61239239909,-0.062350000000000017,1.07329,1.28006,64.01792,0.94144,11.29728,0.9967776955341723,20.935
0,5902528,179,-8721,462,523,-10706,-1867,-784,2234,1983,191,-8658,548,557,-10548,-1954,569,1467,2431,2160,48,448,18.07,0.997108314828522,23.79,0.9962792992844808,4449.5009765625,-7309.8271484375,46.79999923706055,2,12,0.6299999952316284,7.94561767578125,3,0,0.0,0.0,0.0,0.0,20.13474505942083,0.0,0.0,46.1475759648392,3.625126239,-1.328016543,62.3772959481,-0.7078975439071655,-0.3610033094882965,-0.5822275280952454,0.1719561368227005,2,44.825016276041666,-73.16378580729166,1.2849457362,-62.603417683800004,3.3164521236,1.3710873498,-62.1511742124,3.9338003544,0.15974125921399998,-3.269961608308,-0.570242697806,0.17012596822599999,-3.221703254664,-0.596815335572,-0.45472,1.29572,1.15014,0.33002,0.85086,1.40998,1.328016543,-62.3772959481,3.625126239,0.16493361371999998,-3.245832431486,-0.5835290166889999,-0.062350000000000017,1.07329,1.28006,63.547200000000004,1.41216,13.18016,0.9966938070565015,20.93
0,5902543,158,-8682,419,390,-11249,-1714,-784,2234,1983,175,-8602,423,427,-10995,-1840,569,1467,2431,2240,64,512,18.08,0.9969602763385148,23.79,0.9961115223291388,4449.5009765625,-7309.8271484375,46.79999923706055,2,12,0.6299999952316284,7.9343719482421875,3,0,0.0,0.0,0.0,0.0,20.8826964898084,0.0,0.0,46.99637969912245,3.0221349438,-1.1952148886999998,62.03631872759999,-0.7022524476051331,-0.3789145350456238,-0.5728838443756104,0.1872684806585312,2,44.825016276041666,-73.16378580729166,1.1341979124000001,-62.323457439600006,3.0077780082000003,1.256231865,-61.749180015600004,3.0364918794,0.11911872102,-3.435811519882,-0.523511507252,0.13041972788599998,-3.3582316349099997,-0.5619960171199999,-0.45472,1.29572,1.15014,0.33002,0.85086,1.40998,1.1952148887,-62.036318727600005,3.0221349438000003,0.12476922445299998,-3.397021577396,-0.5427537621859999,-0.062350000000000017,1.07329,1.28006,65.9008,1.88288,15.06304,0.9965358993338268,20.935
0,5902558,197,-8701,506,319,-11674,-1606,-757,2225,1889,286,-8618,491,353,-11420,-1702,569,1467,2431,2080,-64,368,18.07,0.9969010609425116,23.79,0.9960621761658032,4449.5009765625,-7309.8271484375,46.79999923706055,2,12,0.6299999952316284,7.966064453125,3,0,0.0,0.0,0.0,0.0,21.63234753021488,0.0,0.0,47.8281344385704,3.5784661983,-1.7335999737,62.1619419141,-0.6959460973739624,-0.3968896567821502,-0.5628350377082825,0.2033578008413314,2,44.825016276041666,-73.16378580729166,1.4141581566,-62.4598483278,3.6323047068000003,2.0530417908,-61.8640355004,3.5246276898,0.097433005142,-3.565620382532,-0.49052478450799997,0.10781771415399999,-3.4880404975599997,-0.5198463158359999,-0.43906,1.2905,1.09562,0.33002,0.85086,1.40998,1.7335999737,-62.1619419141,3.5784661983,0.10262535964799999,-3.526830440046,-0.505185550172,-0.05452000000000001,1.0706799999999999,1.2528000000000001,61.1936,-1.88288,10.82656,0.9964816185541574,20.93
0,5902573,182,-8649,512,176,-12436,-1489,-757,2225,1889,176,-8533,569,216,-12121,-1617,569,1467,2431,2176,48,544,18.07,0.9970589686651864,23.79,0.9959240069084628,4449.5009765625,-7309.8271484375,46.79999923706055,2,12,0.6299999952316284,7.94970703125,3,0,0.0,0.0,0.0,0.0,22.36580259633184,0.0,0.0,48.630757301286046,3.8799618459,-1.2849457362,61.6702168698,-0.6886762380599976,-0.4152766466140747,-0.5518655180931091,0.2207143008708953,2,44.825016276041666,-73.16378580729166,1.3064811396,-62.0865680022,3.6753755136,1.2634103328000001,-61.253865737400005,4.0845481782,0.053756140768,-3.798360037448,-0.454789168202,0.065973445488,-3.7021487627779996,-0.49388454330599996,-0.43906,1.2905,1.09562,0.33002,0.85086,1.40998,1.2849457362,-61.6702168698,3.8799618459000005,0.059864793128,-3.7502544001129996,-0.474336855754,-0.05452000000000001,1.0706799999999999,1.2528000000000001,64.01792,1.41216,16.00448,0.9964914877868246,20.93
0,5902588,220,-8657,444,69,-12734,-1388,-757,2225,1889,234,-8620,491,67,-12629,-1500,569,1467,2431,2064,-16,432,18.08,0.9969701455711818,23.79,0.995746360720454,4449.5009765625,-7309.8271484375,46.79999923706055,2,12,0.6299999952316284,7.952262878417969,3,0,0.0,0.0,0.0,0.0,23.12243452625439,0.0,0.0,49.4380522894915,3.3559336965,-1.6295121906,62.0111940903,-0.6805675625801086,-0.4335882067680359,-0.5401970744132996,0.2387808561325073,2,44.825016276041666,-73.16378580729166,1.579262916,-62.143995744600005,3.1872397032,1.6797614652000001,-61.878392436000006,3.5246276898,0.021074850641999997,-3.8893789576119997,-0.42394047378399996,0.020463985405999998,-3.8573085327219996,-0.458148927,-0.43906,1.2905,1.09562,0.33002,0.85086,1.40998,1.6295121906,-62.01119409030001,3.3559336965,0.020769418023999998,-3.8733437451669994,-0.44104470039199994,-0.05452000000000001,1.0706799999999999,1.2528000000000001,60.72288,-0.47072,12.70944,0.9963582531458179,20.935
0,5902604,159,-8609,519,-60,-13632,-1267,-757,2225,1889,279,-8546,519,-37,-13345,-1380,569,1467,2431,2064,-16,336,18.09,0.9968221070811744,23.79,0.995815445349124,4449.5009765625,-7309.8271484375,46.79999923706055,2,12,0.6299999952316284,7.9578857421875,3,0,0.0,0.0,0.0,0.0,23.875811026894464,0.0,0.0,50.23384102168737,3.7256247882,-1.5720844482,61.57330755449999,-0.6713681817054749,-0.4522481560707092,-0.5273469686508179,0.2581504881381988,2,44.825016276041666,-73.16378580729166,1.1413763802,-61.7994292902,3.7256247882,2.0027925162,-61.3471858188,3.7256247882,-0.01832595708,-4.163657448576,-0.38698312700599996,-0.011301006866,-4.07599828721,-0.42149701283999996,-0.43906,1.2905,1.09562,0.33002,0.85086,1.40998,1.5720844482,-61.573307554500005,3.7256247882,-0.014813481973,-4.119827867893,-0.404240069923,-0.05452000000000001,1.0706799999999999,1.2528000000000001,60.72288,-0.47072,9.88512,0.9963187762151492,20.939999999999998
0,5902619,187,-8540,459,-226,-14514,-1159,-757,2225,1889,124,-8514,577,-125,-13997,-1303,569,1467,2431,2016,-48,400,18.07,0.9965753762644954,23.78,0.9955785837651122,4449.5009765625,-7309.8271484375,46.79999923706055,2,12,0.6299999952316284,7.962486267089844,3,0,0.0,0.0,0.0,0.0,24.68136962357986,0.0,0.0,51.06659672781658,3.7184463204,-1.1162517428999998,61.2107949306,-0.660967230796814,-0.47115159034729,-0.5133007764816284,0.2786768674850464,2,44.825016276041666,-73.16378580729166,1.3423734786000001,-61.304115012000004,3.2949167202000003,0.8901300072,-61.1174748492,4.1419759206,-0.06902777166799999,-4.433049017651999,-0.35399640426199996,-0.03817907725,-4.275140354146,-0.397978701254,-0.43906,1.2905,1.09562,0.33002,0.85086,1.40998,1.1162517429,-61.2107949306,3.7184463204,-0.053603424458999994,-4.354094685899,-0.375987552758,-0.05452000000000001,1.0706799999999999,1.2528000000000001,59.31072,-1.41216,11.768,0.9960769800148038,20.925
0,5902635,196,-8479,554,-277,-14948,-1042,-757,2225,1889,165,-8411,599,-306,-14723,-1170,569,1467,2431,2128,-48,528,18.07,0.9964372070071552,23.78,0.9954798914384406,4449.5009765625,-7309.8271484375,46.79999923706055,2,12,0.6299999952316284,7.94970703125,3,0,0.0,0.0,0.0,0.0,25.50403618044734,0.0,0.0,51.89890877324645,4.1383866867,-1.2957134379,60.622160571,-0.6494492888450623,-0.4899420142173767,-0.4981459081172943,0.3000387847423553,2,44.825016276041666,-73.16378580729166,1.4069796888000001,-60.8662284762,3.9768711612,1.184447187,-60.378092665800004,4.2999022122,-0.084604835186,-4.565606773863999,-0.318260787956,-0.093462381108,-4.496884434814,-0.35735616305999995,-0.43906,1.2905,1.09562,0.33002,0.85086,1.40998,1.2957134379,-60.622160571,4.1383866867000005,-0.089033608147,-4.5312456043389995,-0.337808475508,-0.05452000000000001,1.0706799999999999,1.2528000000000001,62.605760000000004,-1.41216,15.533760000000001,0.9959585492227979,20.925
0,5902650,54,-8499,451,-496,-15675,-1007,-757,2225,1889,82,-8428,437,-446,-15220,-1137,569,1467,2431,2096,48,576,18.08,0.9963977300764866,23.76,0.9954897606711078,4449.50244140625,-7309.82763671875,58.59999847412109,2,12,0.6399999856948853,7.9445953369140625,3,0,0.0,0.0,0.0,0.0,26.314794675686635,0.0,0.0,52.69600448066093,3.1872397031999995,-0.4881358104,60.75496222529999,-0.6365514993667603,-0.508658230304718,-0.4819399416446686,0.3221845328807831,2,44.82504069010417,-73.1637939453125,0.3876372612,-61.0097978322,3.2374889778,0.5886343596,-60.5001266184,3.1369904286000003,-0.151494578528,-4.78765628715,-0.307570646326,-0.136222947628,-4.64868444596,-0.347276886666,-0.43906,1.2905,1.09562,0.33002,0.85086,1.40998,0.4881358104,-60.754962225300005,3.1872397032000004,-0.143858763078,-4.718170366555,-0.327423766496,-0.05452000000000001,1.0706799999999999,1.2528000000000001,61.664320000000004,1.41216,16.94592,0.9959437453737972,20.92
0,5902666,122,-8440,428,-634,-16075,-1003,-757,2225,1889,124,-8355,467,-639,-15755,-1135,569,1467,2431,2128,32,432,18.07,0.9962200838884776,23.78,0.9952726375524305,4449.50244140625,-7309.82763671875,58.59999847412109,2,12,0.6399999856948853,7.943061828613281,3,0,0.0,0.0,0.0,0.0,27.163633516273364,0.0,0.0,53.52335172400337,3.2123643405,-0.8829515393999999,60.2811833505,-0.6222967505455017,-0.5270980596542358,-0.4647979438304901,0.344785988330841,2,44.82504069010417,-73.1637939453125,0.8757730716000001,-60.586268232,3.0723842184000003,0.8901300072,-59.976098469,3.3523444626,-0.193644279812,-4.9098293343499995,-0.306348915854,-0.19517144290199998,-4.81209089659,-0.34666602142999997,-0.43906,1.2905,1.09562,0.33002,0.85086,1.40998,0.8829515394,-60.2811833505,3.2123643405,-0.194407861357,-4.86096011547,-0.326507468642,-0.05452000000000001,1.0706799999999999,1.2528000000000001,62.605760000000004,0.94144,12.70944,0.995746360720454,20.925
0,5902681,89,-8338,437,-779,-16311,-1006,-757,2225,1889,123,-8426,436,-807,-16027,-1142,751,1508,2152,2176,80,464,18.08,0.9963385146804836,23.77,0.9951936836910932,4449.50244140625,-7309.82763671875,58.59999847412109,2,12,0.6399999856948853,7.9507293701171875,3,0,0.0,0.0,0.0,0.0,27.99012364224084,0.0,0.0,54.30599185655652,3.1334011947,-0.7609175868,60.1699170996,-0.606816291809082,-0.5449695587158203,-0.4469396770000458,0.3674605190753937,2,44.82504069010417,-73.1637939453125,0.6388836342,-59.8540645164,3.1369904286000003,0.8829515394,-60.485769682800004,3.1298119608,-0.237932009422,-4.981911432197999,-0.307265213708,-0.24648412272599998,-4.895168568686,-0.348804049756,-0.43906,1.2905,1.09562,0.43558,0.87464,1.24816,0.7609175868,-60.1699170996,3.1334011947000002,-0.24220806607399997,-4.938540000442,-0.328034631732,-0.0017399999999999916,1.08257,1.1718899999999999,64.01792,2.3536,13.65088,0.9957660991857884,20.924999999999997
0,5902697,53,-8294,411,-960,-16483,-1004,-757,2225,1889,127,-8223,474,-924,-16132,-1125,751,1508,2152,2192,128,448,18.08,0.9960325684678016,23.78,0.9951542067604244,4449.50244140625,-7309.82763671875,58.59999847412109,2,12,0.6399999856948853,7.950218200683594,3,0,0.0,0.0,0.0,0.0,28.84718578539393,0.0,0.0,55.10733494012533,3.1764720015,-0.6460621019999999,59.2833763263,-0.5902263522148132,-0.5620786547660828,-0.4284798800945282,0.390006959438324,2,44.82504069010417,-73.1637939453125,0.3804587934,-59.5382119332,2.9503502658,0.9116654106000001,-59.028540719400006,3.4025937372,-0.29321531328,-5.034445842494,-0.30665434847199996,-0.282219739032,-4.927238993576,-0.34361169524999996,-0.43906,1.2905,1.09562,0.43558,0.87464,1.24816,0.646062102,-59.2833763263,3.1764720015,-0.287717526156,-4.9808424180349995,-0.32513302186099996,-0.0017399999999999916,1.08257,1.1718899999999999,64.48864,3.76576,13.18016,0.995593387614113,20.93
0,5902712,-39,-8207,376,-1092,-16720,-972,-757,2225,1889,20,-8107,449,-1138,-16481,-1091,751,1508,2152,2048,16,384,18.09,0.9959437453737972,23.77,0.9949272144090796,4449.50244140625,-7309.82763671875,58.59999847412109,2,12,0.6399999856948853,7.95379638671875,3,0,0.0,0.0,0.0,0.0,29.72999304875517,0.0,0.0,55.91022688783138,2.9611179675,0.0681954441,58.5547618446,-0.5723958015441895,-0.5784648656845093,-0.4092291295528412,0.4126415252685547,2,44.82504069010417,-73.1637939453125,-0.2799602442,-58.9136852346,2.6991038928,0.143569356,-58.1958384546,3.2231320422,-0.333532418856,-5.10683337296,-0.29688050469599997,-0.34758231928399996,-5.0338349772579996,-0.33322698623799996,-0.43906,1.2905,1.09562,0.43558,0.87464,1.24816,-0.06819544409999999,-58.5547618446,2.9611179675,-0.34055736907,-5.070334175109,-0.31505374546699993,-0.0017399999999999916,1.08257,1.1718899999999999,60.25216,0.47072,11.29728,0.9954354798914384,20.93
0,5902727,-50,-8296,335,-1241,-16942,-990,-757,2225,1889,21,-8212,362,-1243,-16553,-1107,751,1508,2152,2032,32,400,18.08,0.9960424377004689,23.78,0.9951147298297556,4449.50244140625,-7309.82763671875,58.59999847412109,2,12,0.6399999856948853,7.946640014648437,3,0,0.0,0.0,0.0,0.0,30.555083198775733,0.0,0.0,56.62672628091027,2.5016960283,0.1040877830999999,59.2510732212,-0.5534358620643616,-0.5940330624580383,-0.3893593549728393,0.4350089728832245,2,44.82504069010417,-73.1637939453125,-0.35892339,-59.5525688688,2.404786713,0.1507478238,-58.9495775736,2.5986053436,-0.37904187893799995,-5.174639414155999,-0.30237829182,-0.37965274417399997,-5.055826125754,-0.338113908126,-0.43906,1.2905,1.09562,0.43558,0.87464,1.24816,-0.1040877831,-59.2510732212,2.5016960283,-0.379347311556,-5.115232769955,-0.320246099973,-0.0017399999999999916,1.08257,1.1718899999999999,59.78144,0.94144,11.768,0.9955785837651122,20.93
0,5902743,-75,-8311,226,-1325,-17181,-1058,-757,2225,1889,-21,-8212,287,-1344,-16816,-1178,751,1508,2152,1984,-16,400,18.07,0.9960029607698,23.78,0.995006168270417,4449.50244140625,-7309.82763671875,58.59999847412109,2,12,0.6399999856948853,7.94970703125,3,0,0.0,0.0,0.0,0.0,31.38275632016379,0.0,0.0,57.34483838446501,1.8412769907,0.3445664543999999,59.3049117297,-0.5332076549530029,-0.608917772769928,-0.3687427639961242,0.4570969045162201,2,44.82504069010417,-73.1637939453125,-0.538385085,-59.6602458858,1.6223337228,-0.1507478238,-58.9495775736,2.0602202586000002,-0.40469821884999996,-5.247637809857999,-0.323147709844,-0.410501438592,-5.1361549042879995,-0.359799624004,-0.43906,1.2905,1.09562,0.43558,0.87464,1.24816,-0.3445664544,-59.3049117297,1.8412769907000002,-0.407599828721,-5.1918963570729995,-0.341473666924,-0.0017399999999999916,1.08257,1.1718899999999999,58.36928,-0.47072,11.768,0.9955045645201085,20.925
0,5902758,-103,-8293,260,-1349,-17275,-1181,-650,2288,1436,-79,-8209,302,-1374,-16986,-1310,751,1508,2152,1872,80,336,18.07,0.9959042684431284,23.76,0.9948186528497408,4449.50244140625,-7309.82763671875,58.59999847412109,2,12,0.6399999856948853,7.950218200683594,3,0,0.0,0.0,0.0,0.0,32.23190987648594,0.0,0.0,58.07534224803921,2.0171494518,0.6532405697999999,59.2295378178,-0.5118107795715332,-0.6230935454368591,-0.3475346863269806,0.4785644710063934,2,44.82504069010417,-73.1637939453125,-0.7393821834000001,-59.5310334654,1.866401628,-0.5670989562000001,-58.9280421702,2.1678972756,-0.41202860168199995,-5.27634847595,-0.360715921858,-0.419664417132,-5.188078449348,-0.40011672958,-0.377,1.32704,0.83288,0.43558,0.87464,1.24816,-0.6532405698000001,-59.2295378178,2.0171494518,-0.41584650940699996,-5.232213462649,-0.38041632571899997,0.02929000000000001,1.10084,1.04052,55.07424,2.3536,9.88512,0.9953614606464346,20.915
0,5902774,-18,-8215,264,-1291,-17414,-1315,-650,2288,1436,-25,-8148,247,-1328,-17115,-1406,751,1508,2152,2016,96,384,18.07,0.9956970145571182,23.78,0.9947890451517396,4449.50244140625,-7309.82763671875,58.59999847412109,2,12,0.6399999856948853,7.958908081054687,3,0,0.0,0.0,0.0,0.0,33.09522348378423,0.0,0.0,58.80817979629967,1.8340985229,0.1543370577,58.73063430569999,-0.4893347024917602,-0.6365819573402405,-0.3256507515907287,0.4992660880088806,2,44.82504069010417,-73.1637939453125,-0.1292124204,-58.971112977000004,1.8951154992,-0.179461695,-58.490155634400004,1.7730815466,-0.39431350983799995,-5.318803609852,-0.40164389267,-0.40561451670399995,-5.22747925707,-0.42943826090799997,-0.377,1.32704,0.83288,0.43558,0.87464,1.24816,-0.1543370577,-58.73063430570001,1.8340985229000002,-0.39996401327099995,-5.273141433460999,-0.415541076789,0.02929000000000001,1.10084,1.04052,59.31072,2.82432,11.29728,0.9952430298544289,20.925
0,5902789,-80,-8161,178,-1316,-17556,-1417,-650,2288,1436,-41,-8059,259,-1338,-17247,-1541,751,1508,2152,1968,48,400,18.07,0.9957957068837898,23.78,0.9946508758943992,4449.50244140625,-7309.82763671875,58.59999847412109,2,12,0.6399999856948853,7.94970703125,3,0,0.0,0.0,0.0,0.0,33.94515978704403,0.0,0.0,59.50717171431484,1.5684952143,0.4342973018999999,58.217373858,-0.4657293856143951,-0.6492615938186646,-0.3031986355781555,0.5192553997039795,2,44.82504069010417,-73.1637939453125,-0.574277424,-58.5834757158,1.2777672684,-0.2943171798,-57.851272000200005,1.8592231602,-0.401949325288,-5.362175041607999,-0.43279801970599996,-0.40866884288399996,-5.267796362646,-0.47067166433799995,-0.377,1.32704,0.83288,0.43558,0.87464,1.24816,-0.43429730190000004,-58.217373858,1.5684952143,-0.40530908408599997,-5.314985702127,-0.451734842022,0.02929000000000001,1.10084,1.04052,57.89856,1.41216,11.768,0.9952232913890945,20.925
0,5902805,-39,-8178,260,-1192,-17544,-1532,-650,2288,1436,-18,-8101,290,-1197,-17259,-1654,751,1508,2152,1936,80,400,18.08,0.9954601529731064,23.78,0.994641006661732,4449.50244140625,-7309.82763671875,58.59999847412109,2,12,0.6399999856948853,7.95379638671875,3,0,0.0,0.0,0.0,0.0,34.82367824285841,0.0,0.0,60.218041431965005,1.974078645,0.2045863323,58.4291386581,-0.441291332244873,-0.6611673831939697,-0.2802490592002868,0.5381264686584473,2,44.82504069010417,-73.1637939453125,-0.2799602442,-58.705509668400005,1.866401628,-0.1292124204,-58.152767647800005,2.081755662,-0.364075680656,-5.358509850192,-0.467922770776,-0.365602843746,-5.271461554061999,-0.505185550172,-0.377,1.32704,0.83288,0.43558,0.87464,1.24816,-0.2045863323,-58.4291386581,1.974078645,-0.364839262201,-5.314985702127,-0.48655416047399996,0.02929000000000001,1.10084,1.04052,56.95712,2.3536,11.768,0.9950505798174192,20.93
0,5902820,-87,-8194,93,-1240,-17803,-1613,-650,2288,1436,-46,-8074,131,-1241,-17455,-1742,751,1508,2152,1904,80,272,18.07,0.9954996299037748,23.77,0.9945127066370588,4449.50244140625,-7309.82763671875,58.59999847412109,2,12,0.6399999856948853,7.931304931640625,3,0,0.0,0.0,0.0,0.0,35.69475773894909,0.0,0.0,60.9125057967504,0.8039883936,0.4773681087,58.3896570852,-0.4156902730464935,-0.6721610426902771,-0.2566451728343963,0.5563582181930542,2,44.82504069010417,-73.1637939453125,-0.6245266986,-58.8203651532,0.6675975054000001,-0.3302095188,-57.958949017200005,0.9403792818000001,-0.37873644632,-5.437616898253999,-0.492662812834,-0.37904187893799995,-5.33132634719,-0.532063620556,-0.377,1.32704,0.83288,0.43558,0.87464,1.24816,-0.4773681087,-58.3896570852,0.8039883936000001,-0.37888916262899996,-5.384471622722,-0.512363216695,0.02929000000000001,1.10084,1.04052,56.01568,2.3536,8.00224,0.9950061682704168,20.92
0,5902836,1,-8075,138,-1072,-17867,-1698,-650,2288,1436,39,-7987,157,-1065,-17554,-1822,751,1508,2152,1920,48,320,18.07,0.9953318529484332,23.76,0.994384406612386,4449.50244140625,-7309.82763671875,58.59999847412109,2,12,0.6399999856948853,7.94970703125,3,0,0.0,0.0,0.0,0.0,36.58686703450534,0.0,0.0,61.61785835964106,1.0588240005,-0.1435693559999999,57.6502749018,-0.3892639279365539,-0.6823756098747253,-0.2324278056621551,0.573423445224762,2,44.82504069010417,-73.1637939453125,0.0071784678,-57.966127485,0.9906285564,0.2799602442,-57.334422318600005,1.1270194446000001,-0.32742376649599997,-5.457164585806,-0.518624585364,-0.32528573817,-5.361564176372,-0.556498229996,-0.377,1.32704,0.83288,0.43558,0.87464,1.24816,0.14356935599999998,-57.6502749018,1.0588240005,-0.326354752333,-5.409364381089,-0.5375614076799999,0.02929000000000001,1.10084,1.04052,56.4864,1.41216,9.4144,0.9948581297804096,20.915
0,5902851,16,-7992,3,-1035,-18010,-1755,-650,2288,1436,7,-7935,62,-1051,-17602,-1868,751,1508,2152,2016,32,384,18.07,0.9952331606217616,23.78,0.9942264988897114,4449.50244140625,-7309.82763671875,58.59999847412109,2,12,0.6399999856948853,7.975776672363281,3,0,0.0,0.0,0.0,0.0,37.49403191715583,0.0,0.0,62.31696133925789,0.2333002034999999,-0.0825523797,57.1657283253,-0.3619877099990845,-0.6915674805641174,-0.2077134996652603,0.5895376205444336,2,44.82504069010417,-73.1637939453125,0.1148554848,-57.370314657600005,0.0215354034,0.050249274600000005,-56.961141993000005,0.4450650036,-0.31612275962999997,-5.500841450179999,-0.5360342445899999,-0.32100968151799997,-5.376224942036,-0.570548130424,-0.377,1.32704,0.83288,0.43558,0.87464,1.24816,0.08255237970000001,-57.16572832530001,0.2333002035,-0.31856622057399997,-5.438533196108,-0.5532911875069999,0.02929000000000001,1.10084,1.04052,59.31072,0.94144,11.29728,0.9947298297557365,20.925
0,5902866,115,-8022,-7,-927,-18019,-1784,-650,2288,1436,141,-7916,37,-921,-17697,-1907,751,1508,2152,2048,112,352,18.07,0.995183814458426,23.77,0.99426597582038,4449.50244140625,-7309.82763671875,58.59999847412109,2,12,0.6399999856948853,7.952262878417969,3,0,0.0,0.0,0.0,0.0,38.38177366043245,0.0,0.0,62.97644135182317,0.1076770169999999,-0.9188438784,57.2052098982,-0.334027349948883,-0.6997947096824646,-0.1825102269649505,0.6044858694076538,2,44.82504069010417,-73.1637939453125,0.825523797,-57.585668691600006,-0.050249274600000005,1.0121639598,-56.8247511048,0.26560330860000003,-0.283136036886,-5.503590343741999,-0.544891790512,-0.281303441178,-5.405241040746,-0.5824600025259999,-0.377,1.32704,0.83288,0.43558,0.87464,1.24816,0.9188438784,-57.2052098982,0.10767701700000001,-0.282219739032,-5.454415692244,-0.563675896519,0.02929000000000001,1.10084,1.04052,60.25216,3.29504,10.35584,0.994724895139403,20.92
0,5902882,108,-8013,-35,-818,-18299,-1803,-650,2288,1436,119,-7925,-5,-809,-17932,-1937,542,1545,1688,1936,-16,240,18.07,0.9950357759684184,23.78,0.9940685911670368,4449.50244140625,-7309.82763671875,58.59999847412109,2,12,0.6399999856948853,7.943572998046875,3,0,0.0,0.0,0.0,0.0,39.29625625970576,0.0,0.0,63.65473960318668,-0.1435693559999999,-0.8147560952999999,57.2052098982,-0.3051391243934631,-0.7070890069007874,-0.1565277576446533,0.618396520614624,2,44.82504069010417,-73.1637939453125,0.7752745224,-57.5210624814,-0.251246373,0.8542376682,-56.889357315000005,-0.035892339,-0.24984388152399997,-5.589111476782,-0.5506950102539999,-0.247094987962,-5.4770177059759995,-0.591622981066,-0.377,1.32704,0.83288,0.31436000000000003,0.8961,0.97904,0.8147560953,-57.2052098982,-0.143569356,-0.24846943474299998,-5.5330645913789995,-0.57115899566,-0.03131999999999999,1.11157,0.90596,56.95712,-0.47072,7.0608,0.9945521835677276,20.925
0,5902897,142,-7827,-30,-702,-18466,-1757,-650,2288,1436,182,-7739,12,-696,-18140,-1889,542,1545,1688,1904,32,272,18.07,0.9949074759437454,23.78,0.993960029607698,4449.50244140625,-7309.82763671875,58.59999847412109,2,12,0.6399999856948853,7.95379638671875,3,0,0.0,0.0,0.0,0.0,40.22193813602475,0.0,0.0,64.33414643438519,-0.0646062101999999,-1.1629117835999998,55.8700148874,-0.2755615413188934,-0.7133259177207947,-0.1298176646232605,0.6311729550361633,2,44.82504069010417,-73.1637939453125,1.0193424276,-56.1858674706,-0.215354034,1.3064811396,-55.554162304200005,0.0861416136,-0.21441369783599998,-5.6401187239879995,-0.536645109826,-0.212581102128,-5.5405476905199995,-0.576962215402,-0.377,1.32704,0.83288,0.31436000000000003,0.8961,0.97904,1.1629117836,-55.8700148874,-0.0646062102,-0.21349739998199999,-5.590333207254,-0.556803662614,-0.03131999999999999,1.11157,0.90596,56.01568,0.94144,8.00224,0.9944337527757217,20.925
0,5902913,180,-7795,-44,-529,-18654,-1699,-650,2288,1436,203,-7718,12,-522,-18345,-1833,542,1545,1688,1856,80,240,18.07,0.9949272144090796,23.76,0.9936639526276831,4449.50244140625,-7309.82763671875,58.59999847412109,2,12,0.6399999856948853,7.94970703125,3,0,0.0,0.0,0.0,0.0,41.16387912870319,0.0,0.0,65.00008940788842,-0.1148554847999999,-1.3746765837,55.6797854907,-0.2453465014696121,-0.7185461521148682,-0.1023601219058036,0.6426655054092407,2,44.82504069010417,-73.1637939453125,1.292124204,-55.956156501,-0.31585258320000004,1.4572289634,-55.4034144804,0.0861416136,-0.161573854922,-5.6975400561719995,-0.518930017982,-0.159435826596,-5.603161377209999,-0.559857988794,-0.377,1.32704,0.83288,0.31436000000000003,0.8961,0.97904,1.3746765837,-55.6797854907,-0.11485548480000002,-0.160504840759,-5.650350716690999,-0.539394003388,-0.03131999999999999,1.11157,0.90596,54.60352,2.3536,7.0608,0.9942955835183813,20.915
0,5902928,251,-7882,-53,-414,-18845,-1570,-650,2288,1436,266,-7757,-43,-404,-18476,-1757,542,1545,1688,1936,16,336,18.07,0.9946212681963976,23.78,0.993703429558352,4449.50244140625,-7309.82763671875,58.59999847412109,2,12,0.6399999856948853,7.951240539550781,3,0,0.0,0.0,0.0,0.0,42.11997876486191,0.0,0.0,65.66768929134432,-0.3445664544,-1.8556339263,56.1320289621,-0.2146390527486801,-0.7225953340530396,-0.0742330700159072,0.652897834777832,2,44.82504069010417,-73.1637939453125,1.8017954178,-56.5806831996,-0.3804587934,1.9094724348,-55.6833747246,-0.3086741154,-0.126449103852,-5.75587768621,-0.47952921025999995,-0.123394777672,-5.6431730501679995,-0.536645109826,-0.377,1.32704,0.83288,0.31436000000000003,0.8961,0.97904,1.8556339263,-56.1320289621,-0.3445664544,-0.124921940762,-5.699525368189,-0.5080871600429999,-0.03131999999999999,1.11157,0.90596,56.95712,0.47072,9.88512,0.9941623488773748,20.925
0,5902944,298,-7885,-9,-253,-19011,-1438,-650,2288,1436,306,-7821,13,-251,-18672,-1581,542,1545,1688,1952,-16,304,18.08,0.9946311374290648,23.76,0.9935751295336788,4449.50244140625,-7309.82763671875,58.59999847412109,2,12,0.6399999856948853,7.951240539550781,3,0,0.0,0.0,0.0,0.0,43.06944540294925,0.0,0.0,66.32406495659636,0.0143569355999999,-2.1678972756,56.3725076334,-0.1835410147905349,-0.7254820466041565,-0.0453603155910968,0.661763608455658,2,44.82504069010417,-73.1637939453125,2.1391834044,-56.602218603000004,-0.0646062102,2.1966111468,-56.1427966638,0.0933200814,-0.07727445235399999,-5.806579500798,-0.43921210468399996,-0.07666358711799999,-5.703037843295999,-0.482888969058,-0.377,1.32704,0.83288,0.31436000000000003,0.8961,0.97904,2.1678972756,-56.372507633400005,0.014356935600000002,-0.07696901973599998,-5.754808672047,-0.46105053687099995,-0.03131999999999999,1.11157,0.90596,57.42784,-0.47072,8.94368,0.9941031334813718,20.92
0,5902959,290,-7841,-6,-127,-19223,-1179,-1087,2322,1044,310,-7767,50,-120,-18866,-1354,542,1545,1688,2000,0,352,18.08,0.9944732297063904,23.78,0.9934468295090056,4449.50244140625,-7309.82763671875,58.59999847412109,2,12,0.6399999856948853,7.951240539550781,3,0,0.0,0.0,0.0,0.0,44.03539325451752,0.0,0.0,66.99122583178858,0.1579262916,-2.15354034,56.02076271119999,-0.1522027403116226,-0.7270997166633606,-0.0156417619436979,0.6692651510238647,2,44.82504069010417,-73.1637939453125,2.081755662,-56.2863660198,-0.0430708068,2.225325018,-55.7551594026,0.35892339,-0.038789942486,-5.871331215814,-0.360105056622,-0.03665191416,-5.762291771188,-0.41355576477199996,-0.63046,1.34676,0.6055200000000001,0.31436000000000003,0.8961,0.97904,2.15354034,-56.0207627112,0.1579262916,-0.037720928323,-5.816811493501,-0.38683041069699997,-0.15805,1.12143,0.7922800000000001,58.84,0.0,10.35584,0.993960029607698,20.93
0,5902975,374,-7766,152,-34,-19460,-1023,-1087,2322,1044,383,-7696,180,-33,-19088,-1199,542,1545,1688,1856,-16,400,18.06,0.99433506044905,23.77,0.993219837157661,4449.50341796875,-7309.82861328125,76.30000305175781,2,12,0.7099999785423279,7.9578857421875,3,0,0.0,0.0,0.0,0.0,45.02827054745176,0.0,0.0,67.67141591889923,1.1916256547999995,-2.7170500623,55.4967345618,-0.1204788833856582,-0.727394163608551,0.0147588271647691,0.6753997802734375,2,44.82505696614583,-73.16381022135417,2.6847469572000002,-55.747980934800005,1.0911271056,2.7493531674000002,-55.2454881888,1.292124204,-0.010384709011999999,-5.94371874628,-0.312457568214,-0.010079276394,-5.8300978123839995,-0.36621370898199995,-0.63046,1.34676,0.6055200000000001,0.31436000000000003,0.8961,0.97904,2.7170500623000002,-55.496734561800004,1.1916256548000002,-0.010231992702999999,-5.886908279331999,-0.339335638598,-0.15805,1.12143,0.7922800000000001,54.60352,-0.47072,11.768,0.9937774488033555,20.915
0,5902990,395,-7700,31,-6,-19676,-743,-1087,2322,1044,401,-7621,58,2,-19310,-918,542,1545,1688,2016,-16,368,18.07,0.9942955835183814,23.76,0.9932000986923266,4449.50341796875,-7309.82861328125,76.30000305175781,2,12,0.7099999785423279,7.9415283203125,3,0,0.0,0.0,0.0,0.0,46.005312233328894,0.0,0.0,68.31557850958517,0.3194418170999999,-2.8570301844,54.9906525819,-0.0886430516839027,-0.7262056469917297,0.0459371693432331,0.6801894307136536,2,44.82505696614583,-73.16381022135417,2.835494781,-55.27420206,0.2225325018,2.8785655878000003,-54.7071031038,0.4163511324,-0.001832595708,-6.009692191768,-0.226936435174,0.000610865236,-5.89790385358,-0.280387143324,-0.63046,1.34676,0.6055200000000001,0.31436000000000003,0.8961,0.97904,2.8570301844,-54.9906525819,0.31944181709999997,-0.0006108652360000001,-5.953798022674,-0.253661789249,-0.15805,1.12143,0.7922800000000001,59.31072,-0.47072,10.82656,0.993747841105354,20.915
0,5903005,344,-7646,84,-78,-19916,-541,-1087,2322,1044,353,-7574,88,-95,-19529,-707,542,1545,1688,1920,-16,368,18.08,0.9940685911670368,23.77,0.993160621761658,4449.50341796875,-7309.82861328125,76.30000305175781,2,12,0.7099999785423279,7.95379638671875,3,0,0.0,0.0,0.0,0.0,46.99501742908794,0.0,0.0,68.95539627590566,0.6173482308,-2.5016960283,54.62813995799999,-0.056622102856636,-0.7233432531356812,0.0777080357074737,0.683761715888977,2,44.82505696614583,-73.16381022135417,2.4693929232,-54.8865647988,0.6029912952,2.5339991334,-54.3697151172,0.6317051664000001,-0.023823744204,-6.082996020087999,-0.165239046338,-0.029016098709999997,-5.964793596922,-0.21594086092599998,-0.63046,1.34676,0.6055200000000001,0.31436000000000003,0.8961,0.97904,2.5016960283,-54.628139958000006,0.6173482308,-0.026419921457,-6.023894808505,-0.190589953632,-0.15805,1.12143,0.7922800000000001,56.4864,-0.47072,10.82656,0.9936146064643474,20.924999999999997
0,5903021,370,-7671,59,-127,-20101,-311,-1087,2322,1044,386,-7597,78,-143,-19720,-489,542,1545,1688,1872,-16,304,18.07,0.9938810757463608,23.76,0.9929928448063164,4449.50341796875,-7309.82861328125,76.30000305175781,2,12,0.7099999785423279,7.951751708984375,3,0,0.0,0.0,0.0,0.0,48.0091040820812,0.0,0.0,69.60576913521618,0.4917250442999999,-2.7134608284,54.8004231852,-0.024569172412157,-0.7188417315483093,0.1099733188748359,0.6859802007675171,2,44.82505696614583,-73.16381022135417,2.6560330860000003,-55.0660264938,0.4235296002,2.7708885708,-54.534819876600004,0.5599204884,-0.038789942486,-6.139501054418,-0.094989544198,-0.043676864374,-6.0231312269599995,-0.149356550202,-0.63046,1.34676,0.6055200000000001,0.31436000000000003,0.8961,0.97904,2.7134608284,-54.8004231852,0.49172504429999997,-0.041233403429999996,-6.081316140688999,-0.1221730472,-0.15805,1.12143,0.7922800000000001,55.07424,-0.47072,8.94368,0.9934369602763387,20.915
