,packetType,timestamp_ms,imu1_accel_x,imu1_accel_y,imu1_accel_z,imu1_gyro_x,imu1_gyro_y,imu1_gyro_z,imu1_mag_x,imu1_mag_y,imu1_mag_z,imu2_accel_x,imu2_accel_y,imu2_accel_z,imu2_gyro_x,imu2_gyro_y,imu2_gyro_z,imu2_mag_x,imu2_mag_y,imu2_mag_z,high_g_accel_x,high_g_accel_y,high_g_accel_z,baro1_temp,baro1_pres,baro2_temp,baro2_pres,gps_lat,gps_long,gps_alt,gps_fix_quality,gps_sats_tracked,gps_hdop,battery_voltage,pyro_cont,trigger_status,heading,vtg,pos_x,pos_y,pos_z,vel_x,vel_y,vel_z,acc_x,acc_y,acc_z,q_x,q_y,q_z,q_w,state,gps_lat_mod,gps_long_mod,imu1_accel_x_real,imu1_accel_y_real,imu1_accel_z_real,imu2_accel_x_real,imu2_accel_y_real,imu2_accel_z_real,imu1_gyro_x_real,imu1_gyro_y_real,imu1_gyro_z_real,imu2_gyro_x_real,imu2_gyro_y_real,imu2_gyro_z_real,imu1_mag_x_real,imu1_mag_y_real,imu1_mag_z_real,imu2_mag_x_real,imu2_mag_y_real,imu2_mag_z_real,imu_accel_x_avg,imu_accel_y_avg,imu_accel_z_avg,imu_gyro_x_avg,imu_gyro_y_avg,imu_gyro_z_avg,imu_mag_x_avg,imu_mag_y_avg,imu_mag_z_avg,high_g_accel_x_real,high_g_accel_y_real,high_g_accel_z_real,baro_pres_avg,baro_temp_avg
12081,0,1274923,-46,1345,19,13,11,19,-11,1349,82,24,19,-13,387,-1304,620,223,-1638,1125,-352,128,544,19.04,0.9976116456945472,22.16,0.996614853195164,44.82484436035156,-73.16371154785156,38.20000076293945,2,12,0.6399999856948853,18.117889404296875,11,0,0.0,0.0,0.0,0.0,-2.300724758034281,0.0,0.0,-0.957559276222952,-0.3625126239,0.2045863323,9.6693961266,0.7062201499938965,-0.111399121582508,0.689439058303833,0.1162638440728187,6,0.7470807393391927,-1.2193951924641928,-0.3302095188,9.655039191,0.1363908882,0.1722832272,0.1363908882,-0.0933200814,0.015882496136,0.013439035192,0.023212878968,0.47280969266399997,-1.5931365354879998,0.75747289264,-0.00638,0.78242,0.04756,0.12934,-0.95004,0.6525,-0.0789631458,4.8957150396,0.0215354034,0.2443460944,-0.7898487501479999,0.39034288580399995,0.06148000000000001,-0.08381,0.35003,-10.35584,3.76576,16.00448,0.9971132494448556,20.6
12082,0,1275028,-11,1346,25,11,13,24,4,1346,84,23,23,-9,387,-1304,620,176,-1596,1135,-448,80,544,19.03,0.9973155687145324,22.16,0.9964964224031582,44.82484436035156,-73.16371154785156,38.09999847412109,2,12,0.6399999856948853,18.08721923828125,11,0,0.0,0.0,0.0,0.0,-2.224201410807816,0.0,0.0,-0.7875683440110546,-0.3912264950999999,0.0251246373,9.6622176588,0.706275463104248,-0.1117410436272621,0.6893558502197266,0.1160927042365074,6,0.7470807393391927,-1.2193951924641928,-0.07896314580000001,9.6622176588,0.179461695,0.1651047594,0.1651047594,-0.0646062102,0.013439035192,0.015882496136,0.029321531328,0.47280969266399997,-1.5931365354879998,0.75747289264,0.00232,0.78068,0.04872,0.10208,-0.9256800000000001,0.6583,0.04307080679999999,4.9136612091,0.0574277424,0.243124363928,-0.7886270196759999,0.39339721198399996,0.0522,-0.07250000000000001,0.35351,-13.18016,2.3536,16.00448,0.9969059955588453,20.595
12083,0,1275134,-49,1348,12,13,18,33,-14,1344,76,24,30,-1,382,-1299,637,176,-1596,1135,-448,96,464,19.03,0.9972760917838638,22.15,0.996545768566494,44.82484436035156,-73.16371154785156,38.09999847412109,2,12,0.6399999856948853,18.12300109863281,11,0,0.0,0.0,0.0,0.0,-2.220632150752888,0.0,0.0,-0.7116922182041643,-0.3158525832,0.2261217357,9.6622176588,0.7064002752304077,-0.111530028283596,0.6892489194869995,0.1161705702543258,6,0.7470807393391927,-1.2193951924641928,-0.35174492220000003,9.6765745944,0.0861416136,0.1722832272,0.215354034,-0.0071784678,0.015882496136,0.021991148496,0.040317105576,0.46670104030399995,-1.5870278831279998,0.778242310664,-0.00812,0.77952,0.04408,0.10208,-0.9256800000000001,0.6583,-0.08973084750000002,4.9459643142,0.0394815729,0.24129176821999998,-0.7825183673159999,0.40927970812,0.04698,-0.07308000000000003,0.35119,-13.18016,2.82432,13.65088,0.9969109301751788,20.59
12084,0,1275239,-70,1344,17,13,17,35,-28,1347,78,20,28,0,382,-1299,637,175,-1593,1122,-448,176,528,19.03,0.9972760917838638,22.14,0.996614853195164,44.82484436035156,-73.16371154785156,38.09999847412109,2,12,0.6399999856948853,18.108688354492188,11,0,0.0,0.0,0.0,0.0,-2.1055895951963866,0.0,0.0,-0.5319467123800298,-0.3409772205,0.3517449222,9.658628424899998,0.6653155088424683,-0.2686490714550018,0.6375726461410522,0.2805070877075195,6,0.7470807393391927,-1.2193951924641928,-0.502492746,9.6478607232,0.12203395260000001,0.143569356,0.20099709840000002,0.0,0.015882496136,0.020769418023999998,0.042760566519999994,0.46670104030399995,-1.5870278831279998,0.778242310664,-0.01624,0.78126,0.04524,0.1015,-0.92394,0.65076,-0.17946169500000003,4.924428910800001,0.061016976300000005,0.24129176821999998,-0.783129232552,0.410501438592,0.04263,-0.07134000000000001,0.348,-13.18016,5.17792,15.533760000000001,0.9969454724895139,20.585
12085,0,1275345,-61,1344,7,2,22,24,-28,1340,52,25,28,-7,383,-1310,613,175,-1593,1122,-304,112,592,19.03,0.9972662225511968,22.14,0.996358253145818,44.82484436035156,-73.16371154785156,38.09999847412109,2,12,0.6399999856948853,18.032012939453125,11,0,0.0,0.0,0.0,0.0,-1.8735493034800452,0.0,0.0,-0.2528284860255462,-0.2117648000999999,0.3194418170999999,9.6335037876,0.6653741002082825,-0.2684662640094757,0.6376024484634399,0.2804751396179199,6,0.7470807393391927,-1.2193951924641928,-0.43788653580000003,9.6478607232,0.050249274600000005,0.179461695,0.20099709840000002,-0.050249274600000005,0.002443460944,0.026878070384,0.029321531328,0.467922770776,-1.60046691832,0.748920779336,-0.01624,0.7772,0.03016,0.1015,-0.92394,0.65076,-0.12921242040000003,4.924428910800001,0.0,0.23518311585999999,-0.786794423968,0.389121155332,0.04263,-0.07336999999999999,0.34046,-8.94368,3.29504,17.41664,0.9968122378485074,20.585
12086,0,1275450,-42,1343,2,10,24,26,-2,1347,64,24,39,-7,383,-1310,613,225,-1658,1127,-368,160,512,19.03,0.9973747841105354,22.14,0.9964075993091536,44.82484436035156,-73.16371154785156,38.09999847412109,2,12,0.6399999856948853,18.14344787597656,11,0,0.0,0.0,0.0,0.0,-1.7183681295581623,0.0,0.0,-0.0810289456089601,-0.2368894373999999,0.1579262916,9.655039191,0.6653450727462769,-0.268518328666687,0.6376466751098633,0.2803938090801239,6,0.7470807393391927,-1.2193951924641928,-0.3014956476,9.6406822554,0.0143569356,0.1722832272,0.2799602442,-0.050249274600000005,0.012217304719999999,0.029321531328,0.031764992272,0.467922770776,-1.60046691832,0.748920779336,-0.00116,0.78126,0.03712,0.1305,-0.96164,0.65366,-0.06460621020000001,4.9603212498,-0.0179461695,0.24007003774799998,-0.785572693496,0.390342885804,0.06467,-0.09019000000000005,0.34539000000000003,-10.82656,4.7072,15.06304,0.9968911917098444,20.585
12087,0,1275556,-30,1343,4,9,33,32,2,1347,57,23,46,-4,391,-1274,625,225,-1658,1127,-352,80,608,19.03,0.9972662225511968,22.13,0.9963286454478164,44.82484436035156,-73.16371154785156,38.09999847412109,2,12,0.6399999856948853,18.019744873046875,11,0,0.0,0.0,0.0,0.0,-1.481343437374559,0.0,0.0,0.1580089173307574,-0.2189432679,0.1004985491999999,9.655039191,0.6654670238494873,-0.2684299647808075,0.6375692486763,0.2803649306297302,6,0.7470807393391927,-1.2193951924641928,-0.215354034,9.6406822554,0.0287138712,0.1651047594,0.3302095188,-0.0287138712,0.010995574248,0.040317105576,0.039095375104,0.47769661455199997,-1.556484621328,0.763581545,0.00116,0.78126,0.03306,0.1305,-0.96164,0.65366,-0.025124637300000002,4.9854458871,0.0,0.2443460944,-0.7580837578759999,0.40133846005199997,0.06583,-0.09019000000000005,0.34336,-10.35584,2.3536,17.88736,0.9967974339995066,20.58
12088,0,1275661,-38,1343,10,7,38,30,-5,1344,67,22,42,-5,391,-1274,625,192,-1593,1125,-384,80,528,19.03,0.9973155687145324,22.14,0.9964075993091536,44.82484436035156,-73.16371154785156,38.09999847412109,2,12,0.6399999856948853,18.11073303222656,11,0,0.0,0.0,0.0,0.0,-1.2314634118573542,0.0,0.0,0.3830765335493308,-0.2763710103,0.1543370576999999,9.6442714893,0.6656062006950378,-0.2682677507400512,0.637502133846283,0.2803425788879394,6,0.7470807393391927,-1.2193951924641928,-0.2727817764,9.6406822554,0.071784678,0.15792629160000002,0.3014956476,-0.035892339,0.008552113303999999,0.046425757936,0.03665191416,0.47769661455199997,-1.556484621328,0.763581545,-0.0029,0.77952,0.03886,0.11136,-0.92394,0.6525,-0.057427742399999995,4.9710889515,0.0179461695,0.243124363928,-0.755029431696,0.40011672958,0.05423,-0.07221,0.34568,-11.29728,2.3536,15.533760000000001,0.996861584011843,20.585
12089,0,1275766,-43,1342,21,8,23,27,-16,1339,76,21,34,-5,364,-1270,663,192,-1593,1125,-336,112,464,19.03,0.9974241302738712,22.12,0.9964075993091536,44.82484436035156,-73.16371154785156,38.70000076293945,2,12,0.6399999856948853,18.09539794921875,11,0,0.0,0.0,0.0,0.0,-1.1314059572110629,0.0,0.0,0.4266679467611088,-0.3481556882999999,0.2117648000999999,9.622736085899998,0.6655896306037903,-0.2682772278785705,0.6375024914741516,0.2803719639778137,6,0.7470807393391927,-1.2193951924641928,-0.3086741154,9.6335037876,0.1507478238,0.1507478238,0.24406790520000002,-0.035892339,0.009773843776,0.028099800855999998,0.032986722744,0.44470989180799997,-1.5515976994399998,0.810007302936,-0.00928,0.77662,0.04408,0.11136,-0.92394,0.6525,-0.0789631458,4.9387858464,0.05742774240000001,0.22724186779199998,-0.7617489492919999,0.42149701283999996,0.05104,-0.07366,0.34829,-9.88512,3.29504,13.65088,0.9969158647915124,20.575000000000003
12090,0,1275872,-67,1347,12,12,5,28,-34,1342,78,22,19,-2,364,-1270,663,219,-1642,1142,-400,64,464,19.02,0.997295830249198,22.11,0.996545768566494,44.82484436035156,-73.16371154785156,38.70000076293945,2,12,0.6399999856948853,18.082107543945312,11,0,0.0,0.0,0.0,0.0,-1.1299357627072382,0.0,0.0,0.3646774386247312,-0.3230310509999999,0.3625126238999999,9.6514499571,0.665580153465271,-0.2682494223117828,0.6374722123146057,0.2804897427558899,6,0.7470807393391927,-1.2193951924641928,-0.4809573426,9.6693961266,0.0861416136,0.15792629160000002,0.1363908882,-0.0143569356,0.014660765664,0.0061086523599999994,0.034208453215999995,0.44470989180799997,-1.5515976994399998,0.810007302936,-0.01972,0.77836,0.04524,0.12702,-0.95236,0.66236,-0.16151552549999998,4.9028935074,0.035892339,0.22968532873599998,-0.7727445235399999,0.422107878076,0.053649999999999996,-0.08699999999999997,0.3538,-11.768,1.88288,13.65088,0.996920799407846,20.564999999999998
12091,0,1275977,-63,1345,27,9,9,27,-37,1343,85,21,21,-5,393,-1271,635,219,-1642,1142,-368,112,464,19.01,0.9972760917838638,22.11,0.996545768566494,44.82484436035156,-73.16371154785156,38.70000076293945,2,12,0.6399999856948853,18.134246826171875,11,0,0.0,0.0,0.0,0.0,-1.1408765976096085,0.0,0.0,0.297543495347371,-0.4019941967999999,0.3589233899999999,9.6478607232,0.6656622886657715,-0.268320083618164,0.6373617649078369,0.2804782688617706,6,0.7470807393391927,-1.2193951924641928,-0.45224347140000004,9.655039191,0.1938186306,0.1507478238,0.1507478238,-0.035892339,0.010995574248,0.010995574248,0.032986722744,0.48014007549599996,-1.552819429912,0.7757988497199999,-0.02146,0.77894,0.049300000000000004,0.12702,-0.95236,0.66236,-0.1507478238,4.9028935074,0.07896314580000001,0.245567824872,-0.770911927832,0.4043927862319999,0.052779999999999994,-0.08671000000000001,0.35583,-10.82656,3.29504,13.65088,0.9969109301751788,20.560000000000002
12092,0,1276083,-49,1348,23,8,7,27,-7,1347,77,24,23,-5,393,-1271,635,230,-1635,1108,-464,160,480,19.01,0.9974932149025412,22.1,0.9964174685418208,44.82484436035156,-73.16371154785156,38.900001525878906,2,12,0.6399999856948853,18.203765869140625,11,0,0.0,0.0,0.0,0.0,-1.0783811717071108,0.0,0.0,0.3122026008554888,-0.35892339,0.2009970984,9.6729853605,0.6657013893127441,-0.2684172987937927,0.637262761592865,0.2805175483226776,6,0.7470807393391927,-1.2193951924641928,-0.35174492220000003,9.6765745944,0.1651047594,0.1722832272,0.1651047594,-0.035892339,0.009773843776,0.008552113303999999,0.032986722744,0.48014007549599996,-1.552819429912,0.7757988497199999,-0.00406,0.78126,0.04466,0.1334,-0.9483,0.64264,-0.08973084750000002,4.9208396769,0.0646062102,0.24495695963599998,-0.7721336583039999,0.4043927862319999,0.06466999999999999,-0.08352000000000004,0.34365,-13.65088,4.7072,14.1216,0.996955341722181,20.555
12093,0,1276188,-58,1350,4,5,19,26,-19,1343,46,15,26,-8,388,-1302,622,200,-1588,1135,-352,80,528,19.01,0.9973846533432026,22.09,0.9964964224031582,44.82484436035156,-73.16371154785156,38.900001525878906,2,12,0.6399999856948853,18.22114562988281,11,0,0.0,0.0,0.0,0.0,-1.0532289948751803,0.0,0.0,0.2881015704467351,-0.179461695,0.2763710103,9.6658068927,0.6848544478416443,-0.2207135558128357,0.6549444794654846,0.2308844327926635,6,0.7470807393391927,-1.2193951924641928,-0.4163511324,9.69093153,0.0287138712,0.107677017,0.1866401628,-0.0574277424,0.0061086523599999994,0.023212878968,0.031764992272,0.474031423136,-1.590693074544,0.759916353584,-0.01102,0.77894,0.02668,0.116,-0.92104,0.6583,-0.1543370577,4.9387858464,-0.0143569356,0.240070037748,-0.783740097788,0.395840672928,0.05249,-0.07105,0.34249,-10.35584,2.3536,15.533760000000001,0.9969405378731804,20.55
12094,0,1276294,-38,1345,4,14,13,25,-6,1346,54,25,27,-10,388,-1302,622,200,-1588,1135,-336,80,512,19.01,0.997226745620528,22.09,0.9963483839131508,44.82484436035156,-73.16371154785156,38.900001525878906,2,12,0.6399999856948853,18.11073303222656,11,0,0.0,0.0,0.0,0.0,-0.8584896445907315,0.0,0.0,0.4438971714657621,-0.2081755662,0.1579262916,9.658628424899998,0.6849710941314697,-0.2206439077854156,0.6548523902893066,0.2308664470911026,6,0.7470807393391927,-1.2193951924641928,-0.2727817764,9.655039191,0.0287138712,0.179461695,0.1938186306,-0.071784678,0.017104226607999998,0.015882496136,0.0305432618,0.474031423136,-1.590693074544,0.759916353584,-0.00348,0.78068,0.03132,0.116,-0.92104,0.6583,-0.0466600407,4.9244289108,-0.0215354034,0.245567824872,-0.787405289204,0.395229807692,0.056260000000000004,-0.07017999999999996,0.34481,-9.88512,2.3536,15.06304,0.9967875647668394,20.55
12095,0,1276399,-55,1343,15,11,16,28,-21,1340,82,23,23,-2,363,-1267,629,232,-1647,1106,-464,80,464,19.0,0.9971971379225264,22.07,0.9964174685418208,44.82484436035156,-73.16371154785156,39.09999847412109,2,12,0.6399999856948853,18.09028625488281,11,0,0.0,0.0,0.0,0.0,-0.7603103953448057,0.0,0.0,0.4814423869789702,-0.3481556883,0.2727817763999999,9.6299145537,0.6851358413696289,-0.2206954807043075,0.6546399593353271,0.2309306263923645,6,0.7470807393391927,-1.2193951924641928,-0.394815729,9.6406822554,0.107677017,0.1651047594,0.1651047594,-0.0143569356,0.013439035192,0.019547687552,0.034208453215999995,0.443488161336,-1.5479325080239998,0.768468466888,-0.01218,0.7772,0.04756,0.13456,-0.95526,0.64148,-0.1148554848,4.9028935074,0.0466600407,0.228463598264,-0.7641924102359999,0.40133846005199997,0.06119000000000001,-0.08903,0.34452000000000005,-13.65088,2.3536,13.65088,0.9968073032321736,20.535
12096,0,1276505,-51,1344,5,5,11,28,-11,1346,63,16,26,-7,363,-1267,629,232,-1647,1106,-416,112,448,19.01,0.9973155687145324,22.07,0.9962003454231434,44.82484436035156,-73.16371154785156,39.09999847412109,2,12,0.6399999856948853,18.232391357421875,11,0,0.0,0.0,0.0,0.0,-0.5711528679225839,0.0,0.0,0.6091294698364008,-0.2440679052,0.2225325018,9.655039191,0.685028076171875,-0.2206988632678985,0.6546957492828369,0.2310889214277267,6,0.7470807393391927,-1.2193951924641928,-0.36610185780000004,9.6478607232,0.035892339,0.1148554848,0.1866401628,-0.050249274600000005,0.0061086523599999994,0.013439035192,0.034208453215999995,0.443488161336,-1.5479325080239998,0.768468466888,-0.00638,0.78068,0.03654,0.13456,-0.95526,0.64148,-0.1256231865,4.917250443,-0.007178467800000001,0.224798406848,-0.7672467364159999,0.40133846005199997,0.06409000000000001,-0.08728999999999998,0.33901000000000003,-12.23872,3.29504,13.18016,0.9967579570688379,20.54
12097,0,1276610,-45,1341,4,16,16,26,-15,1344,54,25,21,-8,376,-1302,631,200,-1638,1119,-368,64,576,19.01,0.9973353071798668,22.07,0.9963483839131508,44.82484436035156,-73.16371154785156,39.09999847412109,2,12,0.6399999856948853,18.11073303222656,11,0,0.0,0.0,0.0,0.0,-0.4452356986774113,0.0,0.0,0.654347953551644,-0.2081755662,0.2153540339999999,9.6370930215,0.685050368309021,-0.2208660989999771,0.6545983552932739,0.2311387211084365,6,0.7470807393391927,-1.2193951924641928,-0.323031051,9.626325319800001,0.0287138712,0.179461695,0.1507478238,-0.0574277424,0.019547687552,0.019547687552,0.031764992272,0.45937065747199995,-1.590693074544,0.7709119278319999,-0.0087,0.77952,0.03132,0.116,-0.95004,0.64902,-0.071784678,4.8885365718000005,-0.0143569356,0.23945917251199997,-0.785572693496,0.40133846005199997,0.05365,-0.08526,0.34017000000000003,-10.82656,1.88288,16.94592,0.9968418455465089,20.54
12098,0,1276716,-23,1348,9,16,21,26,2,1341,65,24,29,-9,381,-1290,611,200,-1638,1119,-416,80,608,18.99,0.9972366148531951,22.06,0.9963878608438194,44.82484436035156,-73.16371154785156,39.20000076293945,2,12,0.6399999856948853,18.134246826171875,11,0,0.0,0.0,0.0,0.0,-0.3660339569891601,0.0,0.0,0.6473277676036716,-0.2656033086,0.0753739118999999,9.6514499571,0.6852068901062012,-0.2211060523986816,0.6543753743171692,0.2310769855976104,6,0.7470807393391927,-1.2193951924641928,-0.1651047594,9.6765745944,0.0646062102,0.1722832272,0.2081755662,-0.0646062102,0.019547687552,0.025656339912,0.031764992272,0.465479309832,-1.57603230888,0.7464773183919999,0.00116,0.77778,0.0377,0.116,-0.95004,0.64902,0.0035892339000000023,4.9423750803,0.0,0.24251349869199998,-0.775187984484,0.389121155332,0.05858,-0.08612999999999998,0.34336,-12.23872,2.3536,17.88736,0.9968122378485073,20.525
12099,0,1276821,-43,1342,9,12,9,28,-10,1346,68,25,26,-6,381,-1290,611,211,-1662,1153,-336,80,480,18.99,0.997226745620528,22.04,0.9962496915864792,44.82484436035156,-73.16371154785156,39.20000076293945,2,12,0.6399999856948853,18.15878295898437,11,0,0.0,0.0,0.0,0.0,-0.3390202232837183,0.0,0.0,0.5907456171826737,-0.2763710103,0.1902293966999999,9.6478607232,0.6853089928627014,-0.2212109863758087,0.6542622447013855,0.2309941202402115,6,0.7470807393391927,-1.2193951924641928,-0.3086741154,9.6335037876,0.0646062102,0.179461695,0.1866401628,-0.0430708068,0.014660765664,0.010995574248,0.034208453215999995,0.465479309832,-1.57603230888,0.7464773183919999,-0.0058,0.78068,0.03944,0.12238,-0.96396,0.66874,-0.0646062102,4.9100719752,0.0107677017,0.24007003774799998,-0.782518367316,0.39034288580399995,0.05829,-0.09164,0.35409,-9.88512,2.3536,14.1216,0.9967382186035036,20.515
12100,0,1276926,-58,1344,9,3,13,26,-23,1350,67,13,26,-6,412,-1288,622,211,-1662,1153,-432,112,464,18.99,0.997226745620528,22.07,0.9964569454724896,44.82484436035156,-73.16371154785156,39.20000076293945,2,12,0.6399999856948853,18.13731384277344,11,0,0.0,0.0,0.0,0.0,-0.3062905408584179,0.0,0.0,0.5446430519388696,-0.2727817763999999,0.2907279459,9.6693961266,0.6852397322654724,-0.2211226671934127,0.6543307304382324,0.2310898751020431,6,0.7470807393391927,-1.2193951924641928,-0.4163511324,9.6478607232,0.0646062102,0.0933200814,0.1866401628,-0.0430708068,0.003665191416,0.015882496136,0.031764992272,0.503352954464,-1.5735888479359998,0.759916353584,-0.01334,0.783,0.03886,0.12238,-0.96396,0.66874,-0.16151552549999998,4.917250443,0.0107677017,0.25350907293999997,-0.7788531758999999,0.395840672928,0.05452,-0.09048,0.3538,-12.70944,3.29504,13.65088,0.9968418455465089,20.53
12101,0,1277032,-46,1338,23,7,11,29,-18,1344,72,16,25,-3,412,-1288,622,253,-1664,1170,-496,96,512,18.99,0.997226745620528,22.06,0.9963385146804836,44.82484436035156,-73.16371154785156,39.29999923706055,2,12,0.6399999856948853,18.118911743164062,11,0,0.0,0.0,0.0,0.0,-0.221750779114933,0.0,0.0,0.5578933294739189,-0.3409772205,0.2297109695999999,9.6263253198,0.6851841807365417,-0.2209631204605102,0.6543998122215271,0.2312117218971252,6,0.7470807393391927,-1.2193951924641928,-0.3302095188,9.6047899164,0.1651047594,0.1148554848,0.179461695,-0.0215354034,0.008552113303999999,0.013439035192,0.035430183688,0.503352954464,-1.5735888479359998,0.759916353584,-0.01044,0.77952,0.04176,0.14674,-0.96512,0.6786,-0.10767701699999999,4.8921258057,0.07178467799999999,0.25595253388399997,-0.7800749063719999,0.397673268636,0.06815,-0.0928,0.36018,-14.59232,2.82432,15.06304,0.9967826301505058,20.525
12102,0,1277137,-60,1338,18,12,15,28,-22,1340,80,23,19,-7,377,-1273,649,253,-1664,1170,-432,160,512,18.99,0.997285961016531,22.07,0.996299037749815,44.82484436035156,-73.16371154785156,39.29999923706055,2,12,0.6399999856948853,18.12300109863281,11,0,0.0,0.0,0.0,0.0,-0.2590437616105845,0.0,0.0,0.4425762247029419,-0.3517449222,0.2943171797999999,9.6119683842,0.6852045059204102,-0.2207585722208023,0.6544190049171448,0.2312923669815063,6,0.7470807393391927,-1.2193951924641928,-0.430708068,9.6047899164,0.1292124204,0.1651047594,0.1363908882,-0.050249274600000005,0.014660765664,0.01832595708,0.034208453215999995,0.460592387944,-1.555262890856,0.792903076328,-0.01276,0.7772,0.0464,0.14674,-0.96512,0.6786,-0.13280165430000002,4.8705904022999995,0.0394815729,0.23762657680399998,-0.768468466888,0.41355576477199996,0.06699000000000001,-0.09395999999999999,0.3625,-12.70944,4.7072,15.06304,0.9967924993831729,20.53
12103,0,1277243,-49,1342,3,8,-2,30,-9,1345,70,17,9,-6,377,-1273,649,231,-1621,1145,-352,80,528,18.99,0.997285961016531,22.06,0.9963385146804836,44.82484436035156,-73.16371154785156,39.29999923706055,2,12,0.6399999856948853,18.082107543945312,11,0,0.0,0.0,0.0,0.0,-0.2990098174935526,0.0,0.0,0.3381656799113082,-0.2620140747,0.2081755662,9.6442714893,0.538689374923706,-0.459666907787323,0.5283863544464111,0.4683246612548828,6,0.7470807393391927,-1.2193951924641928,-0.35174492220000003,9.6335037876,0.0215354034,0.12203395260000001,0.0646062102,-0.0430708068,0.009773843776,-0.002443460944,0.03665191416,0.460592387944,-1.555262890856,0.792903076328,-0.00522,0.7801,0.0406,0.13398,-0.94018,0.6641,-0.11485548480000002,4.8490549989,-0.0107677017,0.23518311585999999,-0.7788531759,0.414777495244,0.06437999999999999,-0.08004,0.35235,-10.35584,2.3536,15.533760000000001,0.9968122378485074,20.525
12104,0,1277348,-85,1335,-4,8,-1,24,-54,1338,47,24,10,-7,369,-1305,679,231,-1621,1145,-304,112,496,18.99,0.9973254379471996,22.08,0.9965358993338268,44.82484436035156,-73.16371154785156,39.29999923706055,2,12,0.6399999856948853,18.089263916015625,11,0,0.0,0.0,0.0,0.0,-0.2796447427215087,0.0,0.0,0.3010164379945254,-0.1543370576999999,0.4989035120999999,9.5940222147,0.5386499166488647,-0.459769070148468,0.5282951593399048,0.4683727324008941,6,0.7470807393391927,-1.2193951924641928,-0.610169763,9.583254513,-0.0287138712,0.1722832272,0.071784678,-0.050249274600000005,0.009773843776,-0.001221730472,0.029321531328,0.450818544168,-1.59435826596,0.829554990488,-0.03132,0.77604,0.02726,0.13398,-0.94018,0.6641,-0.21894326790000002,4.8275195955,-0.039481572900000005,0.230296193972,-0.7977899982159999,0.42943826090799997,0.051329999999999994,-0.08207000000000003,0.34568,-8.94368,3.29504,14.59232,0.9969306686405133,20.534999999999997
12105,0,1277454,-51,1340,8,13,14,28,-16,1344,60,24,26,-9,369,-1305,679,197,-1588,1149,-336,32,464,19.0,0.997039230199852,22.09,0.9963977300764866,44.82484436035156,-73.16371154785156,39.29999923706055,2,12,0.6399999856948853,18.116867065429688,11,0,0.0,0.0,0.0,0.0,-0.4259020212265199,0.0,0.0,0.1026170505744083,-0.2440679051999999,0.2404786713,9.6335037876,0.5385307669639587,-0.4599350988864898,0.5283108949661255,0.4683290719985962,6,0.7470807393391927,-1.2193951924641928,-0.36610185780000004,9.619146852,0.0574277424,0.1722832272,0.1866401628,-0.0646062102,0.015882496136,0.017104226607999998,0.034208453215999995,0.450818544168,-1.59435826596,0.829554990488,-0.00928,0.77952,0.0348,0.11426,-0.92104,0.66642,-0.09690931530000002,4.9028935074,-0.003589233899999999,0.233350520152,-0.788627019676,0.43188172185199997,0.05249,-0.07075999999999999,0.35061,-9.88512,0.94144,13.65088,0.9967184801381692,20.545
12106,0,1277559,-49,1343,9,18,21,27,-10,1350,62,26,31,-4,385,-1287,627,197,-1588,1149,-352,64,544,18.99,0.9973254379471996,22.08,0.996427337774488,44.82484436035156,-73.16371154785156,39.29999923706055,2,12,0.6399999856948853,18.133224487304688,11,0,0.0,0.0,0.0,0.0,-0.5594509148488176,0.0,0.0,-0.0610028861508673,-0.2548356068999999,0.2117648000999999,9.6658068927,0.538678765296936,-0.4599612355232239,0.5282259583473206,0.4682287573814392,6,0.7470807393391927,-1.2193951924641928,-0.35174492220000003,9.6406822554,0.0646062102,0.1866401628,0.2225325018,-0.0287138712,0.021991148496,0.025656339912,0.032986722744,0.47036623171999997,-1.572367117464,0.7660250059439999,-0.0058,0.783,0.03596,0.11426,-0.92104,0.66642,-0.08255237970000001,4.9316073786,0.017946169499999998,0.24617869010799998,-0.773355388776,0.39950586434399993,0.05423,-0.06901999999999997,0.35119,-10.35584,1.88288,16.00448,0.9968763878608438,20.534999999999997
12107,0,1277665,-74,1345,56,14,16,34,-35,1345,110,24,24,-2,385,-1287,627,228,-1624,1104,-336,80,560,18.99,0.996980014803849,22.09,0.9965062916358252,44.82484436035156,-73.16371154785156,39.29999923706055,2,12,0.6399999856948853,18.09437561035156,11,0,0.0,0.0,0.0,0.0,-0.4340701286635429,0.0,0.0,0.0602334217323728,-0.5958128274,0.3912264950999999,9.655039190999998,0.5390826463699341,-0.4598284661769867,0.527940571308136,0.4682162702083587,6,0.7470807393391927,-1.2193951924641928,-0.5312066172000001,9.655039191,0.40199419680000004,0.1722832272,0.1722832272,-0.0143569356,0.017104226607999998,0.019547687552,0.041538836047999995,0.47036623171999997,-1.572367117464,0.7660250059439999,-0.0203,0.7801,0.0638,0.13224,-0.94192,0.64032,-0.17946169500000003,4.9136612091,0.1938186306,0.24373522916399998,-0.776409714956,0.40378192099599997,0.05597,-0.08090999999999998,0.35206,-9.88512,2.3536,16.4752,0.9967431532198371,20.54
12108,0,1277770,-61,1348,31,6,16,31,-36,1343,91,19,23,-8,371,-1298,636,228,-1624,1104,-400,144,576,19.0,0.9970885763631878,22.1,0.996427337774488,44.82484436035156,-73.16371154785156,39.29999923706055,2,12,0.6399999856948853,18.09335327148437,11,0,0.0,0.0,0.0,0.0,-0.1936474384391624,0.0,0.0,0.2832743468900417,-0.4378865357999999,0.3481556883,9.6586284249,0.5393615961074829,-0.4593867659568786,0.5281473398208618,0.4680953323841095,6,0.7470807393391927,-1.2193951924641928,-0.43788653580000003,9.6765745944,0.2225325018,0.1363908882,0.1651047594,-0.0574277424,0.007330382832,0.019547687552,0.037873644632,0.453262005112,-1.585806152656,0.7770205801919999,-0.02088,0.77894,0.05278,0.13224,-0.94192,0.64032,-0.1507478238,4.9208396769,0.0825523797,0.230296193972,-0.783129232552,0.407447112412,0.05568,-0.08149,0.34655,-11.768,4.23648,16.94592,0.9967579570688379,20.55
12109,0,1277875,-44,1340,18,14,2,24,-23,1344,83,22,13,-10,371,-1298,636,206,-1630,1138,-384,64,528,18.99,0.9971379225265236,22.09,0.9962496915864792,44.82484436035156,-73.16371154785156,39.29999923706055,2,12,0.6399999856948853,18.163894653320312,11,0,0.0,0.0,0.0,0.0,-0.0383100596450877,0.0,0.0,0.3968168366960217,-0.3625126239,0.2404786713,9.6335037876,0.5392799973487854,-0.4594950675964355,0.5281677842140198,0.4680599570274353,6,0.7470807393391927,-1.2193951924641928,-0.31585258320000004,9.619146852,0.1292124204,0.15792629160000002,0.0933200814,-0.071784678,0.017104226607999998,0.002443460944,0.029321531328,0.453262005112,-1.585806152656,0.7770205801919999,-0.01334,0.77952,0.04814,0.11948,-0.9454,0.66004,-0.07896314580000001,4.8562334667,0.028713871199999998,0.23518311585999999,-0.7916813458559999,0.40317105575999995,0.05307,-0.08294000000000001,0.35408999999999996,-11.29728,1.88288,15.533760000000001,0.9966938070565015,20.54
12110,0,1277981,-42,1347,5,14,3,25,-13,1350,59,19,18,-9,395,-1300,613,198,-1599,1114,-432,144,576,19.0,0.9972070071551936,22.09,0.9961411300271404,44.82484436035156,-73.16371154785156,39.29999923706055,2,12,0.6399999856948853,18.19354248046875,11,0,0.0,0.0,0.0,0.0,0.0469007298363734,0.0,0.0,0.4275373468022115,-0.2297109695999999,0.1974078644999999,9.6801638283,0.5394106507301331,-0.4597006440162658,0.5280746817588806,0.4678126871585846,6,0.7470807393391927,-1.2193951924641928,-0.3014956476,9.6693961266,0.035892339,0.1363908882,0.1292124204,-0.0646062102,0.017104226607999998,0.003665191416,0.0305432618,0.48258353643999996,-1.5882496136,0.748920779336,-0.00754,0.783,0.03422,0.11484,-0.92742,0.64612,-0.08255237970000001,4.8993042735,-0.014356935599999999,0.24984388152399997,-0.792292211092,0.389732020568,0.053649999999999996,-0.07221,0.34017000000000003,-12.70944,4.23648,16.94592,0.996674068591167,20.545
12111,0,1278086,-66,1342,4,17,17,18,-32,1347,48,28,26,-12,395,-1300,613,198,-1599,1114,-432,128,496,19.0,0.997157660991858,22.1,0.996170737725142,44.82484436035156,-73.16371154785156,39.29999923706055,2,12,0.6399999856948853,18.17718505859375,11,0,0.0,0.0,0.0,0.0,0.1471708884985964,0.0,0.0,0.4703991968707618,-0.1866401628,0.3517449222,9.6514499571,0.5396062731742859,-0.4599471390247345,0.528052031993866,0.4673700630664825,6,0.7470807393391927,-1.2193951924641928,-0.4737788748,9.6335037876,0.0287138712,0.20099709840000002,0.1866401628,-0.0861416136,0.020769418023999998,0.020769418023999998,0.021991148496,0.48258353643999996,-1.5882496136,0.748920779336,-0.01856,0.78126,0.02784,0.11484,-0.92742,0.64612,-0.1363908882,4.9100719752,-0.028713871199999998,0.251676477232,-0.783740097788,0.385455963916,0.04814,-0.07308000000000003,0.33698,-12.70944,3.76576,14.59232,0.9966641993584999,20.55
12112,0,1278192,-18,1352,7,23,12,9,5,1347,66,33,20,-26,396,-1276,625,247,-1655,1082,-400,144,544,19.0,0.9970984455958548,22.1,0.9963779916111524,44.82484436035156,-73.16371154785156,39.29999923706055,2,12,0.6399999856948853,18.082107543945312,11,0,0.0,0.0,0.0,0.0,0.2400212242169755,0.0,0.0,0.4955756472718253,-0.2620140747,0.0466600407,9.6873422961,-0.7205386161804199,-0.054532740265131,-0.6888933181762695,0.0572399348020553,6,0.7470807393391927,-1.2193951924641928,-0.1292124204,9.7052884656,0.050249274600000005,0.2368894374,0.143569356,-0.1866401628,0.028099800855999998,0.014660765664,0.010995574248,0.483805266912,-1.558928082272,0.763581545,0.0029,0.78126,0.03828,0.14326,-0.9599,0.62756,0.05383850850000001,4.924428910800001,-0.0681954441,0.25595253388399997,-0.7721336583039999,0.387288559624,0.07308,-0.08932000000000001,0.33292,-11.768,4.23648,16.00448,0.9967382186035036,20.55
12113,0,1278297,5,1357,9,3,15,31,28,1360,75,17,23,-2,396,-1276,625,247,-1655,1082,-368,112,560,19.01,0.9971280532938565,22.1,0.9962792992844808,44.82484436035156,-73.16371154785156,39.29999923706055,2,12,0.6399999856948853,18.11175537109375,11,0,0.0,0.0,0.0,0.0,0.1877395207282155,0.0,0.0,0.3782543587235107,-0.3014956475999999,-0.1184447186999999,9.7519485063,-0.7208699584007263,-0.0540168136358261,-0.688578724861145,0.0573414340615272,6,0.7470807393391927,-1.2193951924641928,0.035892339,9.7411808046,0.0646062102,0.12203395260000001,0.1651047594,-0.0143569356,0.003665191416,0.01832595708,0.037873644632,0.483805266912,-1.558928082272,0.763581545,0.01624,0.7888000000000001,0.0435,0.14326,-0.9599,0.62756,0.07896314580000001,4.9531427820000005,0.0251246373,0.243735229164,-0.770301062596,0.400727594816,0.07975,-0.08554999999999996,0.33553,-10.82656,3.29504,16.4752,0.9967036762891686,20.555
12114,0,1278403,-21,1344,11,3,10,39,5,1348,76,14,16,9,380,-1301,633,195,-1609,1151,-464,128,608,19.02,0.9970885763631878,22.11,0.9963483839131508,44.82484436035156,-73.16371154785156,39.29999923706055,2,12,0.6399999856948853,18.11175537109375,11,0,0.0,0.0,0.0,0.0,0.2666728735568714,0.0,0.0,0.4063750464711546,-0.3122633492999999,0.0574277423999999,9.6622176588,-0.7204747796058655,-0.0549189820885658,-0.6889531016349792,0.0569530390202999,6,0.7470807393391927,-1.2193951924641928,-0.1507478238,9.6478607232,0.07896314580000001,0.10049854920000001,0.1148554848,0.0646062102,0.003665191416,0.012217304719999999,0.047647488408,0.46425757935999995,-1.5894713440719999,0.773355388776,0.0029,0.78184,0.04408,0.1131,-0.93322,0.66758,-0.025124637300000002,4.881358104,0.071784678,0.233961385388,-0.7886270196759999,0.410501438592,0.058,-0.07569000000000004,0.35583,-13.65088,3.76576,17.88736,0.9967184801381693,20.564999999999998
12115,0,1278508,-101,1325,10,8,8,30,-66,1341,40,20,17,-7,380,-1301,633,195,-1609,1151,-400,192,576,19.01,0.9973846533432026,22.12,0.9964174685418208,44.82484436035156,-73.16371154785156,39.29999923706055,2,12,0.6399999856948853,18.130157470703125,11,0,0.0,0.0,0.0,0.0,0.2636301058575681,0.0,0.0,0.3347934783864571,-0.1794616949999999,0.5994020613,9.5688975774,-0.7202162742614746,-0.0557319745421409,-0.6891919374465942,0.0565421879291534,6,0.7470807393391927,-1.2193951924641928,-0.7250252478,9.511469835,0.071784678,0.143569356,0.12203395260000001,-0.050249274600000005,0.009773843776,0.009773843776,0.03665191416,0.46425757935999995,-1.5894713440719999,0.773355388776,-0.03828,0.77778,0.0232,0.1131,-0.93322,0.66758,-0.2907279459,4.8167518938,0.0107677017,0.23701571156799997,-0.7898487501479999,0.405003651468,0.03741,-0.07772000000000001,0.34539,-11.768,5.64864,16.94592,0.9969010609425117,20.565
12116,0,1278614,-92,1335,-6,7,5,22,-75,1340,36,17,20,-12,389,-1298,676,211,-1588,1139,-320,144,480,19.01,0.9971675302245252,22.13,0.9962299531211448,44.82484436035156,-73.16371154785156,39.29999923706055,2,12,0.6399999856948853,18.092330932617188,11,0,0.0,0.0,0.0,0.0,0.0803919992740886,0.0,0.0,0.0922626662635704,-0.107677017,0.5994020613,9.6012006825,-0.7201714515686035,-0.0556386299431324,-0.6892425417900085,0.0565873719751834,6,0.7470807393391927,-1.2193951924641928,-0.6604190376,9.583254513,-0.0430708068,0.12203395260000001,0.143569356,-0.0861416136,0.008552113303999999,0.0061086523599999994,0.026878070384,0.47525315360799997,-1.585806152656,0.825889799072,-0.0435,0.7772,0.02088,0.12238,-0.92104,0.66062,-0.26919254249999996,4.8634119345,-0.0646062102,0.241902633456,-0.7898487501479999,0.426383934728,0.03944,-0.07191999999999998,0.34075,-9.4144,4.23648,14.1216,0.996698741672835,20.57
12117,0,1278719,-39,1340,6,19,1,15,-9,1340,62,33,13,-18,408,-1298,629,211,-1588,1139,-368,160,544,19.01,0.9973254379471996,22.12,0.9965260301011596,44.82484436035156,-73.16371154785156,39.29999923706055,2,12,0.6399999856948853,18.114822387695312,11,0,0.0,0.0,0.0,0.0,-0.0253031739135263,0.0,0.0,-0.0449406202961517,-0.2440679052,0.1722832272,9.619146852,-0.7204339504241943,-0.0551494881510734,-0.6889872550964355,0.0568338148295879,6,0.7470807393391927,-1.2193951924641928,-0.2799602442,9.619146852,0.0430708068,0.2368894374,0.0933200814,-0.1292124204,0.023212878968,0.001221730472,0.01832595708,0.498466032576,-1.585806152656,0.768468466888,-0.00522,0.7772,0.03596,0.12238,-0.92104,0.66062,-0.021535403399999986,4.8562334667,-0.0430708068,0.26083945577199996,-0.792292211092,0.39339721198399996,0.05858,-0.07191999999999998,0.34829,-10.82656,4.7072,16.00448,0.9969257340241796,20.565
12118,0,1278824,-46,1343,88,18,-2,32,-15,1343,137,30,12,1,408,-1298,629,216,-1644,1125,-528,160,560,19.01,0.9971181840611892,22.12,0.9964075993091536,44.82484436035156,-73.16371154785156,39.29999923706055,2,12,0.6399999856948853,18.059616088867188,11,0,0.0,0.0,0.0,0.0,-0.1393297958046707,0.0,0.0,-0.1700044861422608,-0.8075776275,0.2189432679,9.6406822554,-0.720930278301239,-0.0553232431411743,-0.6884589195251465,0.0567747056484222,6,0.7470807393391927,-1.2193951924641928,-0.3302095188,9.6406822554,0.6317051664000001,0.215354034,0.0861416136,0.0071784678,0.021991148496,-0.002443460944,0.039095375104,0.498466032576,-1.585806152656,0.768468466888,-0.0087,0.77894,0.07946,0.12528,-0.95352,0.6525,-0.057427742399999995,4.8634119345,0.3194418171,0.260228590536,-0.7941248068,0.40378192099599997,0.05829,-0.08729000000000003,0.36597999999999997,-15.533760000000001,4.7072,16.4752,0.9967628916851714,20.565
12119,0,1278930,-56,1341,68,2,26,38,-10,1344,132,16,38,3,384,-1306,641,216,-1644,1125,-416,80,512,19.01,0.9971280532938565,22.13,0.9962299531211448,44.82484436035156,-73.16371154785156,39.29999923706055,2,12,0.6399999856948853,18.11175537109375,11,0,0.0,0.0,0.0,0.0,-0.0721833607578615,0.0,0.0,-0.0934060267419952,-0.7178467799999999,0.2368894373999999,9.6370930215,-0.7207101583480835,-0.0562467239797115,-0.6886355876922607,0.0565182380378246,6,0.7470807393391927,-1.2193951924641928,-0.40199419680000004,9.626325319800001,0.48813581040000004,0.1148554848,0.2727817764,0.0215354034,0.002443460944,0.031764992272,0.046425757936,0.469144501248,-1.5955799964319999,0.783129232552,-0.0058,0.77952,0.07656,0.12528,-0.95352,0.6525,-0.143569356,4.949553548100001,0.2548356069,0.235793981096,-0.7819075020799999,0.414777495244,0.05974,-0.08700000000000002,0.36452999999999997,-12.23872,2.3536,15.06304,0.9966790032075006,20.57
12120,0,1279035,-95,1345,34,12,24,38,-58,1349,99,23,38,0,384,-1306,641,218,-1637,1154,-432,128,544,19.03,0.997157660991858,22.12,0.996170737725142,44.82484436035156,-73.16371154785156,39.29999923706055,2,12,0.6399999856948853,18.117889404296875,11,0,0.0,0.0,0.0,0.0,0.0618081404770743,0.0,0.0,0.0353023631394774,-0.4773681086999999,0.5491527866999999,9.6693961266,-0.7204374074935913,-0.0564039647579193,-0.6889706254005432,0.0557496659457683,6,0.7470807393391927,-1.2193951924641928,-0.681954441,9.655039191,0.24406790520000002,0.1651047594,0.2727817764,0.0,0.014660765664,0.029321531328,0.046425757936,0.469144501248,-1.5955799964319999,0.783129232552,-0.03364,0.78242,0.05742,0.12644,-0.94946,0.66932,-0.2584248408,4.9639104837,0.12203395260000001,0.241902633456,-0.783129232552,0.414777495244,0.0464,-0.08351999999999998,0.36337,-12.70944,3.76576,16.00448,0.9966641993584999,20.575000000000003
12121,0,1279141,-59,1342,-8,14,24,29,-47,1348,50,24,33,-5,380,-1279,620,218,-1637,1154,-416,80,576,19.01,0.9971280532938565,22.12,0.9961608684924748,44.82484436035156,-73.16371154785156,39.29999923706055,2,12,0.6399999856948853,18.11175537109375,11,0,0.0,0.0,0.0,0.0,0.221067781959794,0.0,0.0,0.1769466957225443,-0.1507478237999999,0.3804587934,9.655039191,-0.7202533483505249,-0.0565856508910656,-0.6891443133354187,0.0557978078722953,6,0.7470807393391927,-1.2193951924641928,-0.4235296002,9.6335037876,-0.0574277424,0.1722832272,0.2368894374,-0.035892339,0.017104226607999998,0.029321531328,0.035430183688,0.46425757935999995,-1.562593273688,0.75747289264,-0.02726,0.78184,0.029,0.12644,-0.94946,0.66932,-0.1256231865,4.9351966125,-0.0466600407,0.24068090298399997,-0.76663587118,0.396451538164,0.049589999999999995,-0.08381,0.34916,-12.23872,2.3536,16.94592,0.9966444608931656,20.565
12122,0,1279246,-41,1335,-16,10,19,16,-14,1348,9,27,24,-16,380,-1279,620,241,-1634,1100,-384,160,544,19.02,0.9971971379225264,22.12,0.9965655070318282,44.82484436035156,-73.16371154785156,39.29999923706055,2,12,0.6399999856948853,18.174118041992188,11,0,0.0,0.0,0.0,0.0,0.1606997926291695,0.0,0.0,0.0748441478585084,0.0251246372999999,0.1974078645,9.6299145537,0.650947093963623,-0.3110820353031158,0.6069873571395874,0.3332600593566894,6,0.7470807393391927,-1.2193951924641928,-0.2943171798,9.583254513,-0.1148554848,0.1938186306,0.1722832272,-0.1148554848,0.012217304719999999,0.023212878968,0.019547687552,0.46425757935999995,-1.562593273688,0.75747289264,-0.00812,0.78184,0.00522,0.13978,-0.94772,0.638,-0.05024927459999999,4.8777688701,-0.1148554848,0.23823744203999997,-0.76969019736,0.38851029009599997,0.06583,-0.08294000000000001,0.32161,-11.29728,4.7072,16.00448,0.9968813224771773,20.57
12123,0,1279352,0,1343,17,17,11,16,16,1347,77,31,21,-22,377,-1294,620,241,-1634,1100,-384,144,560,19.02,0.9974043918085368,22.14,0.996299037749815,44.82484436035156,-73.16371154785156,39.29999923706055,2,12,0.6399999856948853,18.133224487304688,11,0,0.0,0.0,0.0,0.0,-0.1948587877491546,0.0,0.0,-0.3142887115433274,-0.3373879866,-0.0574277423999999,9.655039191,0.6510627269744873,-0.3116931021213531,0.6068115830421448,0.3327830731868744,6,0.7470807393391927,-1.2193951924641928,0.0,9.6406822554,0.12203395260000001,0.2225325018,0.1507478238,-0.15792629160000002,0.020769418023999998,0.013439035192,0.019547687552,0.460592387944,-1.580919230768,0.75747289264,0.00928,0.78126,0.04466,0.13978,-0.94772,0.638,0.1112662509,4.8957150396,-0.017946169500000005,0.240680902984,-0.783740097788,0.38851029009599997,0.07453,-0.08323000000000003,0.34133,-11.29728,4.23648,16.4752,0.9968517147791759,20.58
12124,0,1279457,-69,1348,62,9,21,39,-32,1348,122,21,34,1,377,-1294,620,206,-1607,1115,-400,-16,464,19.03,0.997108314828522,22.13,0.996239822353812,44.82484436035156,-73.16371154785156,39.29999923706055,2,12,0.6399999856948853,18.081085205078125,11,0,0.0,0.0,0.0,0.0,-0.1792976537365033,0.0,0.0,-0.2753866774041723,-0.6604190376,0.3625126238999999,9.6765745944,0.6515217423439026,-0.3113875091075897,0.606544017791748,0.3326583802700043,6,0.7470807393391927,-1.2193951924641928,-0.4953142782,9.6765745944,0.4450650036,0.1507478238,0.24406790520000002,0.0071784678,0.010995574248,0.025656339912,0.047647488408,0.460592387944,-1.580919230768,0.75747289264,-0.01856,0.78184,0.07076,0.11948,-0.93206,0.6467,-0.1722832272,4.9603212498,0.2261217357,0.235793981096,-0.777631445428,0.402560190524,0.050460000000000005,-0.07511000000000001,0.35873000000000005,-11.768,-0.47072,13.65088,0.996674068591167,20.58
12125,0,1279563,-105,1335,15,7,20,33,-47,1348,84,8,36,0,371,-1275,610,216,-1661,1075,-368,128,528,19.01,0.9972366148531951,22.13,0.996545768566494,44.82484436035156,-73.16371154785156,39.29999923706055,2,12,0.6399999856948853,18.084152221679688,11,0,0.0,0.0,0.0,0.0,-0.2386960386631718,0.0,0.0,-0.3246446261644088,-0.3553341560999999,0.5455635527999999,9.6299145537,0.6513462662696838,-0.3108542561531067,0.6068012714385986,0.3330315053462982,6,0.7470807393391927,-1.2193951924641928,-0.753739119,9.583254513,0.107677017,0.0574277424,0.2584248408,0.0,0.008552113303999999,0.024434609439999998,0.040317105576,0.453262005112,-1.5577063517999998,0.7452555879199999,-0.02726,0.78184,0.04872,0.12528,-0.96338,0.6235,-0.3481556883,4.9208396769,0.0538385085,0.230907059208,-0.7666358711799999,0.39278634674799995,0.04901,-0.09077000000000002,0.33611,-10.82656,3.76576,15.533760000000001,0.9968911917098446,20.57
12126,0,1279668,-18,1346,-19,6,15,26,0,1347,45,21,24,-2,371,-1275,610,216,-1661,1075,-352,176,544,19.02,0.9970885763631878,22.14,0.9964569454724896,44.82484436035156,-73.16371154785156,39.29999923706055,2,12,0.6399999856948853,18.140380859375,11,0,0.0,0.0,0.0,0.0,-0.2710155463047144,0.0,0.0,-0.3371665635539423,-0.0933200813999999,0.0646062102,9.6658068927,0.6510481834411621,-0.3107640445232391,0.606996476650238,0.3333425223827362,6,0.7470807393391927,-1.2193951924641928,-0.1292124204,9.6622176588,-0.1363908882,0.1507478238,0.1722832272,-0.0143569356,0.007330382832,0.01832595708,0.031764992272,0.453262005112,-1.5577063517999998,0.7452555879199999,0.0,0.78126,0.0261,0.12528,-0.96338,0.6235,0.010767701700000007,4.9172504429999995,-0.0753739119,0.230296193972,-0.7696901973599999,0.38851029009599997,0.06264,-0.09106000000000003,0.32480000000000003,-10.35584,5.17792,16.00448,0.9967727609178387,20.58
12127,0,1279773,-36,1343,9,18,26,35,-5,1340,70,34,35,0,386,-1286,641,225,-1632,1114,-448,144,544,19.01,0.997285961016531,22.13,0.9963977300764866,44.82484436035156,-73.16371154785156,39.29999923706055,2,12,0.6399999856948853,18.08721923828125,11,0,0.0,0.0,0.0,0.0,-0.4710266915198724,0.0,0.0,-0.5203932613384317,-0.2835494781,0.1471585899,9.6299145537,0.6515248417854309,-0.3104315996170044,0.6067277789115906,0.3332102298736572,6,0.7470807393391927,-1.2193951924641928,-0.2584248408,9.6406822554,0.0646062102,0.24406790520000002,0.251246373,0.0,0.021991148496,0.031764992272,0.042760566519999994,0.471587962192,-1.571145386992,0.783129232552,-0.0029,0.7772,0.0406,0.1305,-0.94656,0.64612,-0.007178467799999991,4.9459643142,0.0323031051,0.246789555344,-0.76969019736,0.412944899536,0.0638,-0.08467999999999998,0.34336,-13.18016,4.23648,16.00448,0.9968418455465088,20.57
12128,0,1279879,-66,1342,47,12,11,28,-31,1347,109,24,18,-5,386,-1286,641,225,-1632,1114,-464,128,352,19.03,0.9975820379965458,22.14,0.996614853195164,44.82484436035156,-73.16371154785156,39.29999923706055,2,12,0.6399999856948853,18.10664367675781,11,0,0.0,0.0,0.0,0.0,-0.8466677538722047,0.0,0.0,-0.8704346113118703,-0.5599204884,0.3481556883,9.6514499571,0.6519691348075867,-0.3102600574493408,0.6063739061355591,0.3331450819969177,6,0.7470807393391927,-1.2193951924641928,-0.4737788748,9.6335037876,0.3373879866,0.1722832272,0.1292124204,-0.035892339,0.014660765664,0.013439035192,0.034208453215999995,0.471587962192,-1.571145386992,0.783129232552,-0.01798,0.78126,0.06322,0.1305,-0.94656,0.64612,-0.1507478238,4.881358104,0.1507478238,0.243124363928,-0.7788531759,0.40866884288399996,0.056260000000000004,-0.08265,0.35467000000000004,-13.65088,3.76576,10.35584,0.9970984455958549,20.585
12129,0,1279984,-40,1343,35,6,15,24,-8,1343,87,19,25,-10,380,-1311,618,198,-1616,1113,-464,128,528,19.02,0.9971872686898594,22.14,0.9964569454724896,44.82484436035156,-73.16371154785156,39.29999923706055,2,12,0.6399999856948853,18.12709045410156,11,0,0.0,0.0,0.0,0.0,-1.0393108800415245,0.0,0.0,-0.9883234845548764,-0.4378865358,0.1722832271999999,9.6406822554,0.6519002318382263,-0.3102462291717529,0.6064673066139221,0.3331229090690613,6,0.7470807393391927,-1.2193951924641928,-0.287138712,9.6406822554,0.251246373,0.1363908882,0.179461695,-0.071784678,0.007330382832,0.01832595708,0.029321531328,0.46425757935999995,-1.601688648792,0.755029431696,-0.00464,0.77894,0.05046,0.11484,-0.93728,0.64554,-0.0753739119,4.9100719752,0.08973084750000002,0.23579398109599997,-0.7916813458559999,0.392175481512,0.055099999999999996,-0.07917000000000002,0.348,-13.65088,3.76576,15.533760000000001,0.9968221070811745,20.58
12130,0,1280090,-29,1345,11,13,26,31,-3,1349,71,19,32,-1,380,-1311,618,198,-1616,1113,-400,96,624,19.03,0.9973649148778684,22.14,0.9965161608684924,44.82484436035156,-73.16371154785156,39.29999923706055,2,12,0.6399999856948853,18.11175537109375,11,0,0.0,0.0,0.0,0.0,-1.136501227650928,0.0,0.0,-0.9983714784834732,-0.2943171797999999,0.1148554847999999,9.6693961266,0.6519424915313721,-0.3100284337997436,0.6064932942390442,0.3331957459449768,6,0.7470807393391927,-1.2193951924641928,-0.2081755662,9.655039191,0.07896314580000001,0.1363908882,0.2297109696,-0.0071784678,0.015882496136,0.031764992272,0.037873644632,0.46425757935999995,-1.601688648792,0.755029431696,-0.00174,0.78242,0.04118,0.11484,-0.93728,0.64554,-0.035892338999999995,4.9423750803,0.035892339,0.24007003774799998,-0.7849618282599999,0.39645153816400003,0.056549999999999996,-0.07743,0.34336,-11.768,2.82432,18.35808,0.9969405378731804,20.585
12131,0,1280195,-39,1345,60,9,18,31,-8,1348,106,20,24,-3,398,-1297,644,190,-1611,1120,-528,96,496,19.02,0.9974043918085368,22.15,0.9965951147298298,44.82484436035156,-73.16371154785156,39.29999923706055,2,12,0.6399999856948853,18.09335327148437,11,0,0.0,0.0,0.0,0.0,-1.2697180399084684,0.0,0.0,-1.0461619916789893,-0.5958128274,0.1686939932999999,9.6658068927,0.6522523164749146,-0.3096085488796234,0.6063355207443237,0.3332668840885162,6,0.7470807393391927,-1.2193951924641928,-0.2799602442,9.655039191,0.430708068,0.143569356,0.1722832272,-0.0215354034,0.010995574248,0.021991148496,0.037873644632,0.486248727856,-1.584584422184,0.7867944239679999,-0.00464,0.78184,0.06148,0.1102,-0.93438,0.6496,-0.06819544409999999,4.9136612091,0.2045863323,0.248622151052,-0.781296636844,0.4123340343,0.05278,-0.07627,0.35553999999999997,-15.533760000000001,2.82432,14.59232,0.9969997532691832,20.585
12132,0,1280301,-42,1349,57,3,4,31,-22,1344,116,13,14,-8,398,-1297,644,190,-1611,1120,-384,96,544,19.02,0.997345176412534,22.13,0.9965358993338268,44.82484436035156,-73.16371154785156,39.29999923706055,2,12,0.6399999856948853,18.085174560546875,11,0,0.0,0.0,0.0,0.0,-1.502556995914579,0.0,0.0,-1.1880709096560518,-0.6209374647,0.2297109695999999,9.6658068927,0.7223944664001465,-0.0939199328422546,0.6776523590087891,0.1005616411566734,6,0.7470807393391927,-1.2193951924641928,-0.3014956476,9.683753062200001,0.4091726646,0.0933200814,0.10049854920000001,-0.0574277424,0.003665191416,0.004886921888,0.037873644632,0.486248727856,-1.584584422184,0.7867944239679999,-0.01276,0.77952,0.06728,0.1102,-0.93438,0.6496,-0.10408778310000001,4.8921258057,0.17587246110000002,0.244956959636,-0.7898487501479999,0.4123340343,0.04872,-0.07743,0.35844,-11.29728,2.82432,16.00448,0.9969405378731804,20.575
12133,0,1280406,-32,1342,24,2,11,31,4,1348,80,16,15,-3,410,-1295,627,234,-1674,1123,-384,80,528,19.03,0.9973155687145324,22.15,0.9965852454971624,44.82484436035156,-73.16371154785156,39.29999923706055,2,12,0.6399999856948853,18.178207397460938,11,0,0.0,0.0,0.0,0.0,-1.5904054282826487,0.0,0.0,-1.1672812443042826,-0.3732803255999999,0.1004985492,9.655039191,0.7221664190292358,-0.0936334431171417,0.6778953075408936,0.1008289903402328,6,0.7470807393391927,-1.2193951924641928,-0.2297109696,9.6335037876,0.1722832272,0.1148554848,0.107677017,-0.0215354034,0.002443460944,0.013439035192,0.037873644632,0.50090949352,-1.58214096124,0.7660250059439999,0.00232,0.78184,0.0464,0.13572,-0.97092,0.65134,-0.0574277424,4.8705904023,0.0753739119,0.25167647723200004,-0.784350963024,0.401949325288,0.06902,-0.09454000000000001,0.34887,-11.29728,2.3536,15.533760000000001,0.9969504071058475,20.59
12134,0,1280512,-48,1336,15,2,13,33,-8,1347,72,12,30,-4,410,-1295,627,234,-1674,1123,-352,64,608,19.04,0.9975030841352084,22.14,0.996614853195164,44.82484436035156,-73.16371154785156,39.29999923706055,2,12,0.6399999856948853,18.2139892578125,11,0,0.0,0.0,0.0,0.0,-1.9256062025301384,0.0,0.0,-1.4011031960169844,-0.3122633493,0.2009970984,9.6299145537,0.7218628525733948,-0.0933776050806045,0.678193211555481,0.1012353897094726,6,0.7470807393391927,-1.2193951924641928,-0.3445664544,9.590432980800001,0.107677017,0.0861416136,0.215354034,-0.0287138712,0.002443460944,0.015882496136,0.040317105576,0.50090949352,-1.58214096124,0.7660250059439999,-0.00464,0.78126,0.04176,0.13572,-0.97092,0.65134,-0.1292124204,4.902893507400001,0.0394815729,0.25167647723200004,-0.783129232552,0.40317105575999995,0.06554,-0.09483000000000003,0.34655,-10.35584,1.88288,17.88736,0.9970589686651862,20.59
12135,0,1280617,-13,1346,2,6,33,26,6,1347,51,15,38,-7,379,-1304,616,173,-1615,1134,-416,96,640,19.03,0.99753269183321,22.14,0.996674068591167,44.82484436035156,-73.16371154785156,39.29999923706055,2,12,0.6399999856948853,18.07086181640625,11,0,0.0,0.0,0.0,0.0,-2.1258433017308995,0.0,0.0,-1.4758612351219236,-0.1902293967,0.0251246372999999,9.6658068927,0.721442699432373,-0.0933145135641098,0.6786208748817444,0.1014230176806449,6,0.7470807393391927,-1.2193951924641928,-0.0933200814,9.6622176588,0.0143569356,0.107677017,0.2727817764,-0.050249274600000005,0.007330382832,0.040317105576,0.031764992272,0.463035848888,-1.5931365354879998,0.752585970752,0.00348,0.78126,0.02958,0.10034,-0.9367,0.65772,0.007178467799999998,4.9674997176,-0.0179461695,0.23518311585999999,-0.7764097149559999,0.392175481512,0.05191,-0.07772000000000001,0.34365,-12.23872,2.82432,18.8288,0.9971033802121885,20.585
12136,0,1280723,-5,1343,-50,9,16,32,18,1347,4,18,26,-5,405,-1296,635,173,-1615,1134,-432,128,528,19.03,0.9975721687638788,22.16,0.9966543301258328,44.82484436035156,-73.16371154785156,39.20000076293945,2,12,0.6399999856948853,18.162872314453125,11,0,0.0,0.0,0.0,0.0,-2.491692438564791,0.0,0.0,-1.7107262083575965,0.1651047593999999,-0.0466600407,9.655039191,0.7213950157165527,-0.0930571928620338,0.6787305474281311,0.1012648716568946,6,0.7470807393391927,-1.2193951924641928,-0.035892339,9.6406822554,-0.35892339,0.1292124204,0.1866401628,-0.035892339,0.010995574248,0.019547687552,0.039095375104,0.49480084115999995,-1.5833626917119998,0.7757988497199999,0.01044,0.78126,0.00232,0.10034,-0.9367,0.65772,0.0466600407,4.9136612091,-0.1974078645,0.25289820770399996,-0.7819075020799999,0.40744711241199993,0.05539,-0.07772000000000001,0.33002,-12.70944,3.76576,15.533760000000001,0.9971132494448558,20.595
12137,0,1280828,-47,1342,4,11,24,33,4,1345,68,24,34,-2,405,-1296,635,220,-1612,1134,-320,160,592,19.02,0.9975129533678756,22.14,0.996614853195164,44.82484436035156,-73.16371154785156,39.20000076293945,2,12,0.6399999856948853,18.16900634765625,11,0,0.0,0.0,0.0,0.0,-2.5983842073608345,0.0,0.0,-1.6523789903093775,-0.2584248408,0.1543370576999999,9.6442714893,0.7215487957000732,-0.0923351719975471,0.6786593198776245,0.1013074591755867,6,0.7470807393391927,-1.2193951924641928,-0.3373879866,9.6335037876,0.0287138712,0.1722832272,0.24406790520000002,-0.0143569356,0.013439035192,0.029321531328,0.040317105576,0.49480084115999995,-1.5833626917119998,0.7757988497199999,0.00232,0.7801,0.03944,0.1276,-0.93496,0.65772,-0.08255237970000001,4.9387858464,0.0071784678,0.254119938176,-0.7770205801919999,0.40805797764799995,0.06495999999999999,-0.07743,0.34858,-9.4144,4.7072,17.41664,0.9970639032815198,20.58
12138,0,1280933,-18,1353,13,10,18,32,10,1354,95,26,22,-2,386,-1310,653,220,-1612,1134,-384,128,496,19.02,0.9972464840858624,22.14,0.9966641993585,44.82484436035156,-73.16371154785156,39.20000076293945,2,12,0.6399999856948853,18.02587890625,11,0,0.0,0.0,0.0,0.0,-2.4978007854028115,0.0,0.0,-1.3873731180762856,-0.3876372611999999,0.0287138712,9.7160561673,0.721662700176239,-0.0917885154485702,0.6786110401153564,0.1013158559799194,6,0.7470807393391927,-1.2193951924641928,-0.1292124204,9.7124669334,0.0933200814,0.1866401628,0.15792629160000002,-0.0143569356,0.012217304719999999,0.021991148496,0.039095375104,0.471587962192,-1.60046691832,0.7977899982159999,0.0058,0.78532,0.0551,0.1276,-0.93496,0.65772,0.028713871200000005,4.9351966125,0.039481572900000005,0.241902633456,-0.789237884912,0.41844268665999995,0.0667,-0.07482,0.35641,-11.29728,3.76576,14.59232,0.9969553417221813,20.58
12139,0,1281039,-47,1351,-1,11,23,26,-8,1348,47,25,36,-10,386,-1310,653,199,-1652,1101,-400,64,528,19.01,0.997285961016531,22.14,0.9962496915864792,44.82484436035156,-73.16371154785156,39.20000076293945,2,12,0.6399999856948853,18.112777709960938,11,0,0.0,0.0,0.0,0.0,-2.2092288275593206,0.0,0.0,-0.9533130012394934,-0.1651047594,0.1974078644999999,9.6873422961,0.7216837406158447,-0.0918987095355987,0.6785837411880493,0.1012485399842262,6,0.7470807393391927,-1.2193951924641928,-0.3373879866,9.6981099978,-0.0071784678,0.179461695,0.2584248408,-0.071784678,0.013439035192,0.028099800855999998,0.031764992272,0.471587962192,-1.60046691832,0.7977899982159999,-0.00464,0.78184,0.02726,0.11542,-0.95816,0.63858,-0.07896314580000001,4.9782674193,-0.039481572900000005,0.242513498692,-0.786183558732,0.414777495244,0.055389999999999995,-0.08816000000000002,0.33292,-11.768,1.88288,15.533760000000001,0.9967678263015052,20.575000000000003
12140,0,1281144,-88,1349,21,2,18,25,-55,1346,96,18,24,-7,387,-1294,649,203,-1628,1094,-400,160,464,19.02,0.997355045645201,22.14,0.9966641993585,44.82484436035156,-73.16371154785156,39.20000076293945,2,12,0.6399999856948853,18.12709045410156,11,0,0.0,0.0,0.0,0.0,-2.0671224135600355,0.0,0.0,-0.7220336671735464,-0.4199403663,0.5132604477,9.6729853605,0.7217157483100891,-0.0917169675230979,0.6785742044448853,0.1012500077486038,6,0.7470807393391927,-1.2193951924641928,-0.6317051664000001,9.683753062200001,0.1507478238,0.1292124204,0.1722832272,-0.050249274600000005,0.002443460944,0.021991148496,0.0305432618,0.47280969266399997,-1.580919230768,0.792903076328,-0.0319,0.78068,0.05568,0.11774,-0.94424,0.63452,-0.251246373,4.9280181447,0.050249274600000005,0.23762657680399998,-0.779464041136,0.41172316906399997,0.04292,-0.08177999999999996,0.34509999999999996,-11.768,4.7072,13.65088,0.9970096225018505,20.58
12141,0,1281250,-55,1345,53,6,-13,18,-12,1344,111,16,-5,-20,387,-1294,649,203,-1628,1094,-384,112,464,19.03,0.997473476437207,22.13,0.9967036762891686,44.82484436035156,-73.16371154785156,39.20000076293945,2,12,0.6399999856948853,18.205810546875,11,0,0.0,0.0,0.0,0.0,-2.249654892436603,0.0,0.0,-0.8470846047888688,-0.5886343596,0.2404786712999999,9.6514499571,0.5358701944351196,-0.4632649719715118,0.5187463760375977,0.4786762297153473,6,0.7470807393391927,-1.2193951924641928,-0.394815729,9.655039191,0.3804587934,0.1148554848,-0.035892339,-0.143569356,0.007330382832,-0.015882496136,0.021991148496,0.47280969266399997,-1.580919230768,0.792903076328,-0.00696,0.77952,0.06438,0.11774,-0.94424,0.63452,-0.1399801221,4.809573426,0.11844471869999999,0.24007003774799998,-0.798400863452,0.407447112412,0.05539,-0.08235999999999999,0.34945,-11.29728,3.29504,13.65088,0.9970885763631878,20.58
12142,0,1281355,-19,1341,70,11,-9,24,4,1340,125,20,2,-14,399,-1293,645,206,-1652,1137,-352,80,640,19.02,0.9975622995312114,22.14,0.9964075993091536,44.82484436035156,-73.16371154785156,39.20000076293945,2,12,0.6399999856948853,18.14447021484375,11,0,0.0,0.0,0.0,0.0,-2.326460950691535,0.0,0.0,-0.8461786751113612,-0.6999006104999999,0.0538385084999999,9.6227360859,0.5355865359306335,-0.4635210931301117,0.5188156366348267,0.4786708056926727,6,0.7470807393391927,-1.2193951924641928,-0.1363908882,9.626325319800001,0.502492746,0.143569356,0.0143569356,-0.10049854920000001,0.013439035192,-0.010995574248,0.029321531328,0.48747045832799996,-1.5796975002959999,0.78801615444,0.00232,0.7772,0.0725,0.11948,-0.95816,0.65946,0.0035892339000000023,4.820341127700001,0.20099709840000002,0.25045474675999996,-0.7953465372719999,0.40866884288399996,0.0609,-0.09048,0.36598,-10.35584,2.3536,18.8288,0.9969849494201826,20.58
12143,0,1281461,-57,1343,12,13,-5,18,-24,1344,67,24,4,-15,399,-1293,645,206,-1652,1137,-352,144,464,19.02,0.99746360720454,22.14,0.9965655070318282,44.82484436035156,-73.16371154785156,39.20000076293945,2,12,0.6399999856948853,18.11073303222656,11,0,0.0,0.0,0.0,0.0,-2.461950487304533,0.0,0.0,-0.9108373329305812,-0.2835494781,0.2907279458999999,9.6442714893,0.5357949733734131,-0.4636583924293518,0.51866614818573,0.4784664511680603,6,0.7470807393391927,-1.2193951924641928,-0.4091726646,9.6406822554,0.0861416136,0.1722832272,0.0287138712,-0.107677017,0.015882496136,-0.0061086523599999994,0.021991148496,0.48747045832799996,-1.5796975002959999,0.78801615444,-0.01392,0.77952,0.03886,0.11948,-0.95816,0.65946,-0.1184447187,4.8346980633,-0.0107677017,0.251676477232,-0.792903076328,0.405003651468,0.05278,-0.08932000000000001,0.34916,-10.35584,4.23648,13.65088,0.9970145571181841,20.58
12144,0,1281566,-118,1334,40,17,-2,22,-79,1330,97,31,13,-15,431,-1303,628,219,-1647,1112,-432,128,464,19.02,0.9975030841352084,22.13,0.9966444608931656,44.82484436035156,-73.16371154785156,39.20000076293945,2,12,0.6399999856948853,18.09539794921875,11,0,0.0,0.0,0.0,0.0,-2.3468728461484165,0.0,0.0,-0.7118660832421876,-0.4917250442999999,0.7070790782999999,9.561719109599998,0.5364560484886169,-0.4636238217353821,0.5186365842819214,0.4777906835079193,6,0.7470807393391927,-1.2193951924641928,-0.8470592004,9.5760760452,0.287138712,0.2225325018,0.0933200814,-0.107677017,0.020769418023999998,-0.002443460944,0.026878070384,0.5265658334319999,-1.591914805016,0.7672467364159999,-0.04582,0.7714,0.05626,0.12702,-0.95526,0.64496,-0.3122633493,4.8346980633,0.08973084750000002,0.27366762572799996,-0.79717913298,0.3970624034,0.0406,-0.09193000000000001,0.35061,-12.70944,3.76576,13.65088,0.9970737725141869,20.575
12145,0,1281672,-48,1348,53,24,17,12,-12,1346,107,35,31,-23,431,-1303,628,219,-1647,1112,-400,128,576,19.01,0.997285961016531,22.12,0.9964174685418208,44.82484436035156,-73.16371154785156,39.20000076293945,2,12,0.6399999856948853,18.05450439453125,11,0,0.0,0.0,0.0,0.0,-2.113414083643087,0.0,0.0,-0.410940895109155,-0.5742774239999999,0.215354034,9.6693961266,0.5368252396583557,-0.4643076360225677,0.5185381174087524,0.4768180549144745,6,0.7470807393391927,-1.2193951924641928,-0.3445664544,9.6765745944,0.3804587934,0.251246373,0.2225325018,-0.1651047594,0.029321531328,0.020769418023999998,0.014660765664,0.5265658334319999,-1.591914805016,0.7672467364159999,-0.00696,0.78068,0.06206,0.12702,-0.95526,0.64496,-0.04666004069999999,4.9495535481,0.107677017,0.27794368237999995,-0.785572693496,0.39095375103999996,0.06003,-0.08728999999999998,0.35351,-11.768,3.76576,16.94592,0.9968517147791759,20.565
12146,0,1281777,-35,1343,18,4,2,35,3,1346,93,7,18,1,410,-1267,644,222,-1616,1154,-432,64,560,19.01,0.9973353071798668,22.12,0.996358253145818,44.82484436035156,-73.16371154785156,39.20000076293945,2,12,0.6399999856948853,18.112777709960938,11,0,0.0,0.0,0.0,0.0,-1.9844773679846344,0.0,0.0,-0.2423236640808805,-0.3984049629,0.1148554847999999,9.6514499571,0.5368360280990601,-0.4645487070083618,0.5184342265129089,0.476684033870697,6,0.7470807393391927,-1.2193951924641928,-0.251246373,9.6406822554,0.1292124204,0.050249274600000005,0.1292124204,0.0071784678,0.004886921888,0.002443460944,0.042760566519999994,0.50090949352,-1.5479325080239998,0.7867944239679999,0.00174,0.78068,0.05394,0.12876,-0.93728,0.66932,-0.10049854920000001,4.8849473379,0.0681954441,0.252898207704,-0.7727445235399999,0.414777495244,0.06525,-0.07829999999999998,0.36163,-12.70944,1.88288,16.4752,0.9968467801628424,20.565
12147,0,1281882,-11,1344,-3,1,20,42,11,1355,55,12,29,7,410,-1267,644,222,-1616,1154,-352,128,560,19.02,0.997295830249198,22.12,0.9966247224278312,44.82484436035156,-73.16371154785156,39.20000076293945,2,12,0.6399999856948853,18.040191650390625,11,0,0.0,0.0,0.0,0.0,-1.8952932525490105,0.0,0.0,-0.1416535204727135,-0.1866401627999999,0.0,9.6873422961,0.5371677875518799,-0.463789165019989,0.5183441042900085,0.4771476984024048,6,0.7470807393391927,-1.2193951924641928,-0.07896314580000001,9.6478607232,-0.0215354034,0.0861416136,0.2081755662,0.050249274600000005,0.001221730472,0.024434609439999998,0.051312679824,0.50090949352,-1.5479325080239998,0.7867944239679999,0.00638,0.7859,0.0319,0.12876,-0.93728,0.66932,0.0035892338999999954,4.9280181447,0.014356935600000002,0.251065611996,-0.7617489492919999,0.41905355189599997,0.06757,-0.07568999999999998,0.35061000000000003,-10.35584,3.76576,16.4752,0.9969602763385146,20.57
12148,0,1281988,-39,1344,55,7,9,37,-6,1347,108,20,22,5,407,-1311,611,198,-1657,1144,-352,144,544,19.02,0.9975129533678756,22.1,0.9964668147051566,44.82484436035156,-73.16371154785156,39.20000076293945,2,12,0.6399999856948853,18.10357666015625,11,0,0.0,0.0,0.0,0.0,-1.899560434166401,0.0,0.0,-0.1497008994554898,-0.5850451257,0.1615155254999999,9.658628424899998,0.5379106998443604,-0.4627170264720917,0.5181611776351929,0.4775501787662506,6,0.7470807393391927,-1.2193951924641928,-0.2799602442,9.6478607232,0.394815729,0.143569356,0.15792629160000002,0.035892339,0.008552113303999999,0.010995574248,0.045204027464,0.49724430210399995,-1.601688648792,0.7464773183919999,-0.00348,0.78126,0.06264,0.11484,-0.96106,0.66352,-0.06819544409999999,4.902893507400001,0.215354034,0.25289820770399996,-0.795346537272,0.39584067292799996,0.05568,-0.08990000000000004,0.36308,-10.35584,4.23648,16.00448,0.9969898840365161,20.560000000000002
12149,0,1282093,-35,1357,53,5,14,33,2,1355,113,13,20,-5,407,-1311,611,198,-1657,1144,-384,80,512,19.02,0.9974043918085368,22.09,0.9965062916358252,44.82484436035156,-73.16371154785156,39.09999847412109,2,12,0.6399999856948853,18.102554321289062,11,0,0.0,0.0,0.0,0.0,-1.7851714716097973,0.0,0.0,-0.0315703163607277,-0.5958128274,0.1184447186999999,9.7340023368,0.5383829474449158,-0.4620475172996521,0.5180020928382874,0.4778387546539306,6,0.7470807393391927,-1.2193951924641928,-0.251246373,9.7411808046,0.3804587934,0.0933200814,0.143569356,-0.035892339,0.0061086523599999994,0.017104226607999998,0.040317105576,0.49724430210399995,-1.601688648792,0.7464773183919999,0.00116,0.7859,0.06554,0.11484,-0.96106,0.66352,-0.07896314580000001,4.942375080300001,0.1722832272,0.251676477232,-0.792292211092,0.39339721198399996,0.057999999999999996,-0.08757999999999999,0.36453,-11.29728,2.3536,15.06304,0.996955341722181,20.555
12150,0,1282199,-41,1348,6,5,19,26,-6,1350,60,13,31,-10,388,-1292,639,177,-1611,1141,-320,144,560,19.01,0.997285961016531,22.07,0.9965260301011596,44.82484436035156,-73.16371154785156,39.09999847412109,2,12,0.6399999856948853,18.098464965820312,11,0,0.0,0.0,0.0,0.0,-1.709909175057751,0.0,0.0,0.0323938365974072,-0.2368894373999999,0.1686939933,9.6837530622,0.5385188460350037,-0.4614962339401245,0.5181822180747986,0.4780230224132538,6,0.7470807393391927,-1.2193951924641928,-0.2943171798,9.6765745944,0.0430708068,0.0933200814,0.2225325018,-0.071784678,0.0061086523599999994,0.023212878968,0.031764992272,0.474031423136,-1.578475769824,0.7806857716079999,-0.00348,0.783,0.0348,0.10266,-0.93438,0.66178,-0.1004985492,4.9495535481,-0.014356935600000002,0.240070037748,-0.777631445428,0.40622538193999996,0.04959,-0.07568999999999998,0.34829,-9.4144,4.23648,16.4752,0.9969059955588453,20.54
12151,0,1282304,-30,1351,-17,11,16,25,-8,1353,37,24,25,-6,388,-1292,639,177,-1611,1141,-400,128,528,19.01,0.9972662225511968,22.07,0.9964668147051566,44.82484436035156,-73.16371154785156,39.09999847412109,2,12,0.6399999856948853,18.11073303222656,11,0,0.0,0.0,0.0,0.0,-1.5065743331386277,0.0,0.0,0.2212127872035758,-0.0717846779999999,0.1363908881999999,9.7052884656,0.3833309710025787,-0.5762641429901123,0.3495665788650512,0.6314905285835266,6,0.7470807393391927,-1.2193951924641928,-0.215354034,9.6981099978,-0.12203395260000001,0.1722832272,0.179461695,-0.0430708068,0.013439035192,0.019547687552,0.0305432618,0.474031423136,-1.578475769824,0.7806857716079999,-0.00464,0.78474,0.02146,0.10266,-0.93438,0.66178,-0.0215354034,4.9387858464,-0.08255237970000001,0.243735229164,-0.779464041136,0.40561451670399995,0.04901,-0.07482,0.34162000000000003,-11.768,3.76576,15.533760000000001,0.9968665186281767,20.54
12152,0,1282410,-48,1348,-8,19,15,23,-24,1348,51,29,22,-6,403,-1315,652,176,-1611,1140,-416,112,464,19.01,0.9971872686898594,22.07,0.9964569454724896,44.82484436035156,-73.16371154785156,39.09999847412109,2,12,0.6399999856948853,18.12606811523437,11,0,0.0,0.0,0.0,0.0,-1.3924482674814451,0.0,0.0,0.3004528499502231,-0.1543370577,0.2584248408,9.6765745944,0.3837345540523529,-0.5766137838363647,0.3494291007518768,0.6310022473335266,6,0.7470807393391927,-1.2193951924641928,-0.3445664544,9.6765745944,-0.0574277424,0.2081755662,0.15792629160000002,-0.0430708068,0.023212878968,0.01832595708,0.028099800855999998,0.49235738021599995,-1.60657557068,0.7965682677439999,-0.01392,0.78184,0.02958,0.10208,-0.93438,0.6612,-0.0681954441,4.917250443,-0.050249274600000005,0.25778512959199995,-0.7941248068,0.41233403429999993,0.04408,-0.07627,0.34539000000000003,-12.23872,3.29504,13.65088,0.9968221070811745,20.54
12153,0,1282515,-72,1337,22,17,-2,15,-35,1343,80,31,15,-20,403,-1315,652,176,-1611,1140,-416,80,640,19.0,0.9972070071551936,22.08,0.9963286454478164,44.82484436035156,-73.16371154785156,39.09999847412109,2,12,0.6399999856948853,18.134246826171875,11,0,0.0,0.0,0.0,0.0,-1.1712354079685756,0.0,0.0,0.4788678153584388,-0.3661018577999999,0.3840480273,9.619146852,0.384002149105072,-0.577129065990448,0.3494510948657989,0.6303558349609375,6,0.7470807393391927,-1.2193951924641928,-0.5168496816,9.5976114486,0.15792629160000002,0.2225325018,0.107677017,-0.143569356,0.020769418023999998,-0.002443460944,0.01832595708,0.49235738021599995,-1.60657557068,0.7965682677439999,-0.0203,0.77894,0.0464,0.10208,-0.93438,0.6612,-0.1471585899,4.8526442328,0.007178467800000005,0.25656339912,-0.804509515812,0.40744711241199993,0.04089,-0.07772000000000001,0.3538,-12.23872,2.3536,18.8288,0.996767826301505,20.54
12154,0,1282621,-20,1348,20,4,2,17,4,1346,81,19,15,-17,370,-1277,650,228,-1646,1137,-432,144,512,19.01,0.9973353071798668,22.08,0.9964766839378238,44.82484436035156,-73.16371154785156,39.09999847412109,2,12,0.6399999856948853,18.098464965820312,11,0,0.0,0.0,0.0,0.0,-1.0037591201894662,0.0,0.0,0.5817217482093744,-0.3625126238999999,0.0574277423999999,9.6693961266,0.3836024403572082,-0.577602744102478,0.3497967720031738,0.6299734711647034,6,0.7470807393391927,-1.2193951924641928,-0.143569356,9.6765745944,0.143569356,0.1363908882,0.107677017,-0.12203395260000001,0.004886921888,0.002443460944,0.020769418023999998,0.45204027463999996,-1.5601498127439999,0.7941248068,0.00232,0.78068,0.04698,0.13224,-0.95468,0.65946,-0.0035892339000000023,4.8921258057,0.0107677017,0.22846359826399998,-0.7788531758999999,0.407447112412,0.06727999999999999,-0.08699999999999997,0.35322000000000003,-12.70944,4.23648,15.06304,0.9969059955588453,20.545
12155,0,1282726,-20,1339,2,0,34,30,4,1340,60,12,42,-2,386,-1307,637,232,-1653,1130,-448,176,592,19.0,0.997355045645201,22.07,0.9964668147051566,44.82484436035156,-73.16371154785156,39.09999847412109,2,12,0.6399999856948853,18.100509643554688,11,0,0.0,0.0,0.0,0.0,-1.1412325357838131,0.0,0.0,0.3648538015537307,-0.2225325017999999,0.0574277423999999,9.6155576181,0.3835995495319366,-0.5772333145141602,0.3499542772769928,0.6302262544631958,6,0.7470807393391927,-1.2193951924641928,-0.143569356,9.6119683842,0.0143569356,0.0861416136,0.3014956476,-0.0143569356,0.0,0.041538836047999995,0.03665191416,0.471587962192,-1.596801726904,0.778242310664,0.00232,0.7772,0.0348,0.13456,-0.95874,0.6554,-0.028713871200000005,4.9567320159,0.0,0.235793981096,-0.777631445428,0.407447112412,0.06844,-0.09077000000000002,0.34509999999999996,-13.18016,5.17792,17.41664,0.9969109301751788,20.535
12156,0,1282831,-61,1338,0,11,24,38,-38,1343,50,20,36,-2,386,-1307,637,232,-1653,1130,-384,48,528,19.01,0.9973846533432026,22.08,0.9965951147298298,44.82484436035156,-73.16371154785156,39.09999847412109,2,12,0.6399999856948853,18.08824157714844,11,0,0.0,0.0,0.0,0.0,-1.2555550933090354,0.0,0.0,0.1903987445673493,-0.1794616949999999,0.3553341560999999,9.6227360859,0.3840988874435425,-0.5767220854759216,0.3498989343643188,0.6304209232330322,6,0.7470807393391927,-1.2193951924641928,-0.43788653580000003,9.6047899164,0.0,0.143569356,0.2584248408,-0.0143569356,0.013439035192,0.029321531328,0.046425757936,0.471587962192,-1.596801726904,0.778242310664,-0.02204,0.77894,0.029,0.13456,-0.95874,0.6554,-0.14715858990000003,4.9316073786,-0.0071784678,0.242513498692,-0.783740097788,0.4123340343,0.056260000000000004,-0.08990000000000004,0.3422,-11.29728,1.41216,15.533760000000001,0.9969898840365161,20.545
12157,0,1282937,-60,1343,5,13,24,30,-26,1344,59,25,33,-5,402,-1305,670,200,-1630,1095,-352,80,640,19.01,0.99753269183321,22.07,0.9964174685418208,44.82484436035156,-73.16371154785156,39.09999847412109,2,12,0.6399999856948853,18.101531982421875,11,0,0.0,0.0,0.0,0.0,-1.4030162794115884,0.0,0.0,0.0021768961234497,-0.2297109695999999,0.3086741153999999,9.6442714893,0.3846990764141083,-0.5765334963798523,0.3497788608074188,0.6302940249443054,6,0.7470807393391927,-1.2193951924641928,-0.430708068,9.6406822554,0.035892339,0.179461695,0.2368894374,-0.035892339,0.015882496136,0.029321531328,0.03665191416,0.491135649744,-1.59435826596,0.81855941624,-0.01508,0.77952,0.03422,0.116,-0.9454,0.6351,-0.12562318649999998,4.9387858464,0.0,0.25350907293999997,-0.782518367316,0.4276056652,0.050460000000000005,-0.08294000000000001,0.33466,-10.35584,2.3536,18.8288,0.9969750801875155,20.54
12158,0,1283042,-49,1342,12,9,4,26,-21,1344,70,23,21,-9,402,-1305,670,200,-1630,1095,-384,64,528,19.01,0.9973254379471996,22.08,0.9964372070071552,44.82484436035156,-73.16371154785156,39.0,2,12,0.6399999856948853,18.114822387695312,11,0,0.0,0.0,0.0,0.0,-1.4246573036707213,0.0,0.0,-0.0360604404529563,-0.2943171797999999,0.2512463729999999,9.640682255399998,0.3848402500152588,-0.576577365398407,0.3498357236385345,0.6301361322402954,6,0.7470807393391927,-1.2193951924641928,-0.35174492220000003,9.6335037876,0.0861416136,0.1651047594,0.1507478238,-0.0646062102,0.010995574248,0.004886921888,0.031764992272,0.491135649744,-1.59435826596,0.81855941624,-0.01218,0.77952,0.0406,0.116,-0.9454,0.6351,-0.09332008140000002,4.8921258057,0.0107677017,0.25106561199599997,-0.7947356720359999,0.425162204256,0.051910000000000005,-0.08294000000000001,0.33785,-11.29728,1.88288,15.533760000000001,0.9968813224771774,20.545
12159,0,1283148,-34,1342,10,13,17,28,-8,1343,71,23,31,-5,402,-1280,642,237,-1655,1146,-400,160,512,19.01,0.99753269183321,22.09,0.9964569454724896,44.82484436035156,-73.16371154785156,39.0,2,12,0.6399999856948853,18.107666015625,11,0,0.0,0.0,0.0,0.0,-1.5663460891919754,0.0,0.0,-0.192941289732388,-0.2907279458999999,0.1507478237999999,9.6370930215,0.3849874436855316,-0.5765841007232666,0.3499325215816498,0.6299862861633301,6,0.7470807393391927,-1.2193951924641928,-0.24406790520000002,9.6335037876,0.071784678,0.1651047594,0.2225325018,-0.035892339,0.015882496136,0.020769418023999998,0.034208453215999995,0.491135649744,-1.5638150041599999,0.784350963024,-0.00464,0.77894,0.04118,0.13746,-0.9599,0.66468,-0.03948157290000001,4.9280181447,0.0179461695,0.25350907293999997,-0.771522793068,0.40927970812,0.06641,-0.09048,0.35293,-11.768,4.7072,15.06304,0.9969948186528499,20.55
12160,0,1283253,-34,1343,45,12,24,28,-8,1350,96,25,33,-3,402,-1280,642,237,-1655,1146,-432,160,496,19.01,0.9974438687392057,22.08,0.9963878608438194,44.82484436035156,-73.16371154785156,39.0,2,12,0.6399999856948853,18.089263916015625,11,0,0.0,0.0,0.0,0.0,-1.5807920063396306,0.0,0.0,-0.200209115341975,-0.5060819799,0.1507478237999999,9.6658068927,0.6534790992736816,-0.2902248203754425,0.6312459707260132,0.3004383444786072,6,0.7470807393391927,-1.2193951924641928,-0.24406790520000002,9.6406822554,0.323031051,0.179461695,0.2368894374,-0.0215354034,0.014660765664,0.029321531328,0.034208453215999995,0.491135649744,-1.5638150041599999,0.784350963024,-0.00464,0.783,0.05568,0.13746,-0.9599,0.66468,-0.03230310510000001,4.9387858464,0.1507478238,0.252898207704,-0.7672467364159999,0.40927970812,0.06641,-0.08844999999999997,0.36018,-12.70944,4.7072,14.59232,0.9969158647915125,20.545
12161,0,1283359,-45,1341,44,-7,14,24,-19,1344,110,26,11,-8,389,-1317,642,229,-1652,1147,-432,128,544,19.01,0.9972168763878608,22.09,0.996614853195164,44.82484436035156,-73.16371154785156,39.0,2,12,0.6399999856948853,18.101531982421875,11,0,0.0,0.0,0.0,0.0,-1.474778777468721,0.0,0.0,-0.0902378101778267,-0.5527420206,0.2297109695999999,9.6370930215,0.6534621715545654,-0.2900679409503937,0.6311925649642944,0.300738662481308,6,0.7470807393391927,-1.2193951924641928,-0.323031051,9.626325319800001,0.31585258320000004,0.1866401628,0.07896314580000001,-0.0574277424,-0.008552113303999999,0.017104226607999998,0.029321531328,0.47525315360799997,-1.6090190316239998,0.784350963024,-0.01102,0.77952,0.0638,0.13282,-0.95816,0.66526,-0.0681954441,4.8526442328,0.12921242040000003,0.23335052015199997,-0.795957402508,0.406836247176,0.060899999999999996,-0.08932000000000001,0.36452999999999997,-12.70944,3.76576,16.00448,0.9969158647915124,20.55
12162,0,1283464,-7,1350,31,2,8,26,4,1349,78,14,23,-9,389,-1317,642,229,-1652,1147,-352,80,464,19.01,0.9975425610658772,22.08,0.9964372070071552,44.82484436035156,-73.16371154785156,39.0,2,12,0.6399999856948853,18.09539794921875,11,0,0.0,0.0,0.0,0.0,-1.4966248127211497,0.0,0.0,-0.1199851129139278,-0.3912264950999999,0.0107677017,9.6873422961,0.6531977653503418,-0.290078192949295,0.6313484907150269,0.3009756803512573,6,0.7470807393391927,-1.2193951924641928,-0.050249274600000005,9.69093153,0.2225325018,0.10049854920000001,0.1651047594,-0.0646062102,0.002443460944,0.009773843776,0.031764992272,0.47525315360799997,-1.6090190316239998,0.784350963024,0.00232,0.78242,0.04524,0.13282,-0.95816,0.66526,0.025124637300000002,4.9280181447,0.0789631458,0.23884830727599998,-0.7996225939239999,0.408057977648,0.06756999999999999,-0.08787,0.35524999999999995,-10.35584,2.3536,13.65088,0.9969898840365162,20.545
12163,0,1283570,-29,1350,8,7,3,32,4,1345,69,22,19,-2,412,-1301,640,209,-1626,1142,-384,96,576,19.02,0.9972464840858624,22.08,0.9965951147298298,44.82484436035156,-73.16371154785156,39.0,2,12,0.6399999856948853,18.09130859375,11,0,0.0,0.0,0.0,0.0,-1.5390200661737348,0.0,0.0,-0.1655373021656764,-0.2763710103,0.0897308475,9.672985360499998,0.6531732678413391,-0.2897299826145172,0.6314653158187866,0.3011192977428436,6,0.7470807393391927,-1.2193951924641928,-0.2081755662,9.69093153,0.0574277424,0.15792629160000002,0.1363908882,-0.0143569356,0.008552113303999999,0.003665191416,0.039095375104,0.503352954464,-1.5894713440719999,0.7819075020799999,0.00232,0.7801,0.04002,0.12122,-0.94308,0.66236,-0.02512463729999999,4.9136612091,0.0215354034,0.25595253388399997,-0.792903076328,0.41050143859199995,0.06177,-0.08149,0.35119,-11.29728,2.82432,16.94592,0.9969207994078461,20.549999999999997
12164,0,1283675,-39,1349,11,6,14,31,-6,1343,75,19,19,-3,412,-1301,640,209,-1626,1142,-528,144,512,19.01,0.9973353071798668,22.1,0.9962792992844808,44.82484436035156,-73.16371154785156,39.0,2,12,0.6399999856948853,18.097442626953125,11,0,0.0,0.0,0.0,0.0,-1.5061831414955866,0.0,0.0,-0.1307008005694346,-0.3086741153999999,0.1615155254999999,9.6622176588,0.6533418893814087,-0.2893583178520202,0.6313984394073486,0.3012509346008301,6,0.7470807393391927,-1.2193951924641928,-0.2799602442,9.683753062200001,0.07896314580000001,0.1363908882,0.1363908882,-0.0215354034,0.007330382832,0.017104226607999998,0.037873644632,0.503352954464,-1.5894713440719999,0.7819075020799999,-0.00348,0.77894,0.0435,0.12122,-0.94308,0.66236,-0.07178467799999999,4.9100719752,0.028713871200000005,0.255341668648,-0.786183558732,0.409890573356,0.05887,-0.08207000000000003,0.35292999999999997,-15.533760000000001,4.23648,15.06304,0.9968073032321738,20.555
12165,0,1283780,-56,1348,0,7,12,23,-20,1350,55,17,18,-10,391,-1318,642,226,-1605,1087,-384,16,528,19.01,0.9974438687392057,22.1,0.996486553170491,44.82484436035156,-73.16371154785156,39.0,2,12,0.6399999856948853,18.08824157714844,11,0,0.0,0.0,0.0,0.0,-1.4291695641657327,0.0,0.0,-0.0541423910765061,-0.1974078644999999,0.2727817764,9.6837530622,0.6532922983169556,-0.2893976867198944,0.6314314603805542,0.3012517094612121,6,0.7470807393391927,-1.2193951924641928,-0.40199419680000004,9.6765745944,0.0,0.12203395260000001,0.1292124204,-0.071784678,0.008552113303999999,0.014660765664,0.028099800855999998,0.47769661455199997,-1.610240762096,0.784350963024,-0.0116,0.783,0.0319,0.13108,-0.9309000000000001,0.63046,-0.13998012210000002,4.9028935074,-0.035892339,0.243124363928,-0.7977899982159999,0.40622538193999996,0.05974,-0.07395000000000002,0.33118000000000003,-11.29728,0.47072,15.533760000000001,0.9969652109548484,20.555
12166,0,1283886,-47,1345,-8,13,7,19,-15,1344,42,23,19,-11,391,-1318,642,226,-1605,1087,-464,144,544,19.03,0.9973649148778684,22.11,0.996545768566494,44.82484436035156,-73.16371154785156,39.0,2,12,0.6399999856948853,18.141403198242188,11,0,0.0,0.0,0.0,0.0,-1.4646583411936385,0.0,0.0,-0.1012411178392054,-0.1220339526,0.2225325017999999,9.6514499571,0.6531165242195129,-0.2897297739982605,0.631507158279419,0.301154613494873,6,0.7470807393391927,-1.2193951924641928,-0.3373879866,9.655039191,-0.0574277424,0.1651047594,0.1363908882,-0.07896314580000001,0.015882496136,0.008552113303999999,0.023212878968,0.47769661455199997,-1.610240762096,0.784350963024,-0.0087,0.77952,0.02436,0.13108,-0.9309000000000001,0.63046,-0.08614161360000001,4.8957150396,-0.0681954441,0.246789555344,-0.800844324396,0.40378192099599997,0.06119,-0.07569000000000004,0.32741000000000003,-13.65088,4.23648,16.00448,0.9969553417221813,20.57
12167,0,1283991,-38,1349,-2,21,11,20,-2,1347,47,33,21,-14,375,-1264,606,201,-1605,1140,-480,128,640,19.01,0.9972760917838638,22.1,0.9963187762151492,44.82484436035156,-73.16371154785156,39.0,2,12,0.6399999856948853,18.11993408203125,11,0,0.0,0.0,0.0,0.0,-1.469208796869936,0.0,0.0,-0.108248549288594,-0.1615155254999999,0.1435693559999999,9.676574594399998,0.6533625721931458,-0.2900367379188537,0.6313614249229431,0.3006309270858764,6,0.7470807393391927,-1.2193951924641928,-0.2727817764,9.683753062200001,-0.0143569356,0.2368894374,0.1507478238,-0.10049854920000001,0.025656339912,0.013439035192,0.024434609439999998,0.458148927,-1.5442673166079999,0.7403686660319999,-0.00116,0.78126,0.02726,0.11658,-0.9309000000000001,0.6612,-0.017946169499999998,4.917250443,-0.0574277424,0.241902633456,-0.765414140708,0.38240163773599994,0.057710000000000004,-0.07482000000000005,0.34423,-14.1216,3.76576,18.8288,0.9967974339995065,20.555
12168,0,1284097,-7,1343,60,14,9,29,16,1348,111,24,20,-2,375,-1264,606,201,-1605,1140,-384,96,464,19.01,0.9973155687145324,22.1,0.9964372070071552,44.82484436035156,-73.16371154785156,39.0,2,12,0.6399999856948853,18.105621337890625,11,0,0.0,0.0,0.0,0.0,-1.4251290736320117,0.0,0.0,-0.0638966062553418,-0.6137589968999999,-0.0323031050999999,9.6586284249,0.6537802815437317,-0.2901259660720825,0.6310921907424927,0.3002015948295593,6,0.7470807393391927,-1.2193951924641928,-0.050249274600000005,9.6406822554,0.430708068,0.1722832272,0.143569356,-0.0143569356,0.017104226607999998,0.010995574248,0.035430183688,0.458148927,-1.5442673166079999,0.7403686660319999,0.00928,0.78184,0.06438,0.11658,-0.9309000000000001,0.6612,0.0610169763,4.8921258057,0.2081755662,0.23762657680399998,-0.76663587118,0.38789942485999995,0.06293,-0.07453000000000004,0.36279,-11.29728,2.82432,13.65088,0.9968763878608438,20.555
12169,0,1284202,-49,1343,24,-2,10,33,-5,1340,83,15,21,1,382,-1300,622,257,-1624,1130,-320,96,560,19.0,0.997414261041204,22.11,0.9964964224031582,44.82484436035156,-73.16371154785156,39.0,2,12,0.6399999856948853,18.200698852539062,11,0,0.0,0.0,0.0,0.0,-1.4367315040844515,0.0,0.0,-0.0843505209820568,-0.3840480273,0.1938186305999999,9.6299145537,0.6537268757820129,-0.2896713018417358,0.6311675310134888,0.3005982339382171,6,0.7470807393391927,-1.2193951924641928,-0.35174492220000003,9.6406822554,0.1722832272,0.107677017,0.1507478238,0.0071784678,-0.002443460944,0.012217304719999999,0.040317105576,0.46670104030399995,-1.5882496136,0.759916353584,-0.0029,0.7772,0.04814,0.14906,-0.94192,0.6554,-0.12203395260000002,4.8957150396,0.0897308475,0.23212878967999998,-0.78801615444,0.40011672958,0.07308,-0.08235999999999999,0.35176999999999997,-9.4144,2.82432,16.4752,0.996955341722181,20.555
12170,0,1284308,-45,1344,15,21,-10,34,-22,1342,59,9,17,0,382,-1300,622,249,-1651,1145,-352,112,576,19.01,0.9973353071798668,22.1,0.9964372070071552,44.82484436035156,-73.16371154785156,39.0,2,12,0.6399999856948853,18.150604248046875,11,0,0.0,0.0,0.0,0.0,-1.3825444164669236,0.0,0.0,-0.0352382767188911,-0.2656033086,0.2404786712999999,9.640682255399998,0.7011837959289551,-0.1488528847694397,0.6800222992897034,0.1541224420070648,6,0.7470807393391927,-1.2193951924641928,-0.323031051,9.6478607232,0.107677017,0.0646062102,0.12203395260000001,0.0,0.025656339912,-0.012217304719999999,0.041538836047999995,0.46670104030399995,-1.5882496136,0.759916353584,-0.01276,0.77836,0.03422,0.14442,-0.95758,0.6641,-0.1292124204,4.884947337900001,0.0538385085,0.24617869010799998,-0.80023345916,0.400727594816,0.06583,-0.08960999999999997,0.34916,-10.35584,3.29504,16.94592,0.9968862570935111,20.555
12171,0,1284413,-56,1347,13,10,19,32,-9,1345,74,24,28,-4,386,-1290,622,249,-1651,1145,-480,80,576,19.0,0.997414261041204,22.11,0.996545768566494,44.82484436035156,-73.16371154785156,39.09999847412109,2,12,0.6399999856948853,18.06063842773437,11,0,0.0,0.0,0.0,0.0,-1.3979705762451091,0.0,0.0,-0.0628397550696468,-0.3122633493,0.2333002035,9.6622176588,0.7012212872505188,-0.1485537439584732,0.6800054311752319,0.1543153375387191,6,0.7470807393391927,-1.2193951924641928,-0.40199419680000004,9.6693961266,0.0933200814,0.1722832272,0.20099709840000002,-0.0287138712,0.012217304719999999,0.023212878968,0.039095375104,0.471587962192,-1.57603230888,0.759916353584,-0.00522,0.7801,0.04292,0.14442,-0.95758,0.6641,-0.11485548480000002,4.9351966125,0.0323031051,0.241902633456,-0.776409714956,0.399505864344,0.0696,-0.08873999999999999,0.35351,-14.1216,2.3536,16.94592,0.996980014803849,20.555
12172,0,1284519,-63,1341,19,9,9,21,-24,1339,82,22,19,-15,386,-1290,622,221,-1603,1125,-352,160,480,19.0,0.9973056994818652,22.12,0.9964075993091536,44.82484436035156,-73.16371154785156,39.09999847412109,2,12,0.6399999856948853,18.098464965820312,11,0,0.0,0.0,0.0,0.0,-1.306992667825068,0.0,0.0,0.0185732998341139,-0.3625126239,0.3122633493,9.619146852,0.701248049736023,-0.1487145274877548,0.6799646615982056,0.1542181223630905,6,0.7470807393391927,-1.2193951924641928,-0.45224347140000004,9.626325319800001,0.1363908882,0.15792629160000002,0.1363908882,-0.107677017,0.010995574248,0.010995574248,0.025656339912,0.471587962192,-1.57603230888,0.759916353584,-0.01392,0.77662,0.04756,0.12818,-0.92974,0.6525,-0.14715858990000003,4.881358104,0.014356935600000002,0.24129176822,-0.782518367316,0.392786346748,0.05712999999999999,-0.07656000000000002,0.35003,-10.35584,4.7072,14.1216,0.9968566493955093,20.560000000000002
12173,0,1284624,-9,1343,3,7,11,14,10,1352,58,21,19,-16,409,-1276,647,221,-1603,1125,-432,48,496,19.01,0.9972760917838638,22.12,0.9965753762644954,44.82484436035156,-73.16371154785156,39.09999847412109,2,12,0.6399999856948853,18.032012939453125,11,0,0.0,0.0,0.0,0.0,-1.2710233711384509,0.0,0.0,0.036528416685676,-0.2189432679,-0.0035892338999999,9.6729853605,0.7011118531227112,-0.1491641402244568,0.6800794005393982,0.1538967490196228,6,0.7470807393391927,-1.2193951924641928,-0.0646062102,9.6406822554,0.0215354034,0.1507478238,0.1363908882,-0.1148554848,0.008552113303999999,0.013439035192,0.017104226607999998,0.49968776304799994,-1.558928082272,0.790459615384,0.0058,0.78416,0.03364,0.12818,-0.92974,0.6525,0.04307080680000001,4.8885365718,-0.0466600407,0.254119938176,-0.77274452354,0.403781920996,0.06699,-0.07279000000000002,0.34307,-12.70944,1.41216,14.59232,0.9969257340241796,20.565
12174,0,1284730,-28,1343,-1,18,16,28,4,1340,54,31,23,-6,409,-1276,647,209,-1625,1107,-352,16,464,19.01,0.9973254379471996,22.11,0.9965062916358252,44.82484436035156,-73.16371154785156,39.09999847412109,2,12,0.6399999856948853,18.089263916015625,11,0,0.0,0.0,0.0,0.0,-1.1791739298732271,0.0,0.0,0.1138372230413047,-0.1902293967,0.0861416136,9.6299145537,0.7012662291526794,-0.1493111401796341,0.6799253225326538,0.1537317037582397,6,0.7470807393391927,-1.2193951924641928,-0.20099709840000002,9.6406822554,-0.0071784678,0.2225325018,0.1651047594,-0.0430708068,0.021991148496,0.019547687552,0.034208453215999995,0.49968776304799994,-1.558928082272,0.790459615384,0.00232,0.7772,0.03132,0.12122,-0.9425,0.64206,0.010767701699999993,4.9028935074,-0.0251246373,0.26083945577199996,-0.76969019736,0.4123340343,0.06177,-0.08265,0.33669,-10.35584,0.47072,13.65088,0.9969158647915124,20.560000000000002
12175,0,1284835,-39,1332,12,18,15,28,-10,1345,74,31,22,-5,404,-1283,609,209,-1625,1107,-464,128,576,19.0,0.9972464840858624,22.1,0.9963779916111524,44.82484436035156,-73.16371154785156,39.09999847412109,2,12,0.6399999856948853,18.082107543945312,11,0,0.0,0.0,0.0,0.0,-0.9686322562366656,0.0,0.0,0.3017298182762688,-0.3086741154,0.1758724611,9.6083791503,0.7016715407371521,-0.1493964046239853,0.6795023083686829,0.1536701023578643,6,0.7470807393391927,-1.2193951924641928,-0.2799602442,9.5617191096,0.0861416136,0.2225325018,0.15792629160000002,-0.035892339,0.021991148496,0.01832595708,0.034208453215999995,0.493579110688,-1.5674801955759998,0.744033857448,-0.0058,0.7801,0.04292,0.12122,-0.9425,0.64206,-0.02871387119999999,4.8598227006000005,0.0251246373,0.257785129592,-0.7745771192479999,0.389121155332,0.05771,-0.0812,0.34248999999999996,-13.65088,3.76576,16.94592,0.9968122378485074,20.55
12176,0,1284940,-47,1337,28,16,16,30,-16,1343,95,17,15,-7,408,-1303,620,222,-1601,1133,-352,128,560,19.01,0.9973846533432026,22.13,0.9965358993338268,44.82484436035156,-73.16371154785156,39.09999847412109,2,12,0.6399999856948853,18.108688354492188,11,0,0.0,0.0,0.0,0.0,-0.9243313726136124,0.0,0.0,0.2977216057541005,-0.4414757696999999,0.2261217357,9.619146852,0.7018512487411499,-0.1492455303668975,0.6793642044067383,0.1536067277193069,6,0.7470807393391927,-1.2193951924641928,-0.3373879866,9.5976114486,0.20099709840000002,0.12203395260000001,0.107677017,-0.050249274600000005,0.019547687552,0.019547687552,0.03665191416,0.498466032576,-1.591914805016,0.75747289264,-0.00928,0.77894,0.0551,0.12876,-0.92858,0.6571400000000001,-0.10767701700000001,4.8526442328,0.0753739119,0.259006860064,-0.786183558732,0.3970624034,0.05974000000000001,-0.07482,0.35612000000000005,-10.35584,3.76576,16.4752,0.9969602763385147,20.57
12177,0,1285046,-51,1341,4,1,4,30,-4,1343,45,15,17,-4,408,-1303,620,222,-1601,1133,-384,96,528,19.01,0.9974241302738712,22.11,0.9963977300764866,44.82484436035156,-73.16371154785156,39.09999847412109,2,12,0.6399999856948853,18.118911743164062,11,0,0.0,0.0,0.0,0.0,-0.8672703128450524,0.0,0.0,0.306213987710503,-0.1758724611,0.1974078645,9.6335037876,0.7015629410743713,-0.1491942852735519,0.679610550403595,0.1538832336664199,6,0.7470807393391927,-1.2193951924641928,-0.36610185780000004,9.626325319800001,0.0287138712,0.107677017,0.12203395260000001,-0.0287138712,0.001221730472,0.004886921888,0.03665191416,0.498466032576,-1.591914805016,0.75747289264,-0.00232,0.77894,0.0261,0.12876,-0.92858,0.6571400000000001,-0.12921242040000003,4.874179636200001,0.0,0.249843881524,-0.7935139415639999,0.3970624034,0.06322000000000001,-0.07482,0.34162000000000003,-11.29728,2.82432,15.533760000000001,0.9969109301751788,20.560000000000002
12178,0,1285151,-26,1340,9,8,18,29,-8,1346,67,17,25,-5,381,-1317,643,190,-1605,1146,-368,128,464,19.01,0.9972168763878608,22.12,0.9964569454724896,44.82484436035156,-73.16371154785156,39.09999847412109,2,12,0.6399999856948853,18.165939331054688,11,0,0.0,0.0,0.0,0.0,-0.8252468375853806,0.0,0.0,0.2997749879961132,-0.2727817763999999,0.1220339526,9.6406822554,0.7013817429542542,-0.1488249450922012,0.6798646450042725,0.1539444923400879,6,0.7470807393391927,-1.2193951924641928,-0.1866401628,9.619146852,0.0646062102,0.12203395260000001,0.179461695,-0.035892339,0.009773843776,0.021991148496,0.035430183688,0.465479309832,-1.6090190316239998,0.785572693496,-0.00464,0.78068,0.03886,0.1102,-0.9309000000000001,0.66468,-0.0323031051,4.8993042735,0.014356935599999999,0.23762657680399998,-0.7935139415639999,0.410501438592,0.05278,-0.07511000000000001,0.35177,-10.82656,3.76576,13.65088,0.9968369109301752,20.565
12179,0,1285257,-13,1347,31,12,6,25,9,1359,83,21,17,-8,381,-1317,643,190,-1605,1146,-288,32,560,19.01,0.9973254379471996,22.12,0.9965260301011596,44.82484436035156,-73.16371154785156,39.09999847412109,2,12,0.6399999856948853,18.1158447265625,11,0,0.0,0.0,0.0,0.0,-0.9076036819088864,0.0,0.0,0.1656291139390055,-0.4091726645999999,0.0143569355999999,9.712466933399998,0.7158563137054443,-0.0995215252041816,0.6832103729248047,0.10425366461277,6,0.7470807393391927,-1.2193951924641928,-0.0933200814,9.6693961266,0.2225325018,0.1507478238,0.12203395260000001,-0.0574277424,0.014660765664,0.007330382832,0.0305432618,0.465479309832,-1.6090190316239998,0.785572693496,0.00522,0.78822,0.04814,0.1102,-0.9309000000000001,0.66468,0.028713871200000005,4.895715039600001,0.0825523797,0.24007003774799998,-0.800844324396,0.408057977648,0.057710000000000004,-0.07134000000000001,0.35641,-8.47296,0.94144,16.4752,0.9969257340241796,20.565
12180,0,1285362,-48,1348,3,3,3,24,-17,1342,54,17,15,-12,385,-1303,610,236,-1643,1150,-496,160,576,19.01,0.9973747841105354,22.12,0.9964668147051566,44.82484436035156,-73.16371154785156,39.09999847412109,2,12,0.6399999856948853,18.12606811523437,11,0,0.0,0.0,0.0,0.0,-0.8180306613503613,0.0,0.0,0.2186163718070929,-0.2045863322999999,0.2333002035,9.655039191,0.715915322303772,-0.0995718389749527,0.6831515431404114,0.1041855663061142,6,0.7470807393391927,-1.2193951924641928,-0.3445664544,9.6765745944,0.0215354034,0.12203395260000001,0.107677017,-0.0861416136,0.003665191416,0.003665191416,0.029321531328,0.47036623171999997,-1.591914805016,0.7452555879199999,-0.00986,0.77836,0.03132,0.13688,-0.95294,0.667,-0.1112662509,4.8921258057,-0.0323031051,0.237015711568,-0.7941248068,0.38728855962399994,0.06351,-0.08728999999999998,0.34916,-14.59232,4.7072,16.94592,0.996920799407846,20.565
12181,0,1285468,-44,1346,-15,3,17,26,-7,1347,37,17,24,-8,385,-1303,610,236,-1643,1150,-384,80,608,19.02,0.99746360720454,22.12,0.9964569454724896,44.82484436035156,-73.16371154785156,39.09999847412109,2,12,0.6399999856948853,18.11175537109375,11,0,0.0,0.0,0.0,0.0,-0.9028044655927028,0.0,0.0,0.0910823700902385,-0.0789631458,0.1830509289,9.6658068927,0.7158015370368958,-0.099539078772068,0.6832968592643738,0.104046456515789,6,0.7470807393391927,-1.2193951924641928,-0.31585258320000004,9.6622176588,-0.107677017,0.12203395260000001,0.1722832272,-0.0574277424,0.003665191416,0.020769418023999998,0.031764992272,0.47036623171999997,-1.591914805016,0.7452555879199999,-0.00406,0.78126,0.02146,0.13688,-0.95294,0.667,-0.09690931530000002,4.9172504429999995,-0.0825523797,0.237015711568,-0.785572693496,0.38851029009599997,0.06641,-0.08584000000000003,0.34423000000000004,-11.29728,2.3536,17.88736,0.9969602763385148,20.57
12182,0,1285573,-65,1342,12,14,16,34,-44,1342,73,27,24,0,413,-1299,645,207,-1589,1111,-384,80,592,19.01,0.9972662225511968,22.12,0.9965852454971624,44.82484436035156,-73.16371154785156,39.09999847412109,2,12,0.6399999856948853,18.085174560546875,11,0,0.0,0.0,0.0,0.0,-1.0862363795798584,0.0,0.0,-0.1231311411388653,-0.3050848815,0.3912264950999999,9.6335037876,0.716083824634552,-0.099279299378395,0.6830317974090576,0.1040924787521362,6,0.7470807393391927,-1.2193951924641928,-0.466600407,9.6335037876,0.0861416136,0.1938186306,0.1722832272,0.0,0.017104226607999998,0.019547687552,0.041538836047999995,0.504574684936,-1.5870278831279998,0.78801615444,-0.02552,0.77836,0.04234,0.12006,-0.92162,0.64438,-0.1363908882,4.9028935074,0.0430708068,0.260839455772,-0.7837400977879999,0.414777495244,0.04727,-0.07162999999999997,0.34336,-11.29728,2.3536,17.41664,0.9969257340241796,20.565
12183,0,1285679,-60,1338,8,7,19,25,-19,1341,69,20,30,-6,413,-1299,645,207,-1589,1111,-400,128,544,19.01,0.9973945225758696,22.12,0.9965260301011596,44.82484436035156,-73.16371154785156,39.09999847412109,2,12,0.6399999856948853,18.05757141113281,11,0,0.0,0.0,0.0,0.0,-1.2087899500536314,0.0,0.0,-0.2578019492732035,-0.2763710103,0.2835494781,9.6155576181,0.7160648107528687,-0.0990942269563674,0.6830824017524719,0.1040672212839126,6,0.7470807393391927,-1.2193951924641928,-0.430708068,9.6047899164,0.0574277424,0.143569356,0.215354034,-0.0430708068,0.008552113303999999,0.023212878968,0.0305432618,0.504574684936,-1.5870278831279998,0.78801615444,-0.01102,0.77778,0.04002,0.12006,-0.92162,0.64438,-0.14356935599999998,4.9100719752,0.007178467800000001,0.25656339912,-0.7819075020799999,0.40927970812,0.05452,-0.07191999999999998,0.34219999999999995,-11.768,3.76576,16.00448,0.9969602763385146,20.565
12184,0,1285784,-41,1337,-7,11,22,20,-1,1338,37,23,35,-13,399,-1306,666,238,-1656,1114,-384,96,576,19.01,0.9976313841598816,22.12,0.99673328398717,44.82484436035156,-73.16371154785156,39.09999847412109,2,12,0.6399999856948853,18.082107543945312,11,0,0.0,0.0,0.0,0.0,-1.4951315670959242,0.0,0.0,-0.5462903767495759,-0.1076770169999999,0.1507478237999999,9.6012006825,0.7159388661384583,-0.0994288101792335,0.6831802725791931,0.1039723008871078,6,0.7470807393391927,-1.2193951924641928,-0.2943171798,9.5976114486,-0.050249274600000005,0.1651047594,0.251246373,-0.0933200814,0.013439035192,0.026878070384,0.024434609439999998,0.48747045832799996,-1.5955799964319999,0.813672494352,-0.00058,0.77604,0.02146,0.13804,-0.96048,0.64612,-0.0646062102,4.924428910800001,-0.071784678,0.25045474675999996,-0.784350963024,0.41905355189599997,0.06873,-0.09222000000000002,0.33379000000000003,-11.29728,2.82432,16.94592,0.9971823340735257,20.565
12185,0,1285889,-23,1340,3,17,11,27,8,1343,56,23,29,-4,399,-1306,666,238,-1656,1114,-288,144,640,19.01,0.9972662225511968,22.13,0.996486553170491,44.82484436035156,-73.16371154785156,39.09999847412109,2,12,0.6399999856948853,18.11073303222656,11,0,0.0,0.0,0.0,0.0,-1.656598839556278,0.0,0.0,-0.6634720522930058,-0.2117648000999999,0.0538385085,9.6299145537,0.7161060571670532,-0.0994636639952659,0.6830186247825623,0.1038499474525451,6,0.7470807393391927,-1.2193951924641928,-0.1651047594,9.619146852,0.0215354034,0.1651047594,0.2081755662,-0.0287138712,0.020769418023999998,0.013439035192,0.032986722744,0.48747045832799996,-1.5955799964319999,0.813672494352,0.00464,0.77894,0.03248,0.13804,-0.96048,0.64612,0.0,4.9136612091,-0.0035892339000000006,0.254119938176,-0.79107048062,0.42332960854799995,0.07134,-0.09077000000000002,0.3393,-8.47296,4.23648,18.8288,0.9968763878608439,20.57
12186,0,1285995,-59,1336,43,11,41,31,-29,1343,93,26,48,-4,384,-1297,672,199,-1601,1103,-352,64,560,19.01,0.9972662225511968,22.14,0.996358253145818,44.82484436035156,-73.16371154785156,39.09999847412109,2,12,0.6399999856948853,18.096420288085938,11,0,0.0,0.0,0.0,0.0,-1.5901737989543547,0.0,0.0,-0.5361637176334123,-0.4881358104,0.3158525832,9.6155576181,0.7164509892463684,-0.0990860909223556,0.6827303767204285,0.103726141154766,6,0.7470807393391927,-1.2193951924641928,-0.4235296002,9.590432980800001,0.3086741154,0.1866401628,0.3445664544,-0.0287138712,0.013439035192,0.050090949351999994,0.037873644632,0.469144501248,-1.584584422184,0.821002877184,-0.01682,0.77894,0.05394,0.11542,-0.92858,0.63974,-0.1184447187,4.967499717600001,0.1399801221,0.24129176822,-0.7672467364159999,0.429438260908,0.0493,-0.07482,0.34684,-10.35584,1.88288,16.4752,0.9968122378485074,20.575000000000003
12187,0,1286100,-52,1338,27,8,32,27,-20,1350,94,17,42,-8,384,-1297,672,218,-1611,1135,-384,80,528,19.01,0.9973353071798668,22.13,0.9963878608438194,44.82484436035156,-73.16371154785156,39.09999847412109,2,12,0.6399999856948853,18.051437377929688,11,0,0.0,0.0,0.0,0.0,-1.4791354117333886,0.0,0.0,-0.3813181866627675,-0.4342973018999999,0.2584248407999999,9.6478607232,0.7164489030838013,-0.0989342853426933,0.6827452778816223,0.1037881672382354,6,0.7470807393391927,-1.2193951924641928,-0.3732803256,9.6047899164,0.1938186306,0.12203395260000001,0.3014956476,-0.0574277424,0.009773843776,0.039095375104,0.032986722744,0.469144501248,-1.584584422184,0.821002877184,-0.0116,0.783,0.05452,0.12644,-0.93438,0.6583,-0.1256231865,4.953142782,0.0681954441,0.239459172512,-0.77274452354,0.426994799964,0.05742,-0.07568999999999998,0.35641,-11.29728,2.3536,15.533760000000001,0.9968615840118431,20.57
12188,0,1286206,-32,1343,21,5,21,30,2,1344,85,18,35,-3,363,-1282,663,218,-1611,1135,-320,80,576,19.02,0.997355045645201,22.12,0.9964766839378238,44.82484436035156,-73.16371154785156,39.09999847412109,2,12,0.6399999856948853,18.10971069335937,11,0,0.0,0.0,0.0,0.0,-1.5595343586894843,0.0,0.0,-0.4408321467446236,-0.3804587933999999,0.1076770169999999,9.6442714893,0.7163719534873962,-0.0989259853959083,0.6828222870826721,0.103819839656353,6,0.7470807393391927,-1.2193951924641928,-0.2297109696,9.6406822554,0.1507478238,0.1292124204,0.251246373,-0.0215354034,0.0061086523599999994,0.025656339912,0.03665191416,0.443488161336,-1.566258465104,0.810007302936,0.00116,0.77952,0.049300000000000004,0.12644,-0.93438,0.6583,-0.050249274600000005,4.9459643142,0.06460621020000001,0.224798406848,-0.770301062596,0.423329608548,0.0638,-0.07743,0.3538,-9.4144,2.3536,16.94592,0.9969158647915124,20.57
12189,0,1286311,-27,1344,49,10,24,35,4,1347,104,22,36,0,363,-1282,663,212,-1651,1123,-400,112,576,19.01,0.9972760917838638,22.13,0.9967036762891686,44.82484436035156,-73.16371154785156,39.09999847412109,2,12,0.6399999856948853,18.04121398925781,11,0,0.0,0.0,0.0,0.0,-1.6495036062275028,0.0,0.0,-0.5000961546071291,-0.5491527866999999,0.0825523797,9.658628424899998,0.7063952684402466,-0.1187424808740615,0.6869709491729736,0.1223803460597992,6,0.7470807393391927,-1.2193951924641928,-0.1938186306,9.6478607232,0.35174492220000003,0.15792629160000002,0.2584248408,0.0,0.012217304719999999,0.029321531328,0.042760566519999994,0.443488161336,-1.566258465104,0.810007302936,0.00232,0.78126,0.06032,0.12296,-0.95758,0.65134,-0.017946169499999998,4.9531427820000005,0.17587246110000002,0.227852733028,-0.768468466888,0.426383934728,0.06264,-0.08816000000000002,0.35583000000000004,-11.768,3.29504,16.94592,0.9969898840365161,20.57
12190,0,1286417,-34,1348,43,3,13,34,-2,1351,111,13,22,0,391,-1309,628,212,-1651,1123,-432,176,480,19.0,0.9973056994818652,22.14,0.9965161608684924,44.82484436035156,-73.16371154785156,39.09999847412109,2,12,0.6399999856948853,18.141403198242188,11,0,0.0,0.0,0.0,0.0,-1.7313899552964855,0.0,0.0,-0.5445247914687243,-0.5527420206,0.1292124204,9.6873422961,0.706310510635376,-0.1182532161474227,0.6870694160461426,0.1227898076176643,6,0.7470807393391927,-1.2193951924641928,-0.24406790520000002,9.6765745944,0.3086741154,0.0933200814,0.15792629160000002,0.0,0.003665191416,0.015882496136,0.041538836047999995,0.47769661455199997,-1.5992451878479998,0.7672467364159999,-0.00116,0.78358,0.06438,0.12296,-0.95758,0.65134,-0.0753739119,4.917250443,0.1543370577,0.240680902984,-0.7916813458559999,0.404392786232,0.0609,-0.08699999999999997,0.35786,-12.70944,5.17792,14.1216,0.9969109301751788,20.57
12191,0,1286522,-43,1344,17,3,17,36,-12,1351,86,9,28,2,391,-1309,628,186,-1600,1125,-432,32,512,19.01,0.99753269183321,22.12,0.9964766839378238,44.82484436035156,-73.16371154785156,39.09999847412109,2,12,0.6399999856948853,18.12811279296875,11,0,0.0,0.0,0.0,0.0,-1.7503624858420692,0.0,0.0,-0.5219603726682581,-0.3696910916999999,0.1974078644999999,9.6729853605,0.7060254812240601,-0.117647647857666,0.6874099969863892,0.1231041923165321,6,0.7470807393391927,-1.2193951924641928,-0.3086741154,9.6478607232,0.12203395260000001,0.0646062102,0.20099709840000002,0.0143569356,0.003665191416,0.020769418023999998,0.043982296992,0.47769661455199997,-1.5992451878479998,0.7672467364159999,-0.00696,0.78358,0.04988,0.10788,-0.928,0.6525,-0.1220339526,4.924428910800001,0.0681954441,0.240680902984,-0.789237884912,0.40561451670399995,0.050460000000000005,-0.07221,0.35119,-12.70944,0.94144,15.06304,0.997004687885517,20.565
12192,0,1286628,-62,1338,10,15,4,24,-25,1340,69,29,18,-11,363,-1273,630,186,-1600,1125,-432,128,544,19.02,0.9975030841352084,22.12,0.9965852454971624,44.82484436035156,-73.16371154785156,39.09999847412109,2,12,0.6399999856948853,18.108688354492188,11,0,0.0,0.0,0.0,0.0,-1.7498322786388891,0.0,0.0,-0.4833835639823644,-0.2835494781,0.3122633493,9.6119683842,0.706095278263092,-0.1174423322081565,0.6873900294303894,0.1230112239718437,6,0.7470807393391927,-1.2193951924641928,-0.4450650036,9.6047899164,0.071784678,0.2081755662,0.1292124204,-0.07896314580000001,0.01832595708,0.004886921888,0.029321531328,0.443488161336,-1.555262890856,0.76969019736,-0.0145,0.7772,0.04002,0.10788,-0.928,0.6525,-0.1184447187,4.8670011684,-0.0035892339000000023,0.230907059208,-0.775187984484,0.399505864344,0.04669,-0.07540000000000002,0.34626,-12.70944,3.76576,16.00448,0.9970441648161854,20.57
12193,0,1286733,-45,1345,5,15,6,19,-5,1341,77,27,12,-15,363,-1273,630,181,-1648,1151,-448,96,528,19.01,0.9973945225758696,22.13,0.9965951147298298,44.82484436035156,-73.16371154785156,39.09999847412109,2,12,0.6399999856948853,18.075973510742188,11,0,0.0,0.0,0.0,0.0,-1.7351622322834372,0.0,0.0,-0.4314007660288886,-0.2943171798,0.1794616949999999,9.640682255399998,0.7065487504005432,-0.1180188357830047,0.6868411898612976,0.1229211688041687,6,0.7470807393391927,-1.2193951924641928,-0.323031051,9.655039191,0.035892339,0.1938186306,0.0861416136,-0.107677017,0.01832595708,0.007330382832,0.023212878968,0.443488161336,-1.555262890856,0.76969019736,-0.0029,0.77778,0.04466,0.10498,-0.95584,0.66758,-0.0646062102,4.8705904023,-0.035892338999999995,0.230907059208,-0.773966254012,0.396451538164,0.05104,-0.08903,0.35612,-13.18016,2.82432,15.533760000000001,0.9969948186528497,20.57
12194,0,1286838,-18,1347,-5,13,11,17,7,1349,44,21,22,-18,360,-1324,653,181,-1648,1151,-528,128,608,19.02,0.9975129533678756,22.14,0.9965556377991612,44.82484436035156,-73.16371154785156,39.09999847412109,2,12,0.6399999856948853,18.089263916015625,11,0,0.0,0.0,0.0,0.0,-1.7129881457006226,0.0,0.0,-0.3775828958245188,-0.1399801221,0.0394815729,9.676574594399998,0.7067307233810425,-0.1184145808219909,0.6866730451583862,0.1224331334233284,6,0.7470807393391927,-1.2193951924641928,-0.1292124204,9.6693961266,-0.035892339,0.1507478238,0.15792629160000002,-0.1292124204,0.015882496136,0.013439035192,0.020769418023999998,0.43982296992,-1.617571144928,0.7977899982159999,0.00406,0.78242,0.02552,0.10498,-0.95584,0.66758,0.010767701700000007,4.913661209100001,-0.0825523797,0.227852733028,-0.802066054868,0.40927970812,0.05452,-0.08671000000000001,0.34654999999999997,-15.533760000000001,3.76576,17.88736,0.9970342955835184,20.58
12195,0,1286944,-22,1345,6,13,6,26,2,1342,57,29,14,-8,389,-1314,609,195,-1624,1110,-368,80,528,19.02,0.9974043918085368,22.12,0.9965260301011596,44.82484436035156,-73.16371154785156,39.09999847412109,2,12,0.6399999856948853,18.18638610839844,11,0,0.0,0.0,0.0,0.0,-1.633993719328909,0.0,0.0,-0.2695810017460439,-0.2261217357,0.0717846779999999,9.6442714893,0.7070146203041077,-0.118492767214775,0.6864138245582581,0.1221716403961181,6,0.7470807393391927,-1.2193951924641928,-0.15792629160000002,9.655039191,0.0430708068,0.2081755662,0.10049854920000001,-0.0574277424,0.015882496136,0.007330382832,0.031764992272,0.47525315360799997,-1.6053538402079999,0.744033857448,0.00116,0.77836,0.03306,0.1131,-0.94192,0.6438,0.02512463729999999,4.8777688701,-0.007178467800000001,0.245567824872,-0.799011728688,0.38789942486,0.05713,-0.08177999999999996,0.33843,-10.82656,2.3536,15.533760000000001,0.9969652109548481,20.57
12196,0,1287049,-28,1344,34,12,16,26,2,1348,96,22,28,-7,389,-1314,609,195,-1624,1110,-352,48,512,19.02,0.9972464840858624,22.12,0.9965753762644954,44.82484436035156,-73.16371154785156,39.09999847412109,2,12,0.6399999856948853,18.14344787597656,11,0,0.0,0.0,0.0,0.0,-1.4719969326158369,0.0,0.0,-0.0907429771040407,-0.466600407,0.0933200813999999,9.6622176588,0.7073125839233398,-0.1182798370718956,0.6861788630485535,0.1219725236296653,6,0.7470807393391927,-1.2193951924641928,-0.20099709840000002,9.6478607232,0.24406790520000002,0.15792629160000002,0.20099709840000002,-0.050249274600000005,0.014660765664,0.019547687552,0.031764992272,0.47525315360799997,-1.6053538402079999,0.744033857448,0.00116,0.78184,0.05568,0.1131,-0.94192,0.6438,-0.0215354034,4.924428910800001,0.0969093153,0.24495695963599998,-0.792903076328,0.38789942486,0.05713,-0.08004,0.34974,-10.35584,1.41216,15.06304,0.9969109301751788,20.57
12197,0,1287155,-25,1342,30,14,8,27,7,1355,108,20,13,-10,383,-1324,635,184,-1593,1094,-448,160,640,19.0,0.997414261041204,22.13,0.996486553170491,44.82484436035156,-73.16371154785156,39.09999847412109,2,12,0.6399999856948853,18.10971069335937,11,0,0.0,0.0,0.0,0.0,-1.4104817005188046,0.0,0.0,-0.0345990691614079,-0.4953142781999999,0.0646062101999999,9.6801638283,0.7073245048522949,-0.1183136850595474,0.6861671805381775,0.1219365447759628,6,0.7470807393391927,-1.2193951924641928,-0.179461695,9.6335037876,0.215354034,0.143569356,0.0933200814,-0.071784678,0.017104226607999998,0.009773843776,0.032986722744,0.467922770776,-1.617571144928,0.7757988497199999,0.00406,0.7859,0.06264,0.10672,-0.92394,0.63452,-0.017946169499999998,4.8634119345,0.07178467799999999,0.24251349869199998,-0.803898650576,0.4043927862319999,0.055389999999999995,-0.06901999999999997,0.34858,-13.18016,4.7072,18.8288,0.9969504071058475,20.564999999999998
12198,0,1287260,-30,1348,11,2,8,28,2,1349,66,18,21,-3,383,-1324,635,184,-1593,1094,-384,96,496,19.01,0.997226745620528,22.13,0.996604983962497,44.82484436035156,-73.16371154785156,39.09999847412109,2,12,0.6399999856948853,18.21807861328125,11,0,0.0,0.0,0.0,0.0,-1.341238256492859,0.0,0.0,0.0251525424324239,-0.2763710103,0.1004985491999999,9.6801638283,0.7071376442909241,-0.1181627511978149,0.6863681674003601,0.1220358088612556,6,0.7470807393391927,-1.2193951924641928,-0.215354034,9.6765745944,0.07896314580000001,0.1292124204,0.1507478238,-0.0215354034,0.002443460944,0.009773843776,0.034208453215999995,0.467922770776,-1.617571144928,0.7757988497199999,0.00116,0.78242,0.03828,0.10672,-0.92394,0.63452,-0.0430708068,4.9136612091,0.028713871200000005,0.23518311585999999,-0.803898650576,0.40500365146799994,0.053939999999999995,-0.07075999999999999,0.3364,-11.29728,2.82432,14.59232,0.9969158647915125,20.57
12199,0,1287366,-32,1348,24,8,3,34,-2,1348,71,22,9,1,383,-1302,638,250,-1654,1110,-352,128,464,19.02,0.9972464840858624,22.12,0.9965260301011596,44.82484436035156,-73.16371154785156,39.09999847412109,2,12,0.6399999856948853,18.10459899902344,11,0,0.0,0.0,0.0,0.0,-1.328427937162053,0.0,0.0,0.0193872120239082,-0.3409772204999999,0.1220339526,9.6765745944,0.7070118188858032,-0.1204908564686775,0.6856250762939453,0.1246380135416984,6,0.7470807393391927,-1.2193951924641928,-0.2297109696,9.6765745944,0.1722832272,0.15792629160000002,0.0646062102,0.0071784678,0.009773843776,0.003665191416,0.041538836047999995,0.467922770776,-1.590693074544,0.779464041136,-0.00116,0.78184,0.04118,0.145,-0.95932,0.6438,-0.035892338999999995,4.8705904022999995,0.0897308475,0.23884830727599998,-0.793513941564,0.410501438592,0.07192,-0.08873999999999999,0.34249,-10.35584,3.76576,13.65088,0.996886257093511,20.57
12200,0,1287471,-46,1345,45,-4,-15,33,-7,1339,96,10,7,-1,383,-1302,638,250,-1654,1110,-288,128,560,19.01,0.9971181840611892,22.12,0.9965260301011596,44.82484436035156,-73.16371154785156,39.09999847412109,2,12,0.6399999856948853,18.113800048828125,11,0,0.0,0.0,0.0,0.0,-1.3220667503942956,0.0,0.0,0.0092307897003952,-0.5060819799,0.1902293967,9.6335037876,0.7070605754852295,-0.1202022582292556,0.6855841279029846,0.1248649880290031,6,0.7470807393391927,-1.2193951924641928,-0.3302095188,9.655039191,0.323031051,0.071784678,0.050249274600000005,-0.0071784678,-0.004886921888,-0.01832595708,0.040317105576,0.467922770776,-1.590693074544,0.779464041136,-0.00406,0.77662,0.05568,0.145,-0.95932,0.6438,-0.1292124204,4.8526442328,0.15792629160000002,0.231517924444,-0.804509515812,0.409890573356,0.07046999999999999,-0.09134999999999999,0.34974,-8.47296,3.76576,16.4752,0.9968221070811745,20.565
12201,0,1287577,-37,1341,11,1,-10,30,-13,1344,73,13,-3,-4,389,-1276,627,208,-1655,1105,-432,128,464,19.01,0.9974833456698742,22.11,0.9961806069578092,44.82484436035156,-73.16371154785156,39.09999847412109,2,12,0.6399999856948853,18.13935852050781,11,0,0.0,0.0,0.0,0.0,-1.2746612011136618,0.0,0.0,0.0423885832672197,-0.3014956475999999,0.1794616949999999,9.6370930215,0.7068368196487427,-0.1200259402394294,0.6858025193214417,0.1251021921634674,6,0.7470807393391927,-1.2193951924641928,-0.26560330860000003,9.626325319800001,0.07896314580000001,0.0933200814,-0.0215354034,-0.0287138712,0.001221730472,-0.012217304719999999,0.03665191416,0.47525315360799997,-1.558928082272,0.7660250059439999,-0.00754,0.77952,0.04234,0.12064,-0.9599,0.6409,-0.08614161360000001,4.802394958200001,0.025124637300000002,0.23823744204,-0.785572693496,0.40133846005199997,0.056549999999999996,-0.09018999999999999,0.34162000000000003,-12.70944,3.76576,13.65088,0.9968319763138417,20.560000000000002
12202,0,1287682,-92,1341,-39,8,3,33,-70,1346,10,18,12,-5,389,-1276,627,215,-1624,1133,-384,48,544,18.99,0.997345176412534,22.09,0.9964470762398224,44.82484436035156,-73.16371154785156,39.09999847412109,2,12,0.6399999856948853,18.206832885742188,11,0,0.0,0.0,0.0,0.0,-1.2062698658015325,0.0,0.0,0.0898587110692132,0.1040877831,0.5814558917999999,9.6442714893,0.7067428827285767,-0.1195446625351905,0.6859927177429199,0.1250507533550262,6,0.7470807393391927,-1.2193951924641928,-0.6604190376,9.626325319800001,-0.2799602442,0.1292124204,0.0861416136,-0.035892339,0.009773843776,0.003665191416,0.040317105576,0.47525315360799997,-1.558928082272,0.7660250059439999,-0.0406,0.78068,0.0058,0.1247,-0.94192,0.6571400000000001,-0.2656033086,4.856233466700001,-0.1579262916,0.24251349869199998,-0.777631445428,0.40317105575999995,0.042050000000000004,-0.08061999999999997,0.33147000000000004,-11.29728,1.41216,16.00448,0.9968961263261782,20.54
12203,0,1287787,-82,1346,9,18,19,26,-53,1342,64,29,31,-9,365,-1292,645,215,-1624,1133,-416,160,544,19.01,0.9973747841105354,22.1,0.9965260301011596,44.82484436035156,-73.16371154785156,39.09999847412109,2,12,0.6399999856948853,18.096420288085938,11,0,0.0,0.0,0.0,0.0,-1.2438814418119433,0.0,0.0,0.0241391503820364,-0.2620140747,0.4845465765,9.6478607232,0.7071959376335144,-0.1196042522788047,0.6855431795120239,0.124897189438343,6,0.7470807393391927,-1.2193951924641928,-0.5886343596,9.6622176588,0.0646062102,0.2081755662,0.2225325018,-0.0646062102,0.021991148496,0.023212878968,0.031764992272,0.44593162228,-1.578475769824,0.78801615444,-0.03074,0.77836,0.03712,0.1247,-0.94192,0.6571400000000001,-0.1902293967,4.9423750803,0.0,0.233961385388,-0.777631445428,0.409890573356,0.04698,-0.08177999999999996,0.34713000000000005,-12.23872,4.7072,16.00448,0.9969504071058475,20.555
12204,0,1287893,-66,1343,13,11,19,22,-29,1344,70,23,27,-12,365,-1292,645,171,-1592,1134,-464,96,512,19.01,0.9974339995065384,22.09,0.9965062916358252,44.82484436035156,-73.16371154785156,39.09999847412109,2,12,0.6399999856948853,18.105621337890625,11,0,0.0,0.0,0.0,0.0,-1.2377727583281826,0.0,0.0,0.0096309679064237,-0.2979064137,0.3409772205,9.6442714893,0.7074724435806274,-0.1197332814335823,0.685291588306427,0.1245879530906677,6,0.7470807393391927,-1.2193951924641928,-0.4737788748,9.6406822554,0.0933200814,0.1651047594,0.1938186306,-0.0861416136,0.013439035192,0.023212878968,0.026878070384,0.44593162228,-1.578475769824,0.78801615444,-0.01682,0.77952,0.0406,0.09918,-0.92336,0.65772,-0.1543370577,4.9172504429999995,0.0035892339000000023,0.229685328736,-0.777631445428,0.407447112412,0.04118,-0.07191999999999998,0.34915999999999997,-13.65088,2.82432,15.06304,0.9969701455711818,20.55
12205,0,1287998,-52,1344,14,8,13,24,-23,1347,64,22,28,-10,391,-1293,658,171,-1592,1134,-496,176,368,19.01,0.9972662225511968,22.08,0.9965852454971624,44.82484436035156,-73.16371154785156,39.09999847412109,2,12,0.6399999856948853,18.161849975585938,11,0,0.0,0.0,0.0,0.0,-1.2350627338364062,0.0,0.0,-0.0041761491365847,-0.2799602442,0.2691925424999999,9.658628424899998,0.7073842883110046,-0.1198716387152671,0.6854025721549988,0.1243445500731468,6,0.7470807393391927,-1.2193951924641928,-0.3732803256,9.6478607232,0.10049854920000001,0.15792629160000002,0.20099709840000002,-0.071784678,0.009773843776,0.015882496136,0.029321531328,0.47769661455199997,-1.5796975002959999,0.803898650576,-0.01334,0.78126,0.03712,0.09918,-0.92336,0.65772,-0.107677017,4.924428910800001,0.014356935600000002,0.24373522916399998,-0.7819075020799999,0.41661009095199997,0.04292,-0.07105,0.34742,-14.59232,5.17792,10.82656,0.9969257340241796,20.545
12206,0,1288104,-52,1346,1,5,20,29,-15,1346,58,21,29,-7,391,-1293,658,206,-1604,1111,-432,-16,352,19.0,0.9973056994818652,22.07,0.996614853195164,44.82484436035156,-73.16371154785156,39.20000076293945,2,12,0.6399999856948853,18.09437561035156,11,0,0.0,0.0,0.0,0.0,-1.2491990656074228,0.0,0.0,-0.0343911943811485,-0.2117648000999999,0.2404786712999999,9.6622176588,0.7075142860412598,-0.1198848634958267,0.685275673866272,0.1242916509509086,6,0.7470807393391927,-1.2193951924641928,-0.3732803256,9.6622176588,0.0071784678,0.1507478238,0.2081755662,-0.050249274600000005,0.0061086523599999994,0.024434609439999998,0.035430183688,0.47769661455199997,-1.5796975002959999,0.803898650576,-0.0087,0.78068,0.03364,0.11948,-0.93032,0.64438,-0.1112662509,4.9351966124999995,-0.021535403400000003,0.241902633456,-0.7776314454279999,0.419664417132,0.05539,-0.07482,0.33901,-12.70944,-0.47072,10.35584,0.9969602763385146,20.535
12207,0,1288209,-43,1340,9,12,13,29,-13,1345,69,24,18,-6,398,-1290,627,206,-1604,1111,-352,160,496,19.0,0.9973056994818652,22.07,0.9965062916358252,44.82484436035156,-73.16371154785156,39.20000076293945,2,12,0.6399999856948853,18.11993408203125,11,0,0.0,0.0,0.0,0.0,-1.2895893682134825,0.0,0.0,-0.0857628825996997,-0.2799602442,0.2009970983999999,9.6370930215,0.7077901363372803,-0.1197292357683181,0.6850196123123169,0.1242829635739326,6,0.7470807393391927,-1.2193951924641928,-0.3086741154,9.619146852,0.0646062102,0.1722832272,0.1292124204,-0.0430708068,0.014660765664,0.015882496136,0.035430183688,0.486248727856,-1.57603230888,0.7660250059439999,-0.00754,0.7801,0.04002,0.11948,-0.93032,0.64438,-0.0681954441,4.8741796362,0.0107677017,0.25045474676,-0.7800749063719999,0.40072759481599995,0.05597,-0.07511000000000001,0.34219999999999995,-10.35584,4.7072,14.59232,0.9969059955588452,20.535
12208,0,1288315,-26,1347,8,8,11,27,4,1351,68,20,23,-5,398,-1290,627,231,-1650,1125,-368,128,512,19.0,0.9973649148778684,22.07,0.9965655070318282,44.82484436035156,-73.16371154785156,39.20000076293945,2,12,0.6399999856948853,18.113800048828125,11,0,0.0,0.0,0.0,0.0,-1.3207543944156357,0.0,0.0,-0.1231528062076188,-0.2727817764,0.0789631458,9.6837530622,0.6487084627151489,-0.3079622983932495,0.6157437562942505,0.3243396580219269,6,0.7470807393391927,-1.2193951924641928,-0.1866401628,9.6693961266,0.0574277424,0.143569356,0.1651047594,-0.035892339,0.009773843776,0.013439035192,0.032986722744,0.486248727856,-1.57603230888,0.7660250059439999,0.00232,0.78358,0.03944,0.13398,-0.957,0.6525,-0.0215354034,4.917250443,0.0107677017,0.248011285816,-0.781296636844,0.39950586434399993,0.06814999999999999,-0.08670999999999995,0.34597,-10.82656,3.76576,15.06304,0.9969652109548484,20.535
12209,0,1288420,-34,1341,4,7,15,30,0,1346,51,20,26,-7,376,-1281,604,231,-1650,1125,-400,80,464,19.0,0.9972563533185296,22.06,0.9964470762398224,44.82484436035156,-73.16371154785156,39.20000076293945,2,12,0.6399999856948853,18.048370361328125,11,0,0.0,0.0,0.0,0.0,-1.3429642187276036,0.0,0.0,-0.1465718463530823,-0.1974078645,0.1220339526,9.6442714893,0.6487230062484741,-0.3080116808414459,0.6157615184783936,0.3242300450801849,6,0.7470807393391927,-1.2193951924641928,-0.24406790520000002,9.626325319800001,0.0287138712,0.143569356,0.1866401628,-0.050249274600000005,0.008552113303999999,0.01832595708,0.03665191416,0.45937065747199995,-1.565036734632,0.737925205088,0.0,0.78068,0.02958,0.13398,-0.957,0.6525,-0.050249274600000005,4.9064827413000005,-0.010767701700000002,0.233961385388,-0.773355388776,0.387288559624,0.06699,-0.08815999999999996,0.34104,-11.768,2.3536,13.65088,0.996851714779176,20.53
12210,0,1288526,-36,1344,3,10,15,33,-10,1345,57,21,22,-1,376,-1281,604,230,-1603,1126,-384,96,464,19.0,0.9971477917591908,22.06,0.9964964224031582,44.82484436035156,-73.16371154785156,39.20000076293945,2,12,0.6399999856948853,18.10459899902344,11,0,0.0,0.0,0.0,0.0,-1.2719979390971332,0.0,0.0,-0.0736123629562042,-0.2153540339999999,0.1651047594,9.6514499571,0.6489396691322327,-0.3079193830490112,0.615587055683136,0.3242152631282806,6,0.7470807393391927,-1.2193951924641928,-0.2584248408,9.6478607232,0.0215354034,0.1507478238,0.15792629160000002,-0.0071784678,0.012217304719999999,0.01832595708,0.040317105576,0.45937065747199995,-1.565036734632,0.737925205088,-0.0058,0.7801,0.03306,0.1334,-0.92974,0.65308,-0.05383850849999999,4.902893507400001,0.007178467799999999,0.23579398109599997,-0.773355388776,0.389121155332,0.0638,-0.07482,0.34307,-11.29728,2.82432,13.65088,0.9968221070811745,20.53
12211,0,1288631,-39,1340,5,6,17,30,-14,1348,60,17,26,-1,389,-1315,626,230,-1603,1126,-416,80,528,19.01,0.9971675302245252,22.07,0.9964075993091536,44.82484436035156,-73.16371154785156,39.20000076293945,2,12,0.6399999856948853,18.085174560546875,11,0,0.0,0.0,0.0,0.0,-1.1647883827842929,0.0,0.0,0.0318550547136141,-0.2333002034999999,0.1902293967,9.6478607232,0.6491174697875977,-0.3077092468738556,0.6155309677124023,0.3241654932498932,6,0.7470807393391927,-1.2193951924641928,-0.2799602442,9.619146852,0.035892339,0.12203395260000001,0.1866401628,-0.0071784678,0.007330382832,0.020769418023999998,0.03665191416,0.47525315360799997,-1.60657557068,0.764803275472,-0.00812,0.78184,0.0348,0.1334,-0.92974,0.65308,-0.0789631458,4.9028935074,0.0143569356,0.24129176821999998,-0.7929030763280001,0.400727594816,0.06264,-0.07395000000000002,0.34394,-12.23872,2.3536,15.533760000000001,0.9967875647668394,20.54
