,timestamp_s,timestamp_ms,imu1_accel_x,imu1_accel_y,imu1_accel_z,imu1_gyro_x,imu1_gyro_y,imu1_gyro_z,imu1_mag_x,imu1_mag_y,imu1_mag_z,imu2_accel_x,imu2_accel_y,imu2_accel_z,imu2_gyro_x,imu2_gyro_y,imu2_gyro_z,imu2_mag_x,imu2_mag_y,imu2_mag_z,high_g_accel_x,high_g_accel_y,high_g_accel_z,baro1_temp,baro1_pres,baro2_temp,baro2_pres,gps_lat,gps_long,gps_alt,battery_voltage,pyro_cont,heading,vtg,pos_x,pos_y,pos_z,vel_x,vel_y,vel_z,q_x,q_y,q_z,q_w,state,gps_lat_mod,gps_long_mod,imu1_accel_x_real,imu1_accel_y_real,imu1_accel_z_real,imu2_accel_x_real,imu2_accel_y_real,imu2_accel_z_real,imu1_gyro_x_real,imu1_gyro_y_real,imu1_gyro_z_real,imu2_gyro_x_real,imu2_gyro_y_real,imu2_gyro_z_real,imu1_mag_x_real,imu1_mag_y_real,imu1_mag_z_real,imu2_mag_x_real,imu2_mag_y_real,imu2_mag_z_real,imu_accel_x_avg,imu_accel_y_avg,imu_accel_z_avg,imu_gyro_x_avg,imu_gyro_y_avg,imu_gyro_z_avg,imu_mag_x_avg,imu_mag_y_avg,imu_mag_z_avg,high_g_accel_x_real,high_g_accel_y_real,high_g_accel_z_real,baro_pres_avg,baro_temp_avg
0,2563,0,-1030,-90,-964,12,31,34,-312,-491,486,-1007,-88,-893,98,176,-439,-597,-411,816,48,256,-80,29.0,0.9875943745373796,32.25,0.9985097458672588,0.0,0.0,0.0,3.9592344760894775,0,0.0,0.0,0.0,0.0,-0.0531671347208023,0.0,0.0,-0.0575134905029463,0.0,0.0,0.0,0.0,10,0.0,0.0,-7.393821834000001,-0.646062102,-6.9200429592,-7.2287170746000005,-0.6317051664000001,-6.4103717454,0.003665191416,0.009468411158,0.010384709011999999,0.029932396564,0.053756140768,-0.134084919302,-0.18096,-0.28478,0.28188,-0.34626,-0.23838,0.47328,-7.3112694543000005,-0.6388836342,-6.6652073522999995,0.016798793989999998,0.031612275963,-0.061850105145,-0.26361,-0.26158,0.37758,1.41216,7.53152,-2.3536,0.9930520602023192,30.625
1,2578,0,-1037,-91,-963,7,26,41,-312,-491,486,-1003,-96,-894,92,175,-431,-597,-411,816,48,272,-32,29.01,0.9878312361213916,32.24,0.998282753515914,0.0,0.0,0.0,3.962280750274658,0,0.0,0.0,0.0,0.0,-0.1067832967326946,0.0,0.0,-0.1145794884499977,0.0,0.0,0.0,0.0,10,0.0,0.0,-7.4440711086,-0.6532405698,-6.912864491400001,-7.2000032034000006,-0.6891329088,-6.4175502132,0.0021380283259999997,0.007941248068,0.012522737337999999,0.028099800855999998,0.05345070815,-0.13164145835799998,-0.18096,-0.28478,0.28188,-0.34626,-0.23838,0.47328,-7.322037156,-0.6711867393,-6.6652073523,0.015118914591,0.030695978109,-0.05955936050999999,-0.26361,-0.26158,0.37758,1.41216,8.00224,-0.94144,0.9930569948186527,30.625
2,2593,0,-1031,-89,-969,16,26,31,-312,-491,486,-1000,-97,-892,93,172,-448,-597,-411,816,32,272,-80,29.02,0.9876437207007156,32.26,0.9985294843325933,0.0,0.0,0.0,3.9680967330932617,0,0.0,0.0,0.0,0.0,-0.1679622474144874,0.0,0.0,-0.1789005586405163,0.0,0.0,0.0,0.0,10,0.0,0.0,-7.4010003018,-0.6388836342,-6.9559352982,-7.1784678,-0.6963113766,-6.403193277600001,0.004886921888,0.007941248068,0.009468411158,0.028405233473999997,0.052534410296,-0.13683381286399998,-0.18096,-0.28478,0.28188,-0.34626,-0.23838,0.47328,-7.2897340509,-0.6675975054000001,-6.6795642879,0.016646077680999998,0.030237829182,-0.06368270085299998,-0.26361,-0.26158,0.37758,0.94144,8.00224,-2.3536,0.9930866025166545,30.64
3,2609,0,-1027,-83,-963,9,9,33,-312,-491,486,-1005,-95,-887,93,168,-451,-597,-411,816,96,176,-16,29.03,0.9875154206760424,32.26,0.9983814458425856,0.0,0.0,0.0,3.961450099945069,0,0.0,0.0,0.0,0.0,-0.1880269402561505,0.0,0.0,-0.1977026361407968,0.0,0.0,0.0,0.0,10,0.0,0.0,-7.3722864306,-0.5958128274000001,-6.912864491400001,-7.214360139,-0.681954441,-6.367300938600001,0.002748893562,0.002748893562,0.010079276394,0.028405233473999997,0.051312679824,-0.137750110718,-0.18096,-0.28478,0.28188,-0.34626,-0.23838,0.47328,-7.2933232848,-0.6388836342,-6.640082715,0.015577063518,0.027030786693,-0.063835417162,-0.26361,-0.26158,0.37758,2.82432,5.17792,-0.47072,0.9929484332593139,30.645
4,2624,0,-1028,-85,-961,10,7,39,-312,-491,486,-1005,-95,-895,90,165,-439,-597,-411,816,48,288,-112,29.03,0.98773254379472,32.28,0.9984702689365902,0.0,0.0,0.0,3.961450099945069,0,0.0,0.0,0.0,0.0,-0.2519234824409037,0.0,0.0,-0.2636146823743399,0.0,0.0,0.0,0.0,10,0.0,0.0,-7.3794648984,-0.610169763,-6.8985075558,-7.214360139,-0.681954441,-6.424728681,0.0030543261799999997,0.0021380283259999997,0.011911872102,0.02748893562,0.050396381969999994,-0.134084919302,-0.18096,-0.28478,0.28188,-0.34626,-0.23838,0.47328,-7.2969125187,-0.646062102,-6.6616181184,0.0152716309,0.026267205147999996,-0.061086523600000005,-0.26361,-0.26158,0.37758,1.41216,8.47296,-3.29504,0.9931014063656551,30.655
5,2639,0,-1026,-88,-962,3,-13,42,-312,-491,486,-999,-94,-885,92,144,-433,-597,-411,816,48,192,32,29.04,0.9877917591907228,32.28,0.9982531458179128,0.0,0.0,0.0,3.9586806297302246,0,0.0,0.0,0.0,0.0,-0.291763934282737,0.0,0.0,-0.3024345746162143,0.0,0.0,0.0,0.0,10,0.0,0.0,-7.365107962800001,-0.6317051664000001,-6.9056860236,-7.171289332200001,-0.6747759732,-6.352944003,0.000916297854,-0.003970624034,0.012828169956,0.028099800855999998,0.043982296992,-0.132252323594,-0.18096,-0.28478,0.28188,-0.34626,-0.23838,0.47328,-7.2681986475,-0.6532405698000001,-6.6293150133,0.014508049354999998,0.020005836479,-0.059712076818999996,-0.26361,-0.26158,0.37758,1.41216,5.64864,0.94144,0.9930224525043179,30.66
6,2655,0,-1029,-92,-959,12,-8,35,-312,-491,486,-1006,-92,-890,98,148,-446,-597,-411,816,128,224,-32,29.03,0.9878904515173944,32.28,0.9983024919812484,0.0,0.0,0.0,3.970312356948853,0,0.0,0.0,0.0,0.0,-0.3522165004607446,0.0,0.0,-0.3629216986096578,0.0,0.0,0.0,0.0,10,0.0,0.0,-7.3866433662,-0.6604190376,-6.884150620200001,-7.2215386068,-0.6604190376,-6.388836342,0.003665191416,-0.002443460944,0.010690141629999999,0.029932396564,0.045204027464,-0.136222947628,-0.18096,-0.28478,0.28188,-0.34626,-0.23838,0.47328,-7.3040909865,-0.6604190376,-6.6364934811000005,0.016798793989999998,0.02138028326,-0.06276640299899999,-0.26361,-0.26158,0.37758,3.76576,6.59008,-0.94144,0.9930964717493214,30.655
7,2670,0,-1029,-94,-967,14,-28,43,-312,-491,486,-1007,-93,-889,96,128,-434,-642,-463,793,64,272,-32,29.05,0.9877128053293855,32.29,0.9985985689612632,0.0,0.0,0.0,3.949541330337525,0,0.0,0.0,0.0,0.0,-0.4286100783598968,0.0,0.0,-0.4396715165831645,0.0,0.0,0.0,0.0,10,0.0,0.0,-7.3866433662,-0.6747759732,-6.9415783626000005,-7.2287170746000005,-0.6675975054000001,-6.3816578742,0.004276056651999999,-0.008552113303999999,0.013133602574,0.029321531328,0.039095375104,-0.132557756212,-0.18096,-0.28478,0.28188,-0.37236,-0.26854,0.45994,-7.3076802204,-0.6711867393000001,-6.6616181184,0.016798793989999998,0.0152716309,-0.059712076819,-0.27666,-0.27666,0.37091,1.88288,8.00224,-0.94144,0.9931556871453244,30.67
8,2686,0,-1029,-92,-963,23,-27,37,-312,-491,486,-1006,-94,-895,86,123,-429,-642,-463,793,96,288,-112,29.05,0.9877128053293855,32.3,0.99840118430792,0.0,0.0,0.0,3.963111639022827,0,0.0,0.0,0.0,0.0,-0.4749718077203483,0.0,0.0,-0.4826890543794283,0.0,0.0,0.0,0.0,10,0.0,0.0,-7.3866433662,-0.6604190376,-6.912864491400001,-7.2215386068,-0.6747759732,-6.424728681,0.0070249502139999994,-0.008246680686,0.011301006866,0.026267205148,0.037568212014,-0.131030593122,-0.18096,-0.28478,0.28188,-0.37236,-0.26854,0.45994,-7.3040909865,-0.6675975054000001,-6.668796586200001,0.016646077680999998,0.014660765664,-0.059864793128,-0.27666,-0.27666,0.37091,2.82432,8.47296,-3.29504,0.9930569948186527,30.674999999999997
9,2701,0,-1031,-84,-961,2,-22,40,-300,-500,479,-1006,-93,-896,89,134,-444,-642,-463,793,48,224,-48,29.06,0.9876338514680484,32.3,0.9984110535405872,0.0,0.0,0.0,3.962003946304321,0,0.0,0.0,0.0,0.0,-0.510387065681709,0.0,0.0,-0.513167245949383,0.0,0.0,0.0,0.0,10,0.0,0.0,-7.4010003018,-0.6029912952,-6.8985075558,-7.2215386068,-0.6675975054000001,-6.431907148800001,0.000610865236,-0.006719517596,0.012217304719999999,0.027183503002,0.040927970811999996,-0.13561208239199998,-0.174,-0.29,0.27782,-0.37236,-0.26854,0.45994,-7.3112694543,-0.6352944003000001,-6.6652073523,0.013897184118999999,0.017104226607999998,-0.06169738883599999,-0.27318,-0.27927,0.36888,1.41216,6.59008,-1.41216,0.9930224525043179,30.68
10,2716,0,-1028,-91,-960,9,-11,34,-300,-500,479,-1010,-95,-897,94,130,-432,-642,-463,793,48,160,-16,29.06,0.9877818899580556,32.29,0.9982334073525784,0.0,0.0,0.0,3.961450099945069,0,0.0,0.0,0.0,0.0,-0.5407556726144409,0.0,0.0,-0.5376916819635778,0.0,0.0,0.0,0.0,10,0.0,0.0,-7.3794648984,-0.6532405698,-6.891329088,-7.250252478,-0.681954441,-6.4390856166,0.002748893562,-0.003359758798,0.010384709011999999,0.028710666091999997,0.03970624034,-0.131946890976,-0.174,-0.29,0.27782,-0.37236,-0.26854,0.45994,-7.3148586882,-0.6675975054000001,-6.6652073522999995,0.015729779827,0.018173240771,-0.06078109098199999,-0.27318,-0.27927,0.36888,1.41216,4.7072,-0.47072,0.993007648655317,30.674999999999997
11,2732,0,-1027,-89,-961,6,-11,38,-300,-500,479,-1007,-94,-893,89,124,-430,-642,-463,793,112,304,0,29.06,0.9876338514680484,32.31,0.9984307920059216,0.0,0.0,0.0,3.9586806297302246,0,0.0,0.0,0.0,0.0,-0.5775809578477865,0.0,0.0,-0.5688026835167092,0.0,0.0,0.0,0.0,10,0.0,0.0,-7.3722864306,-0.6388836342,-6.8985075558,-7.2287170746000005,-0.6747759732,-6.4103717454,0.001832595708,-0.003359758798,0.011606439484,0.027183503002,0.037873644632,-0.13133602574,-0.174,-0.29,0.27782,-0.37236,-0.26854,0.45994,-7.300501752600001,-0.6568298037,-6.6544396506000005,0.014508049355,0.017256942917,-0.059864793128,-0.27318,-0.27927,0.36888,3.29504,8.94368,0.0,0.993032321736985,30.685000000000002
12,2747,0,-1025,-92,-960,8,-45,37,-300,-500,479,-1009,-90,-892,93,101,-446,-642,-463,793,128,224,-48,29.06,0.9879003207500616,32.31,0.9983123612139156,0.0,0.0,0.0,3.970312356948853,0,0.0,0.0,0.0,0.0,-0.6350091385046899,0.0,0.0,-0.6216960305351759,0.0,0.0,0.0,0.0,10,0.0,0.0,-7.3579294950000005,-0.6604190376,-6.891329088,-7.2430740102,-0.646062102,-6.403193277600001,0.002443460944,-0.01374446781,0.011301006866,0.028405233473999997,0.030848694418,-0.136222947628,-0.174,-0.29,0.27782,-0.37236,-0.26854,0.45994,-7.300501752600001,-0.6532405698,-6.6472611828,0.015424347209,0.008552113303999999,-0.062460970381,-0.27318,-0.27927,0.36888,3.76576,6.59008,-1.41216,0.9931063409819887,30.685000000000002
13,2763,0,-1024,-87,-959,15,-62,30,-300,-500,479,-1003,-94,-895,94,97,-433,-642,-463,793,80,304,-80,29.08,0.9879496669133976,32.31,0.9984307920059216,0.0,0.0,0.0,3.957018852233887,0,0.0,0.0,0.0,0.0,-0.7155058105183839,0.0,0.0,-0.698685433324231,0.0,0.0,0.0,0.0,10,0.0,0.0,-7.3507510272,-0.6245266986,-6.884150620200001,-7.2000032034000006,-0.6747759732,-6.424728681,0.00458148927,-0.018936822316,0.00916297854,0.028710666091999997,0.029626963946,-0.132252323594,-0.174,-0.29,0.27782,-0.37236,-0.26854,0.45994,-7.2753771153,-0.6496513359,-6.6544396506000005,0.016646077680999998,0.005345070815,-0.061544672526999994,-0.27318,-0.27927,0.36888,2.3536,8.94368,-2.3536,0.9931902294596595,30.695
14,2778,0,-1032,-91,-964,11,-77,34,-300,-500,479,-1006,-91,-892,86,81,-422,-642,-463,793,192,288,-64,29.08,0.9878805822847274,32.31,0.9983913150752528,0.0,0.0,0.0,3.9725279808044434,0,0.0,0.0,0.0,0.0,-0.7786788787546344,0.0,0.0,-0.7556857984078742,0.0,0.0,0.0,0.0,10,0.0,0.0,-7.4081787696,-0.6532405698,-6.9200429592,-7.2215386068,-0.6532405698,-6.403193277600001,0.003359758798,-0.023518311586,0.010384709011999999,0.026267205148,0.024740042057999997,-0.128892564796,-0.174,-0.29,0.27782,-0.37236,-0.26854,0.45994,-7.3148586882,-0.6532405698,-6.6616181184,0.014813481973,0.0006108652359999994,-0.059253927892,-0.27318,-0.27927,0.36888,5.64864,8.47296,-1.88288,0.9931359486799901,30.695
15,2793,0,-1027,-85,-966,12,-87,39,-300,-500,479,-1005,-98,-897,92,64,-444,-642,-463,793,64,272,-32,29.08,0.98773254379472,32.32,0.9986084381939304,0.0,0.0,0.0,3.95757269859314,0,0.0,0.0,0.0,0.0,-0.850514316732604,0.0,0.0,-0.8211317713448054,0.0,0.0,0.0,0.0,10,0.0,0.0,-7.3722864306,-0.610169763,-6.9343998948,-7.214360139,-0.7034898444000001,-6.4390856166,0.003665191416,-0.026572637766,0.011911872102,0.028099800855999998,0.019547687552,-0.13561208239199998,-0.174,-0.29,0.27782,-0.37236,-0.26854,0.45994,-7.2933232848,-0.6568298037,-6.6867427557,0.015882496136,-0.003512475107,-0.061850105144999994,-0.27318,-0.27927,0.36888,1.88288,8.00224,-0.94144,0.9931704909943252,30.7
16,2809,0,-1024,-89,-967,7,-71,43,-300,-500,479,-1006,-95,-900,103,95,-434,-642,-463,793,128,288,-48,29.09,0.9879003207500616,32.31,0.9984209227732544,0.0,0.0,0.0,3.970312356948853,0,0.0,0.0,0.0,0.0,-0.9179966256291568,0.0,0.0,-0.8808068099472485,0.0,0.0,0.0,0.0,10,0.0,0.0,-7.3507510272,-0.6388836342,-6.9415783626000005,-7.2215386068,-0.681954441,-6.4606210200000005,0.0021380283259999997,-0.021685715878,0.013133602574,0.031459559654,0.029016098709999997,-0.132557756212,-0.174,-0.29,0.27782,-0.37236,-0.26854,0.45994,-7.286144817,-0.6604190376000001,-6.7010996913000005,0.016798793989999998,0.0036651914159999983,-0.059712076819,-0.27318,-0.27927,0.36888,3.76576,8.47296,-1.41216,0.993160621761658,30.700000000000003
17,2824,0,-1030,-94,-963,16,-54,44,-300,-500,479,-1006,-99,-895,94,119,-422,-642,-463,793,80,256,-96,29.08,0.98773254379472,32.32,0.9983913150752528,0.0,0.0,0.0,3.970312356948853,0,0.0,0.0,0.0,0.0,-0.9555034699460668,0.0,0.0,-0.9070876210210664,0.0,0.0,0.0,0.0,10,0.0,0.0,-7.393821834000001,-0.6747759732,-6.912864491400001,-7.2215386068,-0.7106683122,-6.424728681,0.004886921888,-0.016493361372,0.013439035192,0.028710666091999997,0.036346481542,-0.128892564796,-0.174,-0.29,0.27782,-0.37236,-0.26854,0.45994,-7.3076802204,-0.6927221427000001,-6.668796586200001,0.016798793989999998,0.009926560085000001,-0.057726764802,-0.27318,-0.27927,0.36888,2.3536,7.53152,-2.82432,0.9930619294349864,30.7
18,2840,0,-1022,-85,-971,8,-26,37,-300,-500,479,-1012,-93,-897,98,126,-432,-642,-463,793,112,256,-48,29.08,0.9878411053540588,32.32,0.9985097458672588,0.0,0.0,0.0,3.9561879634857178,0,0.0,0.0,0.0,0.0,-1.0249350139394011,0.0,0.0,-0.9674765028702002,0.0,0.0,0.0,0.0,10,0.0,0.0,-7.3363940916,-0.610169763,-6.9702922338,-7.264609413600001,-0.6675975054000001,-6.4390856166,0.002443460944,-0.007941248068,0.011301006866,0.029932396564,0.038484509868,-0.131946890976,-0.174,-0.29,0.27782,-0.37236,-0.26854,0.45994,-7.300501752600001,-0.6388836342,-6.7046889252,0.016187928754,0.0152716309,-0.060322942054999995,-0.27318,-0.27927,0.36888,3.29504,7.53152,-1.41216,0.9931754256106589,30.7
19,2855,0,-1022,-88,-965,17,-13,33,-300,-500,479,-1009,-96,-897,91,144,-430,-642,-463,793,32,272,-96,29.1,0.987979274611399,32.32,0.9985590920305948,0.0,0.0,0.0,3.9595112800598153,0,0.0,0.0,0.0,0.0,-1.1199862547089787,0.0,0.0,-1.054599579893707,0.0,0.0,0.0,0.0,10,0.0,0.0,-7.3363940916,-0.6317051664000001,-6.927221427,-7.2430740102,-0.6891329088,-6.4390856166,0.005192354505999999,-0.003970624034,0.010079276394,0.027794368237999998,0.043982296992,-0.13133602574,-0.174,-0.29,0.27782,-0.37236,-0.26854,0.45994,-7.2897340509,-0.6604190376000001,-6.6831535217999996,0.016493361372,0.020005836479,-0.060628374673,-0.27318,-0.27927,0.36888,0.94144,8.00224,-2.82432,0.9932691833209969,30.71
20,2870,0,-1029,-90,-962,12,4,31,-300,-500,479,-1006,-92,-886,105,141,-420,-619,-436,836,64,272,-128,29.1,0.9879299284480632,32.33,0.9984209227732544,0.0,0.0,0.0,3.966989040374756,0,0.0,0.0,0.0,0.0,-1.1859510936098536,0.0,0.0,-1.1088447937266428,0.0,0.0,0.0,0.0,10,0.0,0.0,-7.3866433662,-0.646062102,-6.9056860236,-7.2215386068,-0.6604190376,-6.3601224708,0.003665191416,0.001221730472,0.009468411158,0.03207042489,0.043065999138,-0.12828169956,-0.174,-0.29,0.27782,-0.35902,-0.25288,0.48488,-7.3040909865,-0.6532405698,-6.632904247200001,0.017867808153,0.022143864805,-0.059406644200999996,-0.26651,-0.27144,0.38134999999999997,1.88288,8.00224,-3.76576,0.9931754256106589,30.715
21,2886,0,-1028,-92,-960,11,-40,33,-300,-500,479,-1007,-100,-894,95,123,-422,-619,-436,836,160,336,-80,29.1,0.9878805822847274,32.31,0.99833209967925,0.0,0.0,0.0,3.961726903915405,0,0.0,0.0,0.0,0.0,-1.2304764879563472,0.0,0.0,-1.1390177160707309,0.0,0.0,0.0,0.0,10,0.0,0.0,-7.3794648984,-0.6604190376,-6.891329088,-7.2287170746000005,-0.71784678,-6.4175502132,0.003359758798,-0.012217304719999999,0.010079276394,0.029016098709999997,0.037568212014,-0.128892564796,-0.174,-0.29,0.27782,-0.35902,-0.25288,0.48488,-7.3040909865,-0.6891329088,-6.6544396506000005,0.016187928754,0.012675453647,-0.059406644201,-0.26651,-0.27144,0.38134999999999997,4.7072,9.88512,-2.3536,0.9931063409819887,30.705000000000002
22,2901,0,-1023,-84,-968,15,-31,38,-283,-510,462,-1006,-94,-900,97,113,-438,-619,-436,836,-32,224,0,29.1,0.9878114976560572,32.33,0.9984702689365902,0.0,0.0,0.0,3.957018852233887,0,0.0,0.0,0.0,0.0,-1.283911239271606,0.0,0.0,-1.178338732791623,0.0,0.0,0.0,0.0,10,0.0,0.0,-7.3435725594,-0.6029912952,-6.948756830400001,-7.2215386068,-0.6747759732,-6.4606210200000005,0.00458148927,-0.009468411158,0.011606439484,0.029626963946,0.034513885833999995,-0.133779486684,-0.16414,-0.2958,0.26796,-0.35902,-0.25288,0.48488,-7.282555583100001,-0.6388836342,-6.704688925200001,0.017104226608,0.012522737337999999,-0.0610865236,-0.26158000000000003,-0.27434000000000003,0.37642,-0.94144,6.59008,0.0,0.9931408832963238,30.715
23,2916,0,-1029,-91,-964,14,-44,46,-283,-510,462,-1008,-96,-895,99,108,-451,-619,-436,836,32,240,-96,29.1,0.9876042437700469,32.33,0.9983617073772514,0.0,0.0,0.0,3.9592344760894775,0,0.0,0.0,0.0,0.0,-1.2904269575880982,0.0,0.0,-1.1662671042823962,0.0,0.0,0.0,0.0,10,0.0,0.0,-7.3866433662,-0.6532405698,-6.9200429592,-7.235895542400001,-0.6891329088,-6.424728681,0.004276056651999999,-0.013439035192,0.014049900427999999,0.030237829182,0.032986722744,-0.137750110718,-0.16414,-0.2958,0.26796,-0.35902,-0.25288,0.48488,-7.3112694543000005,-0.6711867393,-6.672385820100001,0.017256942917,0.009773843775999998,-0.061850105145,-0.26158000000000003,-0.27434000000000003,0.37642,0.94144,7.0608,-2.82432,0.9929829755736491,30.715
24,2932,0,-1035,-93,-965,7,-50,45,-283,-510,462,-1002,-92,-898,97,107,-460,-619,-436,836,32,224,-64,29.1,0.9876634591660498,32.34,0.9985492227979276,0.0,0.0,0.0,3.962557792663574,0,0.0,0.0,0.0,0.0,-1.3322248039937563,0.0,0.0,-1.1925577567549257,0.0,0.0,0.0,0.0,10,0.0,0.0,-7.429714173000001,-0.6675975054000001,-6.927221427,-7.1928247356,-0.6604190376,-6.4462640844,0.0021380283259999997,-0.0152716309,0.01374446781,0.029626963946,0.032681290126,-0.14049900427999998,-0.16414,-0.2958,0.26796,-0.35902,-0.25288,0.48488,-7.3112694543000005,-0.6640082715,-6.6867427557,0.015882496136,0.008704829612999999,-0.06337726823499999,-0.26158000000000003,-0.27434000000000003,0.37642,0.94144,6.59008,-1.88288,0.9931063409819887,30.720000000000002
25,2947,0,-1025,-86,-970,15,-40,34,-283,-510,462,-1004,-93,-896,97,105,-460,-619,-436,836,96,272,-80,29.1,0.9877621514927214,32.34,0.9984900074019244,0.0,0.0,0.0,3.962003946304321,0,0.0,0.0,0.0,0.0,-1.37868765868526,0.0,0.0,-1.2234681786238035,0.0,0.0,0.0,0.0,10,0.0,0.0,-7.3579294950000005,-0.6173482308,-6.963113766,-7.2071816712,-0.6675975054000001,-6.431907148800001,0.00458148927,-0.012217304719999999,0.010384709011999999,0.029626963946,0.03207042489,-0.14049900427999998,-0.16414,-0.2958,0.26796,-0.35902,-0.25288,0.48488,-7.282555583100001,-0.6424728681,-6.6975104574,0.017104226608,0.009926560085,-0.06505714763399999,-0.26158000000000003,-0.27434000000000003,0.37642,2.82432,8.00224,-2.3536,0.9931260794473229,30.720000000000002
26,2963,0,-1021,-89,-967,11,-33,30,-283,-510,462,-1002,-89,-905,84,119,-428,-619,-436,836,160,224,-48,29.11,0.9875252899087096,32.33,0.9984209227732544,0.0,0.0,0.0,3.9606192111968994,0,0.0,0.0,0.0,0.0,-1.3797736325447545,0.0,0.0,-1.2047906489799871,0.0,0.0,0.0,0.0,10,0.0,0.0,-7.329215623800001,-0.6388836342,-6.9415783626000005,-7.1928247356,-0.6388836342,-6.496513359000001,0.003359758798,-0.010079276394,0.00916297854,0.025656339912,0.036346481542,-0.130725160504,-0.16414,-0.2958,0.26796,-0.35902,-0.25288,0.48488,-7.261020179700001,-0.6388836342,-6.7190458608000005,0.014508049355,0.013133602574000001,-0.06078109098199999,-0.26158000000000003,-0.27434000000000003,0.37642,4.7072,6.59008,-1.41216,0.992973106340982,30.72
27,2978,0,-1025,-85,-968,14,-20,26,-283,-510,462,-1006,-90,-899,99,124,-433,-619,-436,836,16,192,-48,29.12,0.9877029360967184,32.34,0.9984307920059216,0.0,0.0,0.0,3.961450099945069,0,0.0,0.0,0.0,0.0,-1.4076688511867648,0.0,0.0,-1.2154170568575138,0.0,0.0,0.0,0.0,10,0.0,0.0,-7.3579294950000005,-0.610169763,-6.948756830400001,-7.2215386068,-0.646062102,-6.4534425522,0.004276056651999999,-0.0061086523599999994,0.007941248068,0.030237829182,0.037873644632,-0.132252323594,-0.16414,-0.2958,0.26796,-0.35902,-0.25288,0.48488,-7.2897340509,-0.6281159325000001,-6.7010996913000005,0.017256942917,0.015882496136,-0.06215553776299999,-0.26158000000000003,-0.27434000000000003,0.37642,0.47072,5.64864,-1.41216,0.99306686405132,30.730000000000004
28,2993,0,-1026,-89,-968,6,-18,31,-283,-510,462,-1000,-91,-898,101,139,-430,-619,-436,836,144,240,-80,29.1,0.9878707130520602,32.34,0.9984307920059216,0.0,0.0,0.0,3.9595112800598153,0,0.0,0.0,0.0,0.0,-1.4590275060814344,0.0,0.0,-1.251252584955529,0.0,0.0,0.0,0.0,10,0.0,0.0,-7.365107962800001,-0.6388836342,-6.948756830400001,-7.1784678,-0.6532405698,-6.4462640844,0.001832595708,-0.005497787124,0.009468411158,0.030848694418,0.042455133901999995,-0.13133602574,-0.16414,-0.2958,0.26796,-0.35902,-0.25288,0.48488,-7.2717878814,-0.646062102,-6.6975104574,0.016340645063,0.018478673388999996,-0.060933807291,-0.26158000000000003,-0.27434000000000003,0.37642,4.23648,7.0608,-2.3536,0.9931507525289909,30.720000000000002
29,3009,0,-1026,-88,-970,5,-13,31,-283,-510,462,-1005,-91,-897,87,149,-416,-619,-436,836,96,208,-64,29.1,0.9878805822847274,32.35,0.9984702689365902,0.0,0.0,0.0,3.966989040374756,0,0.0,0.0,0.0,0.0,-1.5162903614695007,0.0,0.0,-1.29289349989734,0.0,0.0,0.0,0.0,10,0.0,0.0,-7.365107962800001,-0.6317051664000001,-6.963113766,-7.214360139,-0.6532405698,-6.4390856166,0.0015271630899999999,-0.003970624034,0.009468411158,0.026572637766,0.045509460082,-0.127059969088,-0.16414,-0.2958,0.26796,-0.35902,-0.25288,0.48488,-7.2897340509,-0.6424728681,-6.7010996913,0.014049900427999999,0.020769418024,-0.058795778964999997,-0.26158000000000003,-0.27434000000000003,0.37642,2.82432,6.11936,-1.88288,0.9931754256106589,30.725
30,3024,0,-1026,-89,-968,10,-6,34,-283,-510,462,-1006,-90,-893,93,148,-424,-619,-436,836,96,160,-48,29.1,0.9875647668393782,32.34,0.998647915124599,0.0,0.0,0.0,3.960342168807984,0,0.0,0.0,0.0,0.0,-1.5522276295592887,0.0,0.0,-1.3107898086144727,0.0,0.0,0.0,0.0,10,0.0,0.0,-7.365107962800001,-0.6388836342,-6.948756830400001,-7.2215386068,-0.646062102,-6.4103717454,0.0030543261799999997,-0.001832595708,0.010384709011999999,0.028405233473999997,0.045204027464,-0.129503430032,-0.16414,-0.2958,0.26796,-0.35902,-0.25288,0.48488,-7.2933232848000005,-0.6424728681,-6.6795642879,0.015729779827,0.021685715878,-0.05955936050999999,-0.26158000000000003,-0.27434000000000003,0.37642,2.82432,4.7072,-1.41216,0.9931063409819887,30.720000000000002
31,3040,0,-1026,-87,-964,4,-14,38,-283,-510,462,-1003,-93,-900,96,142,-420,-619,-436,836,80,272,-96,29.12,0.9878114976560572,32.34,0.9984900074019244,0.0,0.0,0.0,3.961450099945069,0,0.0,0.0,0.0,0.0,-1.6000429565908405,0.0,0.0,-1.341244805060882,0.0,0.0,0.0,0.0,10,0.0,0.0,-7.365107962800001,-0.6245266986,-6.9200429592,-7.2000032034000006,-0.6675975054000001,-6.4606210200000005,0.001221730472,-0.004276056651999999,0.011606439484,0.029321531328,0.043371431756,-0.12828169956,-0.16414,-0.2958,0.26796,-0.35902,-0.25288,0.48488,-7.282555583100001,-0.646062102,-6.690331989600001,0.0152716309,0.019547687552000002,-0.058337630037999993,-0.26158000000000003,-0.27434000000000003,0.37642,2.3536,8.00224,-2.82432,0.9931507525289909,30.730000000000004
32,3055,0,-1023,-90,-959,-1,-12,46,-283,-510,462,-1001,-92,-892,97,139,-439,-619,-436,836,64,224,-48,29.11,0.9880483592400692,32.34,0.9985985689612632,0.0,0.0,0.0,3.970312356948853,0,0.0,0.0,0.0,0.0,-1.6966095735871622,0.0,0.0,-1.423942286827365,0.0,0.0,0.0,0.0,10,0.0,0.0,-7.3435725594,-0.646062102,-6.884150620200001,-7.1856462678,-0.6604190376,-6.403193277600001,-0.000305432618,-0.003665191416,0.014049900427999999,0.029626963946,0.042455133901999995,-0.134084919302,-0.16414,-0.2958,0.26796,-0.35902,-0.25288,0.48488,-7.264609413600001,-0.6532405698,-6.643671948900001,0.014660765664,0.019394971243,-0.060017509437,-0.26158000000000003,-0.27434000000000003,0.37642,1.88288,6.59008,-1.41216,0.9933234641006662,30.725
33,3070,0,-1031,-90,-969,0,-22,27,-283,-510,462,-1005,-94,-896,108,136,-452,-614,-452,856,16,288,-144,29.11,0.9877424130273872,32.34,0.9985492227979276,0.0,0.0,0.0,3.963388681411743,0,0.0,0.0,0.0,0.0,-1.7397182232171615,0.0,0.0,-1.4474698015186458,0.0,0.0,0.0,0.0,10,0.0,0.0,-7.4010003018,-0.646062102,-6.9559352982,-7.214360139,-0.6747759732,-6.431907148800001,0.0,-0.006719517596,0.008246680686,0.032986722744,0.041538836047999995,-0.13805554333599998,-0.16414,-0.2958,0.26796,-0.35612,-0.26216,0.49648,-7.3076802204,-0.6604190376000001,-6.6939212235,0.016493361372,0.017409659225999997,-0.06490443132499998,-0.26013,-0.27898,0.38222,0.47072,8.47296,-4.23648,0.9931458179126573,30.725
34,3086,0,-1026,-91,-968,8,-36,44,-283,-510,462,-1007,-94,-895,92,136,-440,-614,-452,856,128,288,-64,29.12,0.9878707130520602,32.35,0.998460399703923,0.0,0.0,0.0,3.9606192111968994,0,0.0,0.0,0.0,0.0,-1.7874069165078796,0.0,0.0,-1.4755700105345158,0.0,0.0,0.0,0.0,10,0.0,0.0,-7.365107962800001,-0.6532405698,-6.948756830400001,-7.2287170746000005,-0.6747759732,-6.424728681,0.002443460944,-0.010995574248,0.013439035192,0.028099800855999998,0.041538836047999995,-0.13439035191999998,-0.16414,-0.2958,0.26796,-0.35612,-0.26216,0.49648,-7.296912518700001,-0.6640082715,-6.686742755700001,0.0152716309,0.015271630899999998,-0.06047565836399999,-0.26013,-0.27898,0.38222,3.76576,8.47296,-1.88288,0.9931655563779915,30.735
35,3101,0,-1030,-94,-966,7,-33,35,-276,-511,460,-1007,-90,-895,98,143,-443,-614,-452,856,96,224,-48,29.11,0.98780162842339,32.33,0.9983715766099186,0.0,0.0,0.0,3.961450099945069,0,0.0,0.0,0.0,0.0,-1.811045629652728,0.0,0.0,-1.477198218968223,0.0,0.0,0.0,0.0,10,0.0,0.0,-7.393821834000001,-0.6747759732,-6.9343998948,-7.2287170746000005,-0.646062102,-6.424728681,0.0021380283259999997,-0.010079276394,0.010690141629999999,0.029932396564,0.043676864374,-0.135306649774,-0.16008,-0.29638,0.2668,-0.35612,-0.26216,0.49648,-7.3112694543000005,-0.6604190376000001,-6.6795642879,0.016035212445,0.01679879399,-0.062308254072000004,-0.2581,-0.27927,0.38164,2.82432,6.59008,-1.41216,0.9930866025166543,30.72
36,3117,0,-1023,-87,-966,9,-19,33,-276,-511,460,-1007,-92,-895,98,140,-453,-614,-452,856,144,288,0,29.12,0.9878114976560572,32.35,0.998460399703923,0.0,0.0,0.0,3.961450099945069,0,0.0,0.0,0.0,0.0,-1.8481730240452727,0.0,0.0,-1.4933913740677391,0.0,0.0,0.0,0.0,10,0.0,0.0,-7.3435725594,-0.6245266986,-6.9343998948,-7.2287170746000005,-0.6604190376,-6.424728681,0.002748893562,-0.005803219742,0.010079276394,0.029932396564,0.042760566519999994,-0.138360975954,-0.16008,-0.29638,0.2668,-0.35612,-0.26216,0.49648,-7.286144817,-0.6424728681,-6.6795642879,0.016340645063,0.018478673388999996,-0.06414084978,-0.2581,-0.27927,0.38164,4.23648,8.47296,0.0,0.9931359486799901,30.735
37,3132,0,-1033,-82,-968,-1,-25,26,-276,-511,460,-1008,-98,-896,98,129,-434,-614,-452,856,32,224,-64,29.11,0.9877424130273872,32.34,0.9983419689119172,0.0,0.0,0.0,3.9600653648376474,0,0.0,0.0,0.0,0.0,-1.8571554774713388,0.0,0.0,-1.4788760157851482,0.0,0.0,0.0,0.0,10,0.0,0.0,-7.4153572374,-0.5886343596,-6.948756830400001,-7.235895542400001,-0.7034898444000001,-6.431907148800001,-0.000305432618,-0.00763581545,0.007941248068,0.029932396564,0.039400807722,-0.132557756212,-0.16008,-0.29638,0.2668,-0.35612,-0.26216,0.49648,-7.3256263899,-0.646062102,-6.690331989600001,0.014813481973,0.015882496136,-0.062308254072,-0.2581,-0.27927,0.38164,0.94144,6.59008,-1.88288,0.9930421909696522,30.725
38,3147,0,-1024,-89,-967,8,-11,39,-276,-511,460,-1003,-94,-899,98,148,-418,-614,-452,856,80,272,-48,29.13,0.987979274611399,32.35,0.9983024919812484,0.0,0.0,0.0,3.963111639022827,0,0.0,0.0,0.0,0.0,-1.8941632001791864,0.0,0.0,-1.494912491845733,0.0,0.0,0.0,0.0,10,0.0,0.0,-7.3507510272,-0.6388836342,-6.9415783626000005,-7.2000032034000006,-0.6747759732,-6.4534425522,0.002443460944,-0.003359758798,0.011911872102,0.029932396564,0.045204027464,-0.127670834324,-0.16008,-0.29638,0.2668,-0.35612,-0.26216,0.49648,-7.2753771153,-0.6568298037,-6.6975104574,0.016187928754,0.020922134333,-0.057879481111000004,-0.2581,-0.27927,0.38164,2.3536,8.00224,-1.41216,0.9931408832963238,30.740000000000002
39,3163,0,-1030,-89,-967,8,13,31,-276,-511,460,-1009,-90,-898,100,175,-453,-614,-452,856,128,288,-144,29.11,0.9879003207500616,32.35,0.9984110535405872,0.0,0.0,0.0,3.961450099945069,0,0.0,0.0,0.0,0.0,-1.934423357273433,0.0,0.0,-1.5142070736778463,0.0,0.0,0.0,0.0,10,0.0,0.0,-7.393821834000001,-0.6388836342,-6.9415783626000005,-7.2430740102,-0.646062102,-6.4462640844,0.002443460944,0.003970624034,0.009468411158,0.0305432618,0.05345070815,-0.138360975954,-0.16008,-0.29638,0.2668,-0.35612,-0.26216,0.49648,-7.318447922100001,-0.6424728681,-6.6939212235,0.016493361372,0.028710666092,-0.06444628239799999,-0.2581,-0.27927,0.38164,3.76576,8.47296,-4.23648,0.9931556871453244,30.73
40,3178,0,-1023,-89,-960,7,8,37,-276,-511,460,-1003,-96,-894,101,166,-445,-614,-452,856,160,160,-64,29.12,0.9879694053787318,32.35,0.998519615099926,0.0,0.0,0.0,3.952864646911621,0,0.0,0.0,0.0,0.0,-1.999275505785508,0.0,0.0,-1.5597909372431826,0.0,0.0,0.0,0.0,10,0.0,0.0,-7.3435725594,-0.6388836342,-6.891329088,-7.2000032034000006,-0.6891329088,-6.4175502132,0.0021380283259999997,0.002443460944,0.011301006866,0.030848694418,0.050701814587999994,-0.13591751501,-0.16008,-0.29638,0.2668,-0.35612,-0.26216,0.49648,-7.2717878814,-0.6640082715,-6.6544396506000005,0.016493361372,0.026572637765999996,-0.062308254072,-0.2581,-0.27927,0.38164,4.7072,4.7072,-1.88288,0.9932445102393289,30.735
41,3194,0,-1031,-97,-966,6,-1,31,-276,-511,460,-1002,-97,-895,97,167,-442,-614,-452,856,224,256,-112,29.13,0.9879299284480632,32.35,0.9986183074265976,0.0,0.0,0.0,3.957018852233887,0,0.0,0.0,0.0,0.0,-2.0711393401310407,0.0,0.0,-1.612220029951289,0.0,0.0,0.0,0.0,10,0.0,0.0,-7.4010003018,-0.6963113766,-6.9343998948,-7.1928247356,-0.6963113766,-6.424728681,0.001832595708,-0.000305432618,0.009468411158,0.029626963946,0.051007247206,-0.135001217156,-0.16008,-0.29638,0.2668,-0.35612,-0.26216,0.49648,-7.2969125187,-0.6963113766,-6.6795642879,0.015729779827,0.025350907294,-0.06276640299899999,-0.2581,-0.27927,0.38164,6.59008,7.53152,-3.29504,0.9932741179373303,30.740000000000002
42,3209,0,-1026,-92,-963,12,-10,35,-276,-511,460,-1003,-91,-891,90,143,-429,-614,-452,856,112,272,-96,29.11,0.987850974586726,32.34,0.998450530471256,0.0,0.0,0.0,3.9584035873413086,0,0.0,0.0,0.0,0.0,-2.1056425327469217,0.0,0.0,-1.6233835621452408,0.0,0.0,0.0,0.0,10,0.0,0.0,-7.365107962800001,-0.6604190376,-6.912864491400001,-7.2000032034000006,-0.6532405698,-6.3960148098000005,0.003665191416,-0.0030543261799999997,0.010690141629999999,0.02748893562,0.043676864374,-0.131030593122,-0.16008,-0.29638,0.2668,-0.35612,-0.26216,0.49648,-7.282555583100001,-0.6568298037,-6.6544396506000005,0.015577063518,0.020311269097,-0.060170225746,-0.2581,-0.27927,0.38164,3.29504,8.00224,-2.82432,0.993150752528991,30.725
43,3224,0,-1027,-90,-962,3,-29,43,-276,-511,460,-1009,-94,-898,85,132,-441,-614,-452,856,160,320,-96,29.13,0.9879397976807304,32.34,0.9984998766345916,0.0,0.0,0.0,3.955080270767212,0,0.0,0.0,0.0,0.0,-2.159108822224125,0.0,0.0,-1.6548792617838852,0.0,0.0,0.0,0.0,10,0.0,0.0,-7.3722864306,-0.646062102,-6.9056860236,-7.2430740102,-0.6747759732,-6.4462640844,0.000916297854,-0.008857545922,0.013133602574,0.02596177253,0.040317105576,-0.134695784538,-0.16008,-0.29638,0.2668,-0.35612,-0.26216,0.49648,-7.3076802204,-0.6604190376000001,-6.675975054,0.013439035192,0.015729779827,-0.060781090982,-0.2581,-0.27927,0.38164,4.7072,9.4144,-2.82432,0.993219837157661,30.735
44,3240,0,-1022,-89,-961,5,-28,29,-276,-511,460,-1006,-94,-901,102,133,-445,-614,-452,856,64,240,0,29.12,0.9877621514927214,32.34,0.9985492227979276,0.0,0.0,0.0,3.961450099945069,0,0.0,0.0,0.0,0.0,-2.192659920221644,0.0,0.0,-1.6643206679850622,0.0,0.0,0.0,0.0,10,0.0,0.0,-7.3363940916,-0.6388836342,-6.8985075558,-7.2215386068,-0.6747759732,-6.467799487800001,0.0015271630899999999,-0.008552113303999999,0.008857545922,0.031154127036,0.040622538193999996,-0.13591751501,-0.16008,-0.29638,0.2668,-0.35612,-0.26216,0.49648,-7.2789663492,-0.6568298037,-6.6831535218,0.016340645063,0.016035212445,-0.063529984544,-0.2581,-0.27927,0.38164,1.88288,7.0608,0.0,0.9931556871453244,30.730000000000004
45,3255,0,-1029,-80,-964,5,-13,34,-276,-511,460,-1005,-93,-896,89,135,-468,-614,-452,856,112,240,-80,29.11,0.9879003207500616,32.35,0.9985689612632618,0.0,0.0,0.0,3.9719738960266113,0,0.0,0.0,0.0,0.0,-2.2480351725804044,0.0,0.0,-1.6972171311072184,0.0,0.0,0.0,0.0,10,0.0,0.0,-7.3866433662,-0.574277424,-6.9200429592,-7.214360139,-0.6675975054000001,-6.431907148800001,0.0015271630899999999,-0.003970624034,0.010384709011999999,0.027183503002,0.041233403429999996,-0.142942465224,-0.16008,-0.29638,0.2668,-0.35612,-0.26216,0.49648,-7.300501752600001,-0.6209374647000001,-6.675975054,0.014355333045999999,0.018631389697999996,-0.066278878106,-0.2581,-0.27927,0.38164,3.29504,7.0608,-2.3536,0.9932346410066617,30.73
46,3270,0,-1027,-87,-968,9,-20,31,-276,-511,460,-1007,-94,-900,93,129,-455,-614,-442,826,-16,208,-48,29.13,0.9877818899580556,32.34,0.9984998766345916,0.0,0.0,0.0,3.96366548538208,0,0.0,0.0,0.0,0.0,-2.274888992033711,0.0,0.0,-1.698726779318401,0.0,0.0,0.0,0.0,10,0.0,0.0,-7.3722864306,-0.6245266986,-6.948756830400001,-7.2287170746000005,-0.6747759732,-6.4606210200000005,0.002748893562,-0.0061086523599999994,0.009468411158,0.028405233473999997,0.039400807722,-0.13897184119,-0.16008,-0.29638,0.2668,-0.35612,-0.25636,0.47908,-7.300501752600001,-0.6496513359,-6.704688925200001,0.015577063518,0.016646077680999998,-0.064751715016,-0.2581,-0.27637,0.37294,-0.47072,6.11936,-1.41216,0.9931408832963236,30.735
47,3286,0,-1032,-88,-973,13,-7,30,-276,-511,460,-1009,-95,-894,90,153,-448,-614,-442,826,32,208,0,29.13,0.9878213668887244,32.35,0.998578830495929,0.0,0.0,0.0,3.962557792663574,0,0.0,0.0,0.0,0.0,-2.3179731138632333,0.0,0.0,-1.7177690436729711,0.0,0.0,0.0,0.0,10,0.0,0.0,-7.4081787696,-0.6317051664000001,-6.9846491694,-7.2430740102,-0.681954441,-6.4175502132,0.003970624034,-0.0021380283259999997,0.00916297854,0.02748893562,0.046731190554,-0.13683381286399998,-0.16008,-0.29638,0.2668,-0.35612,-0.25636,0.47908,-7.3256263899,-0.6568298037,-6.7010996913,0.015729779827,0.022296581114,-0.06383541716199999,-0.2581,-0.27637,0.37294,0.94144,6.11936,0.0,0.9932000986923266,30.740000000000002
48,3301,0,-1025,-94,-965,10,12,37,-309,-522,484,-1003,-92,-894,80,162,-439,-614,-442,826,144,336,-96,29.13,0.987979274611399,32.35,0.9983518381445844,0.0,0.0,0.0,3.963942527770996,0,0.0,0.0,0.0,0.0,-2.3498767706643124,0.0,0.0,-1.7244078678375336,0.0,0.0,0.0,0.0,10,0.0,0.0,-7.3579294950000005,-0.6747759732,-6.927221427,-7.2000032034000006,-0.6604190376,-6.4175502132,0.0030543261799999997,0.003665191416,0.011301006866,0.024434609439999998,0.049480084115999995,-0.134084919302,-0.17922,-0.30276000000000003,0.28072,-0.35612,-0.25636,0.47908,-7.278966349200001,-0.6675975054000001,-6.672385820100001,0.01374446781,0.026572637765999996,-0.061391956218000004,-0.26766999999999996,-0.27956000000000003,0.3799,4.23648,9.88512,-2.82432,0.9931655563779918,30.740000000000002
49,3317,0,-1027,-88,-973,8,-15,37,-309,-522,484,-1003,-96,-898,93,145,-445,-614,-442,826,32,192,-16,29.13,0.987614113002714,32.35,0.9985097458672588,0.0,0.0,0.0,3.957018852233887,0,0.0,0.0,0.0,0.0,-2.350821745283247,0.0,0.0,-1.6974494479093896,0.0,0.0,0.0,0.0,10,0.0,0.0,-7.3722864306,-0.6317051664000001,-6.9846491694,-7.2000032034000006,-0.6891329088,-6.4462640844,0.002443460944,-0.00458148927,0.011301006866,0.028405233473999997,0.04428772961,-0.13591751501,-0.17922,-0.30276000000000003,0.28072,-0.35612,-0.25636,0.47908,-7.286144817,-0.6604190376000001,-6.7154566269,0.015424347209,0.01985312017,-0.062308254072,-0.26766999999999996,-0.27956000000000003,0.3799,0.94144,5.64864,-0.47072,0.9930619294349864,30.740000000000002
50,3332,0,-1026,-87,-965,6,8,42,-309,-522,484,-1015,-93,-898,93,151,-434,-614,-442,826,192,288,-80,29.13,0.9878411053540588,32.35,0.9983123612139156,0.0,0.0,0.0,3.953141689300537,0,0.0,0.0,0.0,0.0,-2.355625281750489,0.0,0.0,-1.675102456713165,0.0,0.0,0.0,0.0,10,0.0,0.0,-7.365107962800001,-0.6245266986,-6.927221427,-7.286144817,-0.6675975054000001,-6.4462640844,0.001832595708,0.002443460944,0.012828169956,0.028405233473999997,0.046120325318,-0.132557756212,-0.17922,-0.30276000000000003,0.28072,-0.35612,-0.25636,0.47908,-7.3256263899,-0.646062102,-6.6867427557,0.015118914591,0.024281893130999998,-0.059864793128,-0.26766999999999996,-0.27956000000000003,0.3799,5.64864,8.47296,-2.3536,0.9930767332839872,30.740000000000002
51,3347,0,-1027,-86,-961,14,14,33,-309,-522,484,-1005,-97,-900,91,158,-442,-614,-442,826,112,272,-160,29.14,0.9877424130273872,32.34,0.9985985689612632,0.0,0.0,0.0,3.9716970920562735,0,0.0,0.0,0.0,0.0,-2.387054869659928,0.0,0.0,-1.6819207753814585,0.0,0.0,0.0,0.0,10,0.0,0.0,-7.3722864306,-0.6173482308,-6.8985075558,-7.214360139,-0.6963113766,-6.4606210200000005,0.004276056651999999,0.004276056651999999,0.010079276394,0.027794368237999998,0.048258353643999996,-0.135001217156,-0.17922,-0.30276000000000003,0.28072,-0.35612,-0.25636,0.47908,-7.2933232848,-0.6568298037,-6.6795642879,0.016035212445,0.026267205147999996,-0.062460970381,-0.26766999999999996,-0.27956000000000003,0.3799,3.29504,8.00224,-4.7072,0.9931704909943252,30.740000000000002
52,3363,0,-1024,-87,-963,8,29,30,-309,-522,484,-996,-92,-901,97,173,-463,-614,-442,826,96,240,-112,29.14,0.9880088823094004,32.35,0.9983518381445844,0.0,0.0,0.0,3.9714200496673584,0,0.0,0.0,0.0,0.0,-2.4203663033449887,0.0,0.0,-1.690664143050269,0.0,0.0,0.0,0.0,10,0.0,0.0,-7.3507510272,-0.6245266986,-6.912864491400001,-7.1497539288,-0.6604190376,-6.467799487800001,0.002443460944,0.008857545922,0.00916297854,0.029626963946,0.052839842914,-0.141415302134,-0.17922,-0.30276000000000003,0.28072,-0.35612,-0.25636,0.47908,-7.250252478,-0.6424728681,-6.690331989600001,0.016035212445,0.030848694418,-0.066126161797,-0.26766999999999996,-0.27956000000000003,0.3799,2.82432,7.0608,-3.29504,0.9931803602269924,30.745
53,3378,0,-1025,-89,-965,18,23,29,-309,-522,484,-1007,-90,-893,98,188,-448,-614,-442,826,-16,160,-48,29.13,0.98773254379472,32.36,0.9984209227732544,0.0,0.0,0.0,3.957018852233887,0,0.0,0.0,0.0,0.0,-2.422702115610261,0.0,0.0,-1.6657577938094592,0.0,0.0,0.0,0.0,10,0.0,0.0,-7.3579294950000005,-0.6388836342,-6.927221427,-7.2287170746000005,-0.646062102,-6.4103717454,0.005497787124,0.0070249502139999994,0.008857545922,0.029932396564,0.057421332183999994,-0.13683381286399998,-0.17922,-0.30276000000000003,0.28072,-0.35612,-0.25636,0.47908,-7.2933232848000005,-0.6424728681,-6.6687965862,0.017715091844,0.032223141198999994,-0.06398813347099999,-0.26766999999999996,-0.27956000000000003,0.3799,-0.47072,4.7072,-1.41216,0.9930767332839872,30.744999999999997
54,3394,0,-1028,-87,-967,18,22,36,-309,-522,484,-1009,-91,-889,94,181,-434,-614,-442,826,32,304,0,29.13,0.9876239822353812,32.36,0.9984209227732544,0.0,0.0,0.0,3.965881109237671,0,0.0,0.0,0.0,0.0,-2.408898800293915,0.0,0.0,-1.6237970970013988,0.0,0.0,0.0,0.0,10,0.0,0.0,-7.3794648984,-0.6245266986,-6.9415783626000005,-7.2430740102,-0.6532405698,-6.3816578742,0.005497787124,0.006719517596,0.010995574248,0.028710666091999997,0.055283303857999996,-0.132557756212,-0.17922,-0.30276000000000003,0.28072,-0.35612,-0.25636,0.47908,-7.3112694543,-0.6388836341999999,-6.6616181184,0.017104226607999998,0.031001410727,-0.060781090982,-0.26766999999999996,-0.27956000000000003,0.3799,0.94144,8.94368,0.0,0.9930224525043179,30.744999999999997
55,3409,0,-1032,-91,-956,5,13,34,-309,-522,484,-1011,-87,-889,98,163,-437,-614,-442,826,128,240,48,29.13,0.9879397976807304,32.36,0.998647915124599,0.0,0.0,0.0,3.961450099945069,0,0.0,0.0,0.0,0.0,-2.4734409856866666,0.0,0.0,-1.6672674249588055,0.0,0.0,0.0,0.0,10,0.0,0.0,-7.4081787696,-0.6532405698,-6.8626152168,-7.2574309458,-0.6245266986,-6.3816578742,0.0015271630899999999,0.003970624034,0.010384709011999999,0.029932396564,0.049785516733999995,-0.133474054066,-0.17922,-0.30276000000000003,0.28072,-0.35612,-0.25636,0.47908,-7.3328048577,-0.6388836341999999,-6.6221365455,0.015729779827,0.026878070383999995,-0.061544672526999994,-0.26766999999999996,-0.27956000000000003,0.3799,3.76576,7.0608,1.41216,0.9932938564026648,30.744999999999997
56,3424,0,-1028,-89,-963,15,4,39,-309,-522,484,-1006,-93,-896,94,167,-433,-614,-442,826,112,336,-80,29.13,0.9876239822353812,32.36,0.9986873920552676,0.0,0.0,0.0,3.952587604522705,0,0.0,0.0,0.0,0.0,-2.4964621462542964,0.0,0.0,-1.6651170694977524,0.0,0.0,0.0,0.0,10,0.0,0.0,-7.3794648984,-0.6388836342,-6.912864491400001,-7.2215386068,-0.6675975054000001,-6.431907148800001,0.00458148927,0.001221730472,0.011911872102,0.028710666091999997,0.051007247206,-0.132252323594,-0.17922,-0.30276000000000003,0.28072,-0.35612,-0.25636,0.47908,-7.300501752600001,-0.6532405698000001,-6.672385820100001,0.016646077680999998,0.026114488839,-0.060170225746,-0.26766999999999996,-0.27956000000000003,0.3799,3.29504,9.88512,-2.3536,0.9931556871453244,30.744999999999997
57,3440,0,-1034,-87,-965,12,12,37,-309,-522,484,-1000,-95,-899,95,154,-437,-614,-442,826,64,320,0,29.13,0.98773254379472,32.35,0.9986281766592648,0.0,0.0,0.0,3.957018852233887,0,0.0,0.0,0.0,0.0,-2.5258025601262304,0.0,0.0,-1.669837451637041,0.0,0.0,0.0,0.0,10,0.0,0.0,-7.4225357052000005,-0.6245266986,-6.927221427,-7.1784678,-0.681954441,-6.4534425522,0.003665191416,0.003665191416,0.011301006866,0.029016098709999997,0.047036623172,-0.133474054066,-0.17922,-0.30276000000000003,0.28072,-0.35612,-0.25636,0.47908,-7.300501752600001,-0.6532405698,-6.690331989600001,0.016340645063,0.025350907293999997,-0.0610865236,-0.26766999999999996,-0.27956000000000003,0.3799,1.88288,9.4144,0.0,0.9931803602269924,30.740000000000002
58,3455,0,-1027,-83,-964,1,-12,28,-309,-522,484,-1009,-96,-891,102,144,-430,-644,-450,827,160,224,-112,29.12,0.9878114976560572,32.35,0.9983518381445844,0.0,0.0,0.0,3.9714200496673584,0,0.0,0.0,0.0,0.0,-2.5256714600522336,0.0,0.0,-1.6426004614041063,0.0,0.0,0.0,0.0,10,0.0,0.0,-7.3722864306,-0.5958128274000001,-6.9200429592,-7.2430740102,-0.6891329088,-6.3960148098000005,0.000305432618,-0.003665191416,0.008552113303999999,0.031154127036,0.043982296992,-0.13133602574,-0.17922,-0.30276000000000003,0.28072,-0.37352,-0.261,0.47966,-7.3076802204,-0.6424728681,-6.6580288845,0.015729779827,0.020158552788000002,-0.061391956218000004,-0.27637,-0.28188,0.38019000000000003,4.7072,6.59008,-3.29504,0.9930816679003208,30.735
59,3471,0,-1028,-92,-961,14,-20,31,-309,-522,484,-1006,-95,-897,95,137,-423,-644,-450,827,96,304,-64,29.13,0.9878904515173944,32.35,0.998519615099926,0.0,0.0,0.0,3.9581265449523926,0,0.0,0.0,0.0,0.0,-2.560824997796591,0.0,0.0,-1.653974543754494,0.0,0.0,0.0,0.0,10,0.0,0.0,-7.3794648984,-0.6604190376,-6.8985075558,-7.2215386068,-0.681954441,-6.4390856166,0.004276056651999999,-0.0061086523599999994,0.009468411158,0.029016098709999997,0.041844268665999995,-0.12919799741399998,-0.17922,-0.30276000000000003,0.28072,-0.37352,-0.261,0.47966,-7.300501752600001,-0.6711867393,-6.6687965862,0.016646077680999998,0.017867808152999997,-0.05986479312799999,-0.27637,-0.28188,0.38019000000000003,2.82432,8.94368,-1.88288,0.9932050333086602,30.740000000000002
60,3486,0,-1031,-90,-963,10,-12,36,-309,-522,484,-1007,-94,-899,95,135,-429,-644,-450,827,96,144,-48,29.12,0.9878114976560572,32.35,0.9984702689365902,0.0,0.0,0.0,3.961726903915405,0,0.0,0.0,0.0,0.0,-2.5763953971194598,0.0,0.0,-1.643980028770328,0.0,0.0,0.0,0.0,10,0.0,0.0,-7.4010003018,-0.646062102,-6.912864491400001,-7.2287170746000005,-0.6747759732,-6.4534425522,0.0030543261799999997,-0.003665191416,0.010995574248,0.029016098709999997,0.041233403429999996,-0.131030593122,-0.17922,-0.30276000000000003,0.28072,-0.37352,-0.261,0.47966,-7.3148586882,-0.6604190376000001,-6.6831535218,0.016035212445,0.018784106007,-0.060017509436999995,-0.27637,-0.28188,0.38019000000000003,2.82432,4.23648,-1.41216,0.9931408832963238,30.735
61,3501,0,-1031,-90,-963,8,-18,36,-291,-488,462,-1012,-94,-898,94,133,-426,-644,-450,827,80,272,-96,29.13,0.9877818899580556,32.36,0.998588699728596,0.0,0.0,0.0,3.9592344760894775,0,0.0,0.0,0.0,0.0,-2.604133122911824,0.0,0.0,-1.6473096793765982,0.0,0.0,0.0,0.0,10,0.0,0.0,-7.4010003018,-0.646062102,-6.912864491400001,-7.264609413600001,-0.6747759732,-6.4462640844,0.002443460944,-0.005497787124,0.010995574248,0.028710666091999997,0.040622538193999996,-0.130114295268,-0.16878,-0.28304,0.26796,-0.37352,-0.261,0.47966,-7.3328048577,-0.6604190376000001,-6.6795642879,0.015577063518,0.017562375534999997,-0.05955936051,-0.27115,-0.27202000000000004,0.37381,2.3536,8.00224,-2.82432,0.9931852948433257,30.744999999999997
62,3517,0,-1030,-92,-966,9,-8,33,-291,-488,462,-1013,-91,-893,94,140,-430,-644,-450,827,208,336,-128,29.12,0.9876042437700469,32.35,0.998519615099926,0.0,0.0,0.0,3.962280750274658,0,0.0,0.0,0.0,0.0,-2.595298405509868,0.0,0.0,-1.611023101408304,0.0,0.0,0.0,0.0,10,0.0,0.0,-7.393821834000001,-0.6604190376,-6.9343998948,-7.2717878814,-0.6532405698,-6.4103717454,0.002748893562,-0.002443460944,0.010079276394,0.028710666091999997,0.042760566519999994,-0.13133602574,-0.16878,-0.28304,0.26796,-0.37352,-0.261,0.47966,-7.3328048577,-0.6568298037,-6.672385820100001,0.015729779827,0.020158552788,-0.060628374673,-0.27115,-0.27202000000000004,0.37381,6.11936,9.88512,-3.76576,0.9930619294349865,30.735
63,3532,0,-1029,-91,-966,8,-6,35,-291,-488,462,-1010,-93,-898,96,148,-423,-644,-450,827,80,240,-16,29.13,0.9879299284480632,32.35,0.998460399703923,0.0,0.0,0.0,3.9714200496673584,0,0.0,0.0,0.0,0.0,-2.624768410971552,0.0,0.0,-1.6167614104821593,0.0,0.0,0.0,0.0,10,0.0,0.0,-7.3866433662,-0.6532405698,-6.9343998948,-7.250252478,-0.6675975054000001,-6.4462640844,0.002443460944,-0.001832595708,0.010690141629999999,0.029321531328,0.045204027464,-0.12919799741399998,-0.16878,-0.28304,0.26796,-0.37352,-0.261,0.47966,-7.318447922100001,-0.6604190376000001,-6.690331989600001,0.015882496136,0.021685715878,-0.05925392789199999,-0.27115,-0.27202000000000004,0.37381,2.3536,7.0608,-0.47072,0.9931951640759931,30.740000000000002
64,3547,0,-1024,-94,-962,13,-8,28,-291,-488,462,-1007,-93,-889,99,146,-431,-644,-450,827,32,144,-16,29.13,0.9878312361213916,32.35,0.9984110535405872,0.0,0.0,0.0,3.957018852233887,0,0.0,0.0,0.0,0.0,-2.6319129989496184,0.0,0.0,-1.5982561121855314,0.0,0.0,0.0,0.0,10,0.0,0.0,-7.3507510272,-0.6747759732,-6.9056860236,-7.2287170746000005,-0.6675975054000001,-6.3816578742,0.003970624034,-0.002443460944,0.008552113303999999,0.030237829182,0.044593162228,-0.13164145835799998,-0.16878,-0.28304,0.26796,-0.37352,-0.261,0.47966,-7.2897340509,-0.6711867393000001,-6.6436719489,0.017104226607999998,0.021074850642,-0.061544672526999994,-0.27115,-0.27202000000000004,0.37381,0.94144,4.23648,-0.47072,0.9931211448309893,30.740000000000002
65,3562,0,-1028,-93,-965,-4,0,34,-291,-488,462,-1006,-96,-893,91,143,-445,-644,-450,827,144,272,-96,29.12,0.9880286207747347,32.36,0.9984900074019244,0.0,0.0,0.0,3.964773416519165,0,0.0,0.0,0.0,0.0,-2.6784995840472576,0.0,0.0,-1.6227174229269403,0.0,0.0,0.0,0.0,10,0.0,0.0,-7.3794648984,-0.6675975054000001,-6.927221427,-7.2215386068,-0.6891329088,-6.4103717454,-0.001221730472,0.0,0.010384709011999999,0.027794368237999998,0.043676864374,-0.13591751501,-0.16878,-0.28304,0.26796,-0.37352,-0.261,0.47966,-7.300501752600001,-0.6783652071,-6.6687965862,0.013286318883,0.021838432187,-0.06276640299899999,-0.27115,-0.27202000000000004,0.37381,4.23648,8.00224,-2.82432,0.9932593140883296,30.740000000000002
66,3577,0,-1029,-86,-960,6,-8,33,-291,-488,462,-1011,-95,-891,90,146,-426,-644,-450,827,96,224,-48,29.13,0.9876239822353812,32.35,0.9983617073772514,0.0,0.0,0.0,3.965881109237671,0,0.0,0.0,0.0,0.0,-2.646794185825342,0.0,0.0,-1.562089550410535,0.0,0.0,0.0,0.0,10,0.0,0.0,-7.3866433662,-0.6173482308,-6.891329088,-7.2574309458,-0.681954441,-6.3960148098000005,0.001832595708,-0.002443460944,0.010079276394,0.02748893562,0.044593162228,-0.130114295268,-0.16878,-0.28304,0.26796,-0.37352,-0.261,0.47966,-7.322037156,-0.6496513359,-6.6436719489,0.014660765664,0.021074850642,-0.060017509437,-0.27115,-0.27202000000000004,0.37381,2.82432,6.59008,-1.41216,0.9929928448063163,30.740000000000002
67,3593,0,-1034,-90,-958,11,0,38,-291,-488,462,-1009,-100,-893,96,153,-434,-644,-450,827,32,240,32,29.13,0.9878213668887244,32.36,0.9983715766099186,0.0,0.0,0.0,3.955911159515381,0,0.0,0.0,0.0,0.0,-2.6452609522462964,0.0,0.0,-1.5350841464093334,0.0,0.0,0.0,0.0,10,0.0,0.0,-7.4225357052000005,-0.646062102,-6.8769721524000005,-7.2430740102,-0.71784678,-6.4103717454,0.003359758798,0.0,0.011606439484,0.029321531328,0.046731190554,-0.132557756212,-0.16878,-0.28304,0.26796,-0.37352,-0.261,0.47966,-7.3328048577,-0.681954441,-6.6436719489,0.016340645063,0.023365595277,-0.060475658364,-0.27115,-0.27202000000000004,0.37381,0.94144,7.0608,0.94144,0.9930964717493215,30.744999999999997
68,3608,0,-1033,-87,-969,3,-7,30,-291,-488,462,-1007,-94,-895,94,145,-430,-644,-450,827,80,320,-80,29.12,0.9878114976560572,32.35,0.9983518381445844,0.0,0.0,0.0,3.96366548538208,0,0.0,0.0,0.0,0.0,-2.6391074215274117,0.0,0.0,-1.5035189369710371,0.0,0.0,0.0,0.0,10,0.0,0.0,-7.4153572374,-0.6245266986,-6.9559352982,-7.2287170746000005,-0.6747759732,-6.424728681,0.000916297854,-0.0021380283259999997,0.00916297854,0.028710666091999997,0.04428772961,-0.13133602574,-0.16878,-0.28304,0.26796,-0.37352,-0.261,0.47966,-7.322037156,-0.6496513359,-6.690331989600001,0.014813481972999998,0.021074850642,-0.0610865236,-0.27115,-0.27202000000000004,0.37381,2.3536,9.4144,-2.3536,0.9930816679003208,30.735
69,3623,0,-1032,-91,-961,7,-8,39,-291,-488,462,-1010,-89,-897,94,148,-435,-644,-450,827,128,288,-48,29.13,0.9876239822353812,32.36,0.9982235381199112,0.0,0.0,0.0,3.9592344760894775,0,0.0,0.0,0.0,0.0,-2.587034747593679,0.0,0.0,-1.4227929284729963,0.0,0.0,0.0,0.0,10,0.0,0.0,-7.4081787696,-0.6532405698,-6.8985075558,-7.250252478,-0.6388836342,-6.4390856166,0.0021380283259999997,-0.002443460944,0.011911872102,0.028710666091999997,0.045204027464,-0.13286318882999998,-0.16878,-0.28304,0.26796,-0.37352,-0.261,0.47966,-7.3292156238,-0.646062102,-6.6687965862,0.015424347209,0.02138028326,-0.06047565836399999,-0.27115,-0.27202000000000004,0.37381,3.76576,8.47296,-1.41216,0.9929237601776462,30.744999999999997
70,3639,0,-1029,-90,-963,9,-10,34,-291,-488,462,-1007,-96,-897,100,146,-451,-644,-450,827,32,176,-144,29.13,0.9878904515173944,32.35,0.998460399703923,0.0,0.0,0.0,3.9725279808044434,0,0.0,0.0,0.0,0.0,-2.608351360879885,0.0,0.0,-1.4227655811670468,0.0,0.0,0.0,0.0,10,0.0,0.0,-7.3866433662,-0.646062102,-6.912864491400001,-7.2287170746000005,-0.6891329088,-6.4390856166,0.002748893562,-0.0030543261799999997,0.010384709011999999,0.0305432618,0.044593162228,-0.137750110718,-0.16878,-0.28304,0.26796,-0.37352,-0.261,0.47966,-7.3076802204,-0.6675975054000001,-6.675975054,0.016646077680999998,0.020769418024,-0.063682700853,-0.27115,-0.27202000000000004,0.37381,0.94144,5.17792,-4.23648,0.9931754256106586,30.740000000000002
71,3654,0,-1030,-91,-962,11,-12,37,-291,-488,462,-1010,-93,-892,97,134,-445,-609,-460,861,112,224,-128,29.12,0.9877621514927214,32.35,0.9984110535405872,0.0,0.0,0.0,3.96671199798584,0,0.0,0.0,0.0,0.0,-2.6032550716040963,0.0,0.0,-1.394166548814567,0.0,0.0,0.0,0.0,10,0.0,0.0,-7.393821834000001,-0.6532405698,-6.9056860236,-7.250252478,-0.6675975054000001,-6.403193277600001,0.003359758798,-0.003665191416,0.011301006866,0.029626963946,0.040927970811999996,-0.13591751501,-0.16878,-0.28304,0.26796,-0.35322,-0.2668,0.49938,-7.322037156,-0.6604190376000001,-6.6544396506000005,0.016493361372,0.018631389697999996,-0.062308254072,-0.261,-0.27492,0.38366999999999996,3.29504,6.59008,-3.76576,0.9930866025166543,30.735
72,3670,0,-1030,-88,-969,12,-20,44,-291,-488,462,-1007,-97,-887,94,139,-455,-609,-460,861,64,304,0,29.13,0.9878411053540588,32.35,0.998460399703923,0.0,0.0,0.0,3.962557792663574,0,0.0,0.0,0.0,0.0,-2.6164694931483043,0.0,0.0,-1.3858391626800342,0.0,0.0,0.0,0.0,10,0.0,0.0,-7.393821834000001,-0.6317051664000001,-6.9559352982,-7.2287170746000005,-0.6963113766,-6.367300938600001,0.003665191416,-0.0061086523599999994,0.013439035192,0.028710666091999997,0.042455133901999995,-0.13897184119,-0.16878,-0.28304,0.26796,-0.35322,-0.2668,0.49938,-7.3112694543000005,-0.6640082715,-6.6616181184,0.016187928754,0.018173240770999997,-0.062766402999,-0.261,-0.27492,0.38366999999999996,1.88288,8.94368,0.0,0.9931507525289909,30.740000000000002
73,3685,0,-1026,-92,-957,2,-17,40,-291,-488,462,-1009,-96,-890,97,125,-423,-609,-460,861,48,208,0,29.13,0.9877424130273872,32.36,0.998647915124599,0.0,0.0,0.0,3.9597883224487305,0,0.0,0.0,0.0,0.0,-2.641955513351912,0.0,0.0,-1.390921687242172,0.0,0.0,0.0,0.0,10,0.0,0.0,-7.365107962800001,-0.6604190376,-6.8697936846,-7.2430740102,-0.6891329088,-6.388836342,0.000610865236,-0.005192354505999999,0.012217304719999999,0.029626963946,0.03817907725,-0.12919799741399998,-0.16878,-0.28304,0.26796,-0.35322,-0.2668,0.49938,-7.3040909865,-0.6747759732,-6.6293150133,0.015118914591,0.016493361372,-0.05849034634699999,-0.261,-0.27492,0.38366999999999996,1.41216,6.11936,0.0,0.9931951640759931,30.744999999999997
74,3700,0,-1027,-90,-961,8,-7,37,-285,-479,443,-1015,-94,-889,91,125,-431,-609,-460,861,32,160,16,29.13,0.9879299284480632,32.34,0.9984307920059216,0.0,0.0,0.0,3.970312356948853,0,0.0,0.0,0.0,0.0,-2.662366105643315,0.0,0.0,-1.390431402915794,0.0,0.0,0.0,0.0,10,0.0,0.0,-7.3722864306,-0.646062102,-6.8985075558,-7.286144817,-0.6747759732,-6.3816578742,0.002443460944,-0.0021380283259999997,0.011301006866,0.027794368237999998,0.03817907725,-0.13164145835799998,-0.1653,-0.27782,0.25694,-0.35322,-0.2668,0.49938,-7.3292156238,-0.6604190376000001,-6.640082715,0.015118914591,0.018020524462,-0.06017022574599999,-0.25926,-0.27231,0.37816,0.94144,4.7072,0.47072,0.9931803602269924,30.735
75,3716,0,-1031,-83,-965,9,-4,38,-285,-479,443,-1004,-92,-891,97,141,-431,-609,-460,861,16,320,-32,29.13,0.9877917591907228,32.35,0.998578830495929,0.0,0.0,0.0,3.95757269859314,0,0.0,0.0,0.0,0.0,-2.683501121523356,0.0,0.0,-1.390732718491319,0.0,0.0,0.0,0.0,10,0.0,0.0,-7.4010003018,-0.5958128274000001,-6.927221427,-7.2071816712,-0.6604190376,-6.3960148098000005,0.002748893562,-0.001221730472,0.011606439484,0.029626963946,0.043065999138,-0.13164145835799998,-0.1653,-0.27782,0.25694,-0.35322,-0.2668,0.49938,-7.3040909865,-0.6281159325000001,-6.6616181184,0.016187928754,0.020922134333,-0.06001750943699999,-0.25926,-0.27231,0.37816,0.47072,9.4144,-0.94144,0.993185294843326,30.740000000000002
76,3731,0,-1030,-85,-962,15,-15,35,-285,-479,443,-1012,-95,-893,89,138,-418,-609,-460,861,32,160,-48,29.13,0.9877917591907228,32.36,0.998282753515914,0.0,0.0,0.0,3.961450099945069,0,0.0,0.0,0.0,0.0,-2.661109010851137,0.0,0.0,-1.3439437227610191,0.0,0.0,0.0,0.0,10,0.0,0.0,-7.393821834000001,-0.610169763,-6.9056860236,-7.264609413600001,-0.681954441,-6.4103717454,0.00458148927,-0.00458148927,0.010690141629999999,0.027183503002,0.042149701283999995,-0.127670834324,-0.1653,-0.27782,0.25694,-0.35322,-0.2668,0.49938,-7.329215623800001,-0.646062102,-6.6580288845,0.015882496136,0.018784106006999996,-0.058490346347000004,-0.25926,-0.27231,0.37816,0.94144,4.7072,-1.41216,0.9930372563533184,30.744999999999997
77,3747,0,-1029,-83,-965,5,-17,34,-285,-479,443,-1007,-95,-888,94,144,-428,-609,-460,861,32,192,16,29.12,0.9876042437700469,32.35,0.9983024919812484,0.0,0.0,0.0,3.960342168807984,0,0.0,0.0,0.0,0.0,-2.6145387126088835,0.0,0.0,-1.2717592079501,0.0,0.0,0.0,0.0,10,0.0,0.0,-7.3866433662,-0.5958128274000001,-6.927221427,-7.2287170746000005,-0.681954441,-6.3744794064,0.0015271630899999999,-0.005192354505999999,0.010384709011999999,0.028710666091999997,0.043982296992,-0.130725160504,-0.1653,-0.27782,0.25694,-0.35322,-0.2668,0.49938,-7.3076802204,-0.6388836342,-6.6508504167,0.015118914590999998,0.019394971243,-0.06017022574599999,-0.25926,-0.27231,0.37816,0.94144,5.64864,0.47072,0.9929533678756477,30.735
78,3762,0,-1030,-87,-957,12,-7,39,-285,-479,443,-1015,-92,-895,90,147,-443,-609,-460,861,16,224,-48,29.13,0.9879003207500616,32.34,0.998450530471256,0.0,0.0,0.0,3.962280750274658,0,0.0,0.0,0.0,0.0,-2.6327299351818985,0.0,0.0,-1.270801681077449,0.0,0.0,0.0,0.0,10,0.0,0.0,-7.393821834000001,-0.6245266986,-6.8697936846,-7.286144817,-0.6604190376,-6.424728681,0.003665191416,-0.0021380283259999997,0.011911872102,0.02748893562,0.044898594846,-0.135306649774,-0.1653,-0.27782,0.25694,-0.35322,-0.2668,0.49938,-7.3399833255,-0.6424728681,-6.6472611828,0.015577063518,0.02138028326,-0.061697388836000004,-0.25926,-0.27231,0.37816,0.47072,6.59008,-1.41216,0.9931754256106589,30.735
79,3777,0,-1029,-90,-965,14,-16,40,-285,-479,443,-1013,-95,-891,92,143,-437,-609,-460,861,96,128,-16,29.13,0.987683197631384,32.36,0.9985294843325933,0.0,0.0,0.0,3.961726903915405,0,0.0,0.0,0.0,0.0,-2.630309550971572,0.0,0.0,-1.2475631079059046,0.0,0.0,0.0,0.0,10,0.0,0.0,-7.3866433662,-0.646062102,-6.927221427,-7.2717878814,-0.681954441,-6.3960148098000005,0.004276056651999999,-0.004886921888,0.012217304719999999,0.028099800855999998,0.043676864374,-0.133474054066,-0.1653,-0.27782,0.25694,-0.35322,-0.2668,0.49938,-7.3292156238,-0.6640082715,-6.6616181184,0.016187928754,0.019394971243,-0.060628374672999995,-0.25926,-0.27231,0.37816,2.82432,3.76576,-0.47072,0.9931063409819887,30.744999999999997
80,3793,0,-1029,-84,-958,3,-10,35,-285,-479,443,-1005,-94,-891,95,129,-422,-609,-460,861,48,240,-48,29.12,0.9878707130520602,32.35,0.9984110535405872,0.0,0.0,0.0,3.955911159515381,0,0.0,0.0,0.0,0.0,-2.63762410997121,0.0,0.0,-1.2352323735479336,0.0,0.0,0.0,0.0,10,0.0,0.0,-7.3866433662,-0.6029912952,-6.8769721524000005,-7.214360139,-0.6747759732,-6.3960148098000005,0.000916297854,-0.0030543261799999997,0.010690141629999999,0.029016098709999997,0.039400807722,-0.128892564796,-0.1653,-0.27782,0.25694,-0.35322,-0.2668,0.49938,-7.300501752600001,-0.6388836342,-6.6364934811000005,0.014966198281999998,0.018173240771,-0.059101211583,-0.25926,-0.27231,0.37816,1.41216,7.0608,-1.41216,0.9931408832963238,30.735
81,3808,0,-1035,-89,-964,7,-18,33,-285,-479,443,-1009,-93,-894,91,135,-444,-609,-460,861,160,224,-48,29.12,0.9878114976560572,32.35,0.9984110535405872,0.0,0.0,0.0,3.9592344760894775,0,0.0,0.0,0.0,0.0,-2.6359486688068414,0.0,0.0,-1.2133767976104322,0.0,0.0,0.0,0.0,10,0.0,0.0,-7.429714173000001,-0.6388836342,-6.9200429592,-7.2430740102,-0.6675975054000001,-6.4175502132,0.0021380283259999997,-0.005497787124,0.010079276394,0.027794368237999998,0.041233403429999996,-0.13561208239199998,-0.1653,-0.27782,0.25694,-0.35322,-0.2668,0.49938,-7.336394091600001,-0.6532405698000001,-6.6687965862,0.014966198282,0.017867808152999997,-0.06276640299899999,-0.25926,-0.27231,0.37816,4.7072,6.59008,-1.41216,0.9931112755983222,30.735
82,3824,0,-1029,-87,-962,12,-28,33,-285,-479,443,-1006,-93,-892,111,137,-441,-609,-460,861,128,208,-16,29.12,0.9878608438193932,32.36,0.9983913150752528,0.0,0.0,0.0,3.961726903915405,0,0.0,0.0,0.0,0.0,-2.638294749770984,0.0,0.0,-1.1962261325722263,0.0,0.0,0.0,0.0,10,0.0,0.0,-7.3866433662,-0.6245266986,-6.9056860236,-7.2215386068,-0.6675975054000001,-6.403193277600001,0.003665191416,-0.008552113303999999,0.010079276394,0.033903020597999996,0.041844268665999995,-0.134695784538,-0.1653,-0.27782,0.25694,-0.35322,-0.2668,0.49938,-7.3040909865,-0.646062102,-6.6544396506000005,0.018784106007,0.016646077680999998,-0.062308254072,-0.25926,-0.27231,0.37816,3.76576,6.11936,-0.47072,0.993126079447323,30.740000000000002
83,3839,0,-1032,-82,-962,20,-22,41,-285,-479,443,-1002,-95,-894,85,139,-422,-609,-460,861,80,240,-80,29.13,0.9877917591907228,32.36,0.9984998766345916,0.0,0.0,0.0,3.951479911804199,0,0.0,0.0,0.0,0.0,-2.646020423402043,0.0,0.0,-1.185173126785791,0.0,0.0,0.0,0.0,10,0.0,0.0,-7.4081787696,-0.5886343596,-6.9056860236,-7.1928247356,-0.681954441,-6.4175502132,0.0061086523599999994,-0.006719517596,0.012522737337999999,0.02596177253,0.042455133901999995,-0.128892564796,-0.1653,-0.27782,0.25694,-0.35322,-0.2668,0.49938,-7.300501752600001,-0.6352944003000001,-6.6616181184,0.016035212445,0.017867808152999997,-0.058184913729000004,-0.25926,-0.27231,0.37816,2.3536,7.0608,-2.3536,0.9931458179126572,30.744999999999997
84,3854,0,-1032,-96,-961,15,-14,40,-285,-479,443,-1007,-91,-897,100,141,-486,-650,-456,867,80,336,-96,29.13,0.9877818899580556,32.36,0.9983814458425856,0.0,0.0,0.0,3.9586806297302246,0,0.0,0.0,0.0,0.0,-2.6347711761185684,0.0,0.0,-1.1537733694705574,0.0,0.0,0.0,0.0,10,0.0,0.0,-7.4081787696,-0.6891329088,-6.8985075558,-7.2287170746000005,-0.6532405698,-6.4390856166,0.00458148927,-0.004276056651999999,0.012217304719999999,0.0305432618,0.043065999138,-0.14844025234799998,-0.1653,-0.27782,0.25694,-0.377,-0.26448,0.50286,-7.318447922100001,-0.6711867393,-6.6687965862,0.017562375535,0.019394971243,-0.068111473814,-0.27115,-0.27115,0.3799,2.3536,9.88512,-2.82432,0.9930816679003206,30.744999999999997
85,3870,0,-1033,-94,-964,7,-11,36,-285,-479,443,-1006,-97,-895,95,141,-431,-650,-456,867,80,288,-96,29.13,0.9877424130273872,32.36,0.9985492227979276,0.0,0.0,0.0,3.970312356948853,0,0.0,0.0,0.0,0.0,-2.6420018036893773,0.0,0.0,-1.1428736966024768,0.0,0.0,0.0,0.0,10,0.0,0.0,-7.4153572374,-0.6747759732,-6.9200429592,-7.2215386068,-0.6963113766,-6.424728681,0.0021380283259999997,-0.003359758798,0.010995574248,0.029016098709999997,0.043065999138,-0.13164145835799998,-0.1653,-0.27782,0.25694,-0.377,-0.26448,0.50286,-7.318447922100001,-0.6855436749,-6.672385820100001,0.015577063518,0.019853120170000002,-0.06032294205499999,-0.27115,-0.27115,0.3799,2.3536,8.47296,-2.82432,0.9931458179126573,30.744999999999997
86,3885,0,-1027,-90,-967,7,-16,34,-285,-479,443,-1013,-95,-891,104,141,-425,-650,-456,867,64,272,-16,29.13,0.9878213668887244,32.36,0.9984209227732544,0.0,0.0,0.0,3.9572958946228023,0,0.0,0.0,0.0,0.0,-2.641693110332998,0.0,0.0,-1.12399523211261,0.0,0.0,0.0,0.0,10,0.0,0.0,-7.3722864306,-0.646062102,-6.9415783626000005,-7.2717878814,-0.681954441,-6.3960148098000005,0.0021380283259999997,-0.004886921888,0.010384709011999999,0.031764992272,0.043065999138,-0.12980886265,-0.1653,-0.27782,0.25694,-0.377,-0.26448,0.50286,-7.322037156,-0.6640082715,-6.668796586200001,0.016951510298999998,0.019089538625,-0.059712076818999996,-0.27115,-0.27115,0.3799,1.88288,8.00224,-0.47072,0.9931211448309893,30.744999999999997
87,3900,0,-1028,-91,-959,3,-14,38,-273,-519,470,-1011,-92,-889,83,134,-434,-650,-456,867,96,256,-96,29.13,0.9878312361213916,32.36,0.9984801381692572,0.0,0.0,0.0,3.9595112800598153,0,0.0,0.0,0.0,0.0,-2.6511104101321106,0.0,0.0,-1.1159441765817797,0.0,0.0,0.0,0.0,10,0.0,0.0,-7.3794648984,-0.6532405698,-6.884150620200001,-7.2574309458,-0.6604190376,-6.3816578742,0.000916297854,-0.004276056651999999,0.011606439484,0.025350907293999997,0.040927970811999996,-0.132557756212,-0.15834,-0.30102,0.2726,-0.377,-0.26448,0.50286,-7.318447922100001,-0.6568298037,-6.632904247200001,0.013133602573999998,0.018325957079999997,-0.060475658364,-0.26767,-0.28275,0.38773,2.82432,7.53152,-2.82432,0.9931556871453244,30.744999999999997
88,3916,0,-1033,-86,-961,3,-23,33,-273,-519,470,-1010,-93,-894,96,128,-418,-650,-456,867,96,208,-48,29.13,0.9879003207500616,32.37,0.9984110535405872,0.0,0.0,0.0,3.964773416519165,0,0.0,0.0,0.0,0.0,-2.66009020728149,0.0,0.0,-1.1075504913418452,0.0,0.0,0.0,0.0,10,0.0,0.0,-7.4153572374,-0.6173482308,-6.8985075558,-7.250252478,-0.6675975054000001,-6.4175502132,0.000916297854,-0.0070249502139999994,0.010079276394,0.029321531328,0.039095375104,-0.127670834324,-0.15834,-0.30102,0.2726,-0.377,-0.26448,0.50286,-7.3328048577,-0.6424728681,-6.6580288845,0.015118914591,0.016035212445,-0.058795778965,-0.26767,-0.28275,0.38773,2.82432,6.11936,-1.41216,0.9931556871453244,30.75
89,3931,0,-1028,-84,-963,9,-32,27,-273,-519,470,-1008,-92,-890,103,129,-443,-650,-456,867,48,304,0,29.13,0.98773254379472,32.36,0.9984801381692572,0.0,0.0,0.0,3.965881109237671,0,0.0,0.0,0.0,0.0,-2.6543723098123797,0.0,0.0,-1.0833937887376732,0.0,0.0,0.0,0.0,10,0.0,0.0,-7.3794648984,-0.6029912952,-6.912864491400001,-7.235895542400001,-0.6604190376,-6.388836342,0.002748893562,-0.009773843776,0.008246680686,0.031459559654,0.039400807722,-0.135306649774,-0.15834,-0.30102,0.2726,-0.377,-0.26448,0.50286,-7.3076802204,-0.6317051664,-6.650850416700001,0.017104226607999998,0.014813481973,-0.063529984544,-0.26767,-0.28275,0.38773,1.41216,8.94368,0.0,0.9931063409819886,30.744999999999997
90,3947,0,-1031,-92,-961,16,-24,34,-273,-519,470,-1000,-98,-888,94,123,-434,-650,-456,867,176,320,-96,29.14,0.9879003207500616,32.36,0.9985294843325933,0.0,0.0,0.0,3.955357074737549,0,0.0,0.0,0.0,0.0,-2.6798923982179885,0.0,0.0,-1.0934207158846243,0.0,0.0,0.0,0.0,10,0.0,0.0,-7.4010003018,-0.6604190376,-6.8985075558,-7.1784678,-0.7034898444000001,-6.3744794064,0.004886921888,-0.007330382832,0.010384709011999999,0.028710666091999997,0.037568212014,-0.132557756212,-0.15834,-0.30102,0.2726,-0.377,-0.26448,0.50286,-7.2897340509,-0.681954441,-6.6364934811000005,0.016798793989999998,0.015118914591,-0.0610865236,-0.26767,-0.28275,0.38773,5.17792,9.4144,-2.82432,0.9932149025413275,30.75
91,3962,0,-1028,-92,-962,6,-20,37,-273,-519,470,-1012,-96,-896,81,130,-410,-650,-456,867,32,160,16,29.13,0.9875845053047124,32.37,0.9985097458672588,0.0,0.0,0.0,3.9581265449523926,0,0.0,0.0,0.0,0.0,-2.6561698319531915,0.0,0.0,-1.0500167553162107,0.0,0.0,0.0,0.0,10,0.0,0.0,-7.3794648984,-0.6604190376,-6.9056860236,-7.264609413600001,-0.6891329088,-6.431907148800001,0.001832595708,-0.0061086523599999994,0.011301006866,0.024740042057999997,0.03970624034,-0.12522737338,-0.15834,-0.30102,0.2726,-0.377,-0.26448,0.50286,-7.322037156,-0.6747759732,-6.668796586200001,0.013286318882999998,0.016798793989999998,-0.056963183257000005,-0.26767,-0.28275,0.38773,0.94144,4.7072,0.47072,0.9930471255859856,30.75
92,3977,0,-1033,-86,-966,10,-15,30,-273,-519,470,-1009,-85,-894,82,143,-422,-650,-456,867,48,160,-16,29.13,0.9879496669133976,32.36,0.998647915124599,0.0,0.0,0.0,3.9606192111968994,0,0.0,0.0,0.0,0.0,-2.70540064905708,0.0,0.0,-1.086234321145109,0.0,0.0,0.0,0.0,10,0.0,0.0,-7.4153572374,-0.6173482308,-6.9343998948,-7.2430740102,-0.610169763,-6.4175502132,0.0030543261799999997,-0.00458148927,0.00916297854,0.025045474675999997,0.043676864374,-0.128892564796,-0.15834,-0.30102,0.2726,-0.377,-0.26448,0.50286,-7.3292156238,-0.6137589969,-6.675975054,0.014049900427999999,0.019547687552,-0.059864793128,-0.26767,-0.28275,0.38773,1.41216,4.7072,-0.47072,0.9932987910189983,30.744999999999997
93,3993,0,-1033,-81,-963,4,-17,40,-273,-519,470,-1009,-92,-894,98,133,-408,-650,-456,867,96,288,-144,29.14,0.9880187515420676,32.36,0.9984307920059216,0.0,0.0,0.0,3.962003946304321,0,0.0,0.0,0.0,0.0,-2.732077059739145,0.0,0.0,-1.0974660075215568,0.0,0.0,0.0,0.0,10,0.0,0.0,-7.4153572374,-0.5814558918,-6.912864491400001,-7.2430740102,-0.6604190376,-6.4175502132,0.001221730472,-0.005192354505999999,0.012217304719999999,0.029932396564,0.040622538193999996,-0.124616508144,-0.15834,-0.30102,0.2726,-0.377,-0.26448,0.50286,-7.3292156238,-0.6209374647,-6.6652073523,0.015577063518,0.017715091843999997,-0.056199601711999995,-0.26767,-0.28275,0.38773,2.82432,8.47296,-4.23648,0.9932247717739946,30.75
94,4008,0,-1029,-91,-965,14,-15,29,-273,-519,470,-1009,-100,-894,85,136,-418,-650,-456,867,160,224,-16,29.13,0.9878904515173944,32.35,0.9981939304219096,0.0,0.0,0.0,3.961450099945069,0,0.0,0.0,0.0,0.0,-2.705207991084136,0.0,0.0,-1.0505926815465298,0.0,0.0,0.0,0.0,10,0.0,0.0,-7.3866433662,-0.6532405698,-6.927221427,-7.2430740102,-0.71784678,-6.4175502132,0.004276056651999999,-0.00458148927,0.008857545922,0.02596177253,0.041538836047999995,-0.127670834324,-0.15834,-0.30102,0.2726,-0.377,-0.26448,0.50286,-7.3148586882,-0.6855436749,-6.672385820100001,0.015118914591,0.018478673388999996,-0.059406644201,-0.26767,-0.28275,0.38773,4.7072,6.59008,-0.47072,0.9930421909696521,30.740000000000002
95,4026,0,-1031,-93,-963,9,-11,33,-273,-519,470,-1012,-91,-894,90,136,-427,-650,-456,867,32,192,-48,29.13,0.9878411053540588,32.36,0.9985492227979276,4449.43603515625,-7309.84716796875,30.399999618530277,3.95369553565979,0,0.0,0.0,0.0,0.0,-2.722813286002135,0.0,0.0,-1.0525900278289029,0.0,0.0,0.0,0.0,10,44.823933919270836,-73.16411946614583,-7.4010003018,-0.6675975054000001,-6.912864491400001,-7.264609413600001,-0.6532405698,-6.4175502132,0.002748893562,-0.003359758798,0.010079276394,0.02748893562,0.041538836047999995,-0.13041972788599998,-0.15834,-0.30102,0.2726,-0.377,-0.26448,0.50286,-7.3328048577,-0.6604190376000001,-6.6652073523,0.015118914591,0.019089538625,-0.06017022574599999,-0.26767,-0.28275,0.38773,0.94144,5.64864,-1.41216,0.9931951640759932,30.744999999999997
96,4040,0,-1026,-85,-963,10,-24,36,-273,-519,470,-1014,-95,-888,114,136,-441,-650,-456,867,48,336,-64,29.15,0.9878213668887244,32.36,0.9983913150752528,4449.43603515625,-7309.84716796875,30.399999618530277,3.962003946304321,0,0.0,0.0,0.0,0.0,-2.714162067835753,0.0,0.0,-1.0261520100615729,0.0,0.0,0.0,0.0,10,44.823933919270836,-73.16411946614583,-7.365107962800001,-0.610169763,-6.912864491400001,-7.2789663492,-0.681954441,-6.3744794064,0.0030543261799999997,-0.007330382832,0.010995574248,0.034819318451999995,0.041538836047999995,-0.134695784538,-0.15834,-0.30102,0.2726,-0.377,-0.26448,0.50286,-7.322037156,-0.646062102,-6.6436719489,0.018936822315999996,0.017104226607999998,-0.061850105144999994,-0.26767,-0.28275,0.38773,1.41216,9.88512,-1.88288,0.9931063409819886,30.755
97,4055,0,-1028,-81,-962,12,-28,37,-273,-519,470,-1005,-96,-891,96,132,-429,-654,-456,853,64,224,16,29.14,0.9877522822600544,32.36,0.9984801381692572,4449.43603515625,-7309.84716796875,30.399999618530277,3.9592344760894775,0,0.0,0.0,0.0,0.0,-2.708276635576633,0.0,0.0,-1.00313486766626,0.0,0.0,0.0,0.0,10,44.823933919270836,-73.16411946614583,-7.3794648984,-0.5814558918,-6.9056860236,-7.214360139,-0.6891329088,-6.3960148098000005,0.003665191416,-0.008552113303999999,0.011301006866,0.029321531328,0.040317105576,-0.131030593122,-0.15834,-0.30102,0.2726,-0.37932,-0.26448,0.49474,-7.2969125187,-0.6352944003000001,-6.650850416700001,0.016493361372,0.015882496136,-0.059864793128,-0.26883,-0.28275,0.38367,1.88288,6.59008,0.47072,0.9931162102146558,30.75
98,4071,0,-1026,-93,-963,14,-15,34,-273,-519,470,-1008,-94,-892,89,131,-437,-654,-456,853,112,288,-64,29.13,0.98773254379472,32.37,0.99840118430792,4449.43603515625,-7309.84716796875,30.399999618530277,3.9680967330932617,0,0.0,0.0,0.0,0.0,-2.687987419671852,0.0,0.0,-0.9649099294183248,0.0,0.0,0.0,0.0,10,44.823933919270836,-73.16411946614583,-7.365107962800001,-0.6675975054000001,-6.912864491400001,-7.235895542400001,-0.6747759732,-6.403193277600001,0.004276056651999999,-0.00458148927,0.010384709011999999,0.027183503002,0.040011672958,-0.133474054066,-0.15834,-0.30102,0.2726,-0.37932,-0.26448,0.49474,-7.300501752600001,-0.6711867393000001,-6.6580288845,0.015729779827,0.017715091843999997,-0.061544672526999994,-0.26883,-0.28275,0.38367,3.29504,8.47296,-1.88288,0.99306686405132,30.75
99,4086,0,-1033,-88,-962,8,-26,39,-273,-519,470,-1005,-94,-889,92,136,-439,-654,-456,853,96,224,-80,29.14,0.987850974586726,32.36,0.9985492227979276,4449.43603515625,-7309.84716796875,30.399999618530277,3.961450099945069,0,0.0,0.0,0.0,0.0,-2.706364873546089,0.0,0.0,-0.9691328661839854,0.0,0.0,0.0,0.0,10,44.823933919270836,-73.16411946614583,-7.4153572374,-0.6317051664000001,-6.9056860236,-7.214360139,-0.6747759732,-6.3816578742,0.002443460944,-0.007941248068,0.011911872102,0.028099800855999998,0.041538836047999995,-0.134084919302,-0.15834,-0.30102,0.2726,-0.37932,-0.26448,0.49474,-7.3148586882,-0.6532405698000001,-6.6436719489,0.0152716309,0.016798793989999998,-0.061086523600000005,-0.26883,-0.28275,0.38367,2.82432,6.59008,-2.3536,0.9932000986923268,30.75
100,4102,0,-1030,-89,-957,9,-11,33,-290,-492,483,-1007,-90,-897,97,142,-426,-654,-456,853,48,208,-16,29.14,0.9880680977054034,32.36,0.9985985689612632,4449.43603515625,-7309.84716796875,30.399999618530277,3.960342168807984,0,0.0,0.0,0.0,0.0,-2.7627004809355165,0.0,0.0,-1.0143484721172966,0.0,0.0,0.0,0.0,10,44.823933919270836,-73.16411946614583,-7.393821834000001,-0.6388836342,-6.8697936846,-7.2287170746000005,-0.646062102,-6.4390856166,0.002748893562,-0.003359758798,0.010079276394,0.029626963946,0.043371431756,-0.130114295268,-0.1682,-0.28536,0.28014,-0.37932,-0.26448,0.49474,-7.3112694543000005,-0.6424728681,-6.6544396506000005,0.016187928754,0.020005836479000002,-0.060017509437,-0.27376,-0.27492,0.38744,1.41216,6.11936,-0.47072,0.9933333333333333,30.75
101,4117,0,-1029,-92,-962,2,-23,35,-290,-492,483,-1014,-97,-890,92,132,-430,-654,-456,853,112,256,-96,29.13,0.9879003207500616,32.38,0.9986281766592648,4449.43603515625,-7309.84716796875,30.399999618530277,3.960342168807984,0,0.0,0.0,0.0,0.0,-2.7977976664058937,0.0,0.0,-1.0358557591089412,0.0,0.0,0.0,0.0,10,44.823933919270836,-73.16411946614583,-7.3866433662,-0.6604190376,-6.9056860236,-7.2789663492,-0.6963113766,-6.388836342,0.000610865236,-0.0070249502139999994,0.010690141629999999,0.028099800855999998,0.040317105576,-0.13133602574,-0.1682,-0.28536,0.28014,-0.37932,-0.26448,0.49474,-7.3328048577,-0.6783652070999999,-6.6472611828,0.014355333045999999,0.016646077680999998,-0.060322942055,-0.27376,-0.27492,0.38744,3.29504,7.53152,-2.82432,0.9932642487046632,30.755000000000003
102,4132,0,-1030,-88,-962,9,-30,35,-290,-492,483,-1008,-84,-890,98,129,-434,-654,-456,853,-32,192,-16,29.14,0.9877522822600544,32.37,0.99840118430792,4449.43603515625,-7309.84716796875,30.399999618530277,3.960342168807984,0,0.0,0.0,0.0,0.0,-2.7777867518012958,0.0,0.0,-0.9974009361574624,0.0,0.0,0.0,0.0,10,44.823933919270836,-73.16411946614583,-7.393821834000001,-0.6317051664000001,-6.9056860236,-7.235895542400001,-0.6029912952,-6.388836342,0.002748893562,-0.00916297854,0.010690141629999999,0.029932396564,0.039400807722,-0.132557756212,-0.1682,-0.28536,0.28014,-0.37932,-0.26448,0.49474,-7.314858688200001,-0.6173482308,-6.6472611828,0.016340645063,0.015118914591,-0.060933807291,-0.27376,-0.27492,0.38744,-0.94144,5.64864,-0.47072,0.9930767332839872,30.755
103,4148,0,-1027,-91,-963,7,-20,40,-290,-492,483,-1015,-96,-893,99,140,-430,-654,-456,853,-16,272,-112,29.13,0.9877424130273872,32.37,0.998450530471256,4449.43603515625,-7309.84716796875,30.399999618530277,3.970312356948853,0,0.0,0.0,0.0,0.0,-2.7636088049426277,0.0,0.0,-0.9658798967061604,0.0,0.0,0.0,0.0,10,44.823933919270836,-73.16411946614583,-7.3722864306,-0.6532405698,-6.912864491400001,-7.286144817,-0.6891329088,-6.4103717454,0.0021380283259999997,-0.0061086523599999994,0.012217304719999999,0.030237829182,0.042760566519999994,-0.13133602574,-0.1682,-0.28536,0.28014,-0.37932,-0.26448,0.49474,-7.3292156238,-0.6711867393,-6.6616181184,0.016187928754,0.018325957079999997,-0.05955936051,-0.27376,-0.27492,0.38744,-0.47072,8.00224,-3.29504,0.9930964717493216,30.75
104,4163,0,-1033,-83,-962,21,-11,31,-290,-492,483,-1007,-92,-896,104,139,-426,-654,-456,853,144,368,-96,29.13,0.9877917591907228,32.37,0.9985097458672588,4449.43603515625,-7309.84716796875,30.399999618530277,3.96366548538208,0,0.0,0.0,0.0,0.0,-2.7651544862535635,0.0,0.0,-0.9518793427830502,0.0,0.0,0.0,0.0,10,44.823933919270836,-73.16411946614583,-7.4153572374,-0.5958128274000001,-6.9056860236,-7.2287170746000005,-0.6604190376,-6.431907148800001,0.006414084978,-0.003359758798,0.009468411158,0.031764992272,0.042455133901999995,-0.130114295268,-0.1682,-0.28536,0.28014,-0.37932,-0.26448,0.49474,-7.322037156,-0.6281159325000001,-6.668796586200001,0.019089538625,0.019547687552,-0.060322942055,-0.27376,-0.27492,0.38744,4.23648,10.82656,-2.82432,0.9931507525289909,30.75
105,4179,0,-1030,-87,-966,12,-19,35,-290,-492,483,-1010,-92,-895,93,142,-416,-654,-456,853,160,320,-80,29.15,0.9879299284480632,32.37,0.9985097458672588,4449.43603515625,-7309.84716796875,30.399999618530277,3.9572958946228023,0,0.0,0.0,0.0,0.0,-2.786421539651124,0.0,0.0,-0.9594395380540665,0.0,0.0,0.0,0.0,10,44.823933919270836,-73.16411946614583,-7.393821834000001,-0.6245266986,-6.9343998948,-7.250252478,-0.6604190376,-6.424728681,0.003665191416,-0.005803219742,0.010690141629999999,0.028405233473999997,0.043371431756,-0.127059969088,-0.1682,-0.28536,0.28014,-0.37932,-0.26448,0.49474,-7.322037156,-0.6424728681,-6.6795642879,0.016035212445,0.018784106007,-0.058184913729,-0.27376,-0.27492,0.38744,4.7072,9.4144,-2.3536,0.993219837157661,30.759999999999998
106,4194,0,-1033,-91,-963,12,-13,34,-290,-492,483,-1012,-92,-888,95,134,-444,-654,-456,853,96,208,16,29.14,0.9877522822600544,32.38,0.998588699728596,4449.43603515625,-7309.84716796875,30.399999618530277,3.965050220489502,0,0.0,0.0,0.0,0.0,-2.7928045183828307,0.0,0.0,-0.9507762281511988,0.0,0.0,0.0,0.0,10,44.823933919270836,-73.16411946614583,-7.4153572374,-0.6532405698,-6.912864491400001,-7.264609413600001,-0.6604190376,-6.3744794064,0.003665191416,-0.003970624034,0.010384709011999999,0.029016098709999997,0.040927970811999996,-0.13561208239199998,-0.1682,-0.28536,0.28014,-0.37932,-0.26448,0.49474,-7.3399833255,-0.6568298037,-6.6436719489,0.016340645063,0.018478673389,-0.06261368668999999,-0.27376,-0.27492,0.38744,2.82432,6.11936,0.47072,0.9931704909943252,30.76
107,4209,0,-1031,-86,-961,6,-22,32,-290,-492,483,-1014,-95,-893,99,142,-442,-654,-456,853,112,336,-96,29.14,0.9878114976560572,32.35,0.9983123612139156,4449.43603515625,-7309.84716796875,30.399999618530277,3.970312356948853,0,0.0,0.0,0.0,0.0,-2.7674496533353867,0.0,0.0,-0.9079211129452036,0.0,0.0,0.0,0.0,10,44.823933919270836,-73.16411946614583,-7.4010003018,-0.6173482308,-6.8985075558,-7.2789663492,-0.681954441,-6.4103717454,0.001832595708,-0.006719517596,0.009773843776,0.030237829182,0.043371431756,-0.135001217156,-0.1682,-0.28536,0.28014,-0.37932,-0.26448,0.49474,-7.3399833255,-0.6496513359,-6.6544396506000005,0.016035212445,0.01832595708,-0.06261368669,-0.27376,-0.27492,0.38744,3.29504,9.88512,-2.82432,0.9930619294349865,30.745
108,4225,0,-1030,-90,-964,12,-24,40,-290,-492,483,-1011,-95,-890,85,135,-426,-654,-456,853,192,240,-80,29.13,0.9878805822847274,32.37,0.99840118430792,4449.43603515625,-7309.84716796875,30.399999618530277,3.965881109237671,0,0.0,0.0,0.0,0.0,-2.765170737705505,0.0,0.0,-0.8907237581913761,0.0,0.0,0.0,0.0,10,44.823933919270836,-73.16411946614583,-7.393821834000001,-0.646062102,-6.9200429592,-7.2574309458,-0.681954441,-6.388836342,0.003665191416,-0.007330382832,0.012217304719999999,0.02596177253,0.041233403429999996,-0.130114295268,-0.1682,-0.28536,0.28014,-0.37932,-0.26448,0.49474,-7.3256263899,-0.6640082715,-6.6544396506000005,0.014813481973,0.016951510298999998,-0.058948495274,-0.27376,-0.27492,0.38744,5.64864,7.0608,-2.3536,0.9931408832963238,30.75
109,4240,0,-1025,-87,-963,14,-19,34,-290,-492,483,-1006,-92,-900,92,124,-429,-654,-456,853,192,144,-64,29.14,0.9878114976560572,32.38,0.9984702689365902,4449.43603515625,-7309.84716796875,30.399999618530277,3.96366548538208,0,0.0,0.0,0.0,0.0,-2.762720294183461,0.0,0.0,-0.8736199016243301,0.0,0.0,0.0,0.0,10,44.823933919270836,-73.16411946614583,-7.3579294950000005,-0.6245266986,-6.912864491400001,-7.2215386068,-0.6604190376,-6.4606210200000005,0.004276056651999999,-0.005803219742,0.010384709011999999,0.028099800855999998,0.037873644632,-0.131030593122,-0.1682,-0.28536,0.28014,-0.37932,-0.26448,0.49474,-7.2897340509,-0.6424728681,-6.686742755700001,0.016187928754,0.016035212445,-0.060322942054999995,-0.27376,-0.27492,0.38744,5.64864,4.23648,-1.88288,0.9931408832963238,30.76
110,4255,0,-1028,-88,-960,19,-20,30,-290,-492,483,-1010,-90,-896,87,126,-443,-634,-434,866,128,224,-112,29.14,0.9877522822600544,32.38,0.998578830495929,4449.43603515625,-7309.84716796875,30.399999618530277,3.96283483505249,0,0.0,0.0,0.0,0.0,-2.7672403983636684,0.0,0.0,-0.8643339586732799,0.0,0.0,0.0,0.0,10,44.823933919270836,-73.16411946614583,-7.3794648984,-0.6317051664000001,-6.891329088,-7.250252478,-0.646062102,-6.431907148800001,0.005803219742,-0.0061086523599999994,0.00916297854,0.026572637766,0.038484509868,-0.135306649774,-0.1682,-0.28536,0.28014,-0.36772,-0.25172,0.50228,-7.3148586882,-0.6388836342,-6.6616181184,0.016187928754,0.016187928754,-0.063071835617,-0.26796,-0.26854,0.39120999999999995,3.76576,6.59008,-3.29504,0.9931655563779918,30.76
111,4271,0,-1030,-90,-962,-2,-30,38,-290,-492,483,-1009,-87,-895,92,122,-417,-634,-434,866,144,288,-80,29.14,0.9878114976560572,32.36,0.9985492227979276,4449.43603515625,-7309.84716796875,30.399999618530277,3.962557792663574,0,0.0,0.0,0.0,0.0,-2.775752782050724,0.0,0.0,-0.8595173356437555,0.0,0.0,0.0,0.0,10,44.823933919270836,-73.16411946614583,-7.393821834000001,-0.646062102,-6.9056860236,-7.2430740102,-0.6245266986,-6.424728681,-0.000610865236,-0.00916297854,0.011606439484,0.028099800855999998,0.037262779396,-0.127365401706,-0.1682,-0.28536,0.28014,-0.36772,-0.25172,0.50228,-7.318447922100001,-0.6352944003000001,-6.6652073523,0.01374446781,0.014049900428,-0.057879481111,-0.26796,-0.26854,0.39120999999999995,4.23648,8.47296,-2.3536,0.9931803602269924,30.75
112,4286,0,-1031,-86,-962,18,-26,31,-290,-492,483,-1011,-93,-894,93,125,-413,-634,-434,866,96,272,-144,29.14,0.9880088823094004,32.36,0.9984406612385888,4449.43603515625,-7309.84716796875,30.399999618530277,3.96366548538208,0,0.0,0.0,0.0,0.0,-2.7967473763750377,0.0,0.0,-0.86828148612735,0.0,0.0,0.0,0.0,10,44.823933919270836,-73.16411946614583,-7.4010003018,-0.6173482308,-6.9056860236,-7.2574309458,-0.6675975054000001,-6.4175502132,0.005497787124,-0.007941248068,0.009468411158,0.028405233473999997,0.03817907725,-0.126143671234,-0.1682,-0.28536,0.28014,-0.36772,-0.25172,0.50228,-7.3292156238,-0.6424728681,-6.6616181184,0.016951510298999998,0.015118914591,-0.058337630038,-0.26796,-0.26854,0.39120999999999995,2.82432,8.00224,-4.23648,0.9932247717739946,30.75
113,4302,0,-1034,-92,-963,13,-19,32,-275,-495,459,-1010,-90,-887,94,126,-420,-634,-434,866,144,240,-176,29.13,0.9878312361213916,32.37,0.9985097458672588,4449.43603515625,-7309.84716796875,30.399999618530277,3.962003946304321,0,0.0,0.0,0.0,0.0,-2.8014577656305417,0.0,0.0,-0.8592880062286606,0.0,0.0,0.0,0.0,10,44.823933919270836,-73.16411946614583,-7.4225357052000005,-0.6604190376,-6.912864491400001,-7.250252478,-0.646062102,-6.367300938600001,0.003970624034,-0.005803219742,0.009773843776,0.028710666091999997,0.038484509868,-0.12828169956,-0.1595,-0.2871,0.26622,-0.36772,-0.25172,0.50228,-7.336394091600001,-0.6532405698,-6.640082715,0.016340645063,0.016340645063,-0.05925392789199999,-0.26361,-0.26941000000000004,0.38425,4.23648,7.0608,-5.17792,0.9931704909943252,30.75
114,4317,0,-1031,-88,-963,7,-10,36,-275,-495,459,-1015,-94,-894,97,139,-421,-634,-434,866,144,288,-144,29.14,0.9879101899827288,32.36,0.99833209967925,4449.43603515625,-7309.84716796875,30.399999618530277,3.9592344760894775,0,0.0,0.0,0.0,0.0,-2.791607483577371,0.0,0.0,-0.8346894661913399,0.0,0.0,0.0,0.0,10,44.823933919270836,-73.16411946614583,-7.4010003018,-0.6317051664000001,-6.912864491400001,-7.286144817,-0.6747759732,-6.4175502132,0.0021380283259999997,-0.0030543261799999997,0.010995574248,0.029626963946,0.042455133901999995,-0.128587132178,-0.1595,-0.2871,0.26622,-0.36772,-0.25172,0.50228,-7.3435725594,-0.6532405698000001,-6.6652073523,0.015882496136,0.019700403861,-0.058795778964999997,-0.26361,-0.26941000000000004,0.38425,4.23648,8.47296,-4.23648,0.9931211448309893,30.75
115,4332,0,-1036,-85,-961,9,-15,39,-275,-495,459,-1019,-98,-890,102,145,-459,-634,-434,866,0,160,16,29.13,0.9877424130273872,32.37,0.9984110535405872,4449.43603515625,-7309.84716796875,30.399999618530277,3.9572958946228023,0,0.0,0.0,0.0,0.0,-2.768892784009196,0.0,0.0,-0.796573998076802,0.0,0.0,0.0,0.0,10,44.823933919270836,-73.16411946614583,-7.4368926408,-0.610169763,-6.8985075558,-7.3148586882,-0.7034898444000001,-6.388836342,0.002748893562,-0.00458148927,0.011911872102,0.031154127036,0.04428772961,-0.140193571662,-0.1595,-0.2871,0.26622,-0.36772,-0.25172,0.50228,-7.3758756645000005,-0.6568298037,-6.6436719489,0.016951510298999998,0.01985312017,-0.06414084978,-0.26361,-0.26941000000000004,0.38425,0.0,4.7072,0.47072,0.9930767332839872,30.75
116,4348,0,-1028,-92,-958,14,-23,35,-275,-495,459,-1016,-91,-889,98,144,-423,-634,-434,866,128,224,-64,29.14,0.9876535899333828,32.37,0.9984110535405872,4449.43603515625,-7309.84716796875,30.399999618530277,3.956465005874634,0,0.0,0.0,0.0,0.0,-2.7335554333428256,0.0,0.0,-0.7454224612800529,0.0,0.0,0.0,0.0,10,44.823933919270836,-73.16411946614583,-7.3794648984,-0.6604190376,-6.8769721524000005,-7.2933232848000005,-0.6532405698,-6.3816578742,0.004276056651999999,-0.0070249502139999994,0.010690141629999999,0.029932396564,0.043982296992,-0.12919799741399998,-0.1595,-0.2871,0.26622,-0.36772,-0.25172,0.50228,-7.336394091600001,-0.6568298037,-6.6293150133,0.017104226607999998,0.018478673389,-0.05925392789199999,-0.26361,-0.26941000000000004,0.38425,3.76576,6.59008,-1.88288,0.993032321736985,30.755
117,4363,0,-1027,-95,-965,6,-12,32,-275,-495,459,-1001,-92,-896,97,142,-446,-634,-434,866,32,240,-16,29.13,0.9877917591907228,32.37,0.998460399703923,4449.43603515625,-7309.84716796875,30.399999618530277,3.974743366241455,0,0.0,0.0,0.0,0.0,-2.725795846811124,0.0,0.0,-0.7249331378148878,0.0,0.0,0.0,0.0,10,44.823933919270836,-73.16411946614583,-7.3722864306,-0.681954441,-6.927221427,-7.1856462678,-0.6604190376,-6.431907148800001,0.001832595708,-0.003665191416,0.009773843776,0.029626963946,0.043371431756,-0.136222947628,-0.1595,-0.2871,0.26622,-0.36772,-0.25172,0.50228,-7.2789663492,-0.6711867393,-6.6795642879,0.015729779827,0.019853120170000002,-0.063224551926,-0.26361,-0.26941000000000004,0.38425,0.94144,7.0608,-0.47072,0.9931260794473229,30.75
118,4379,0,-1030,-85,-971,8,-5,34,-275,-495,459,-1014,-93,-894,102,142,-434,-634,-434,866,112,224,16,29.14,0.9879694053787318,32.38,0.998519615099926,4449.43603515625,-7309.84716796875,30.399999618530277,3.962003946304321,0,0.0,0.0,0.0,0.0,-2.752249856607608,0.0,0.0,-0.7417867997405424,0.0,0.0,0.0,0.0,10,44.823933919270836,-73.16411946614583,-7.393821834000001,-0.610169763,-6.9702922338,-7.2789663492,-0.6675975054000001,-6.4175502132,0.002443460944,-0.0015271630899999999,0.010384709011999999,0.031154127036,0.043371431756,-0.132557756212,-0.1595,-0.2871,0.26622,-0.36772,-0.25172,0.50228,-7.336394091600001,-0.6388836342,-6.6939212235,0.016798793989999998,0.020922134333,-0.0610865236,-0.26361,-0.26941000000000004,0.38425,3.29504,6.59008,0.47072,0.9932445102393289,30.76
119,4394,0,-1029,-87,-963,9,-12,34,-275,-495,459,-1006,-91,-891,92,151,-429,-634,-434,866,112,272,-128,29.15,0.987614113002714,32.37,0.9986084381939304,4449.43603515625,-7309.84716796875,30.399999618530277,3.965881109237671,0,0.0,0.0,0.0,0.0,-2.739519562974614,0.0,0.0,-0.7159794123366963,0.0,0.0,0.0,0.0,10,44.823933919270836,-73.16411946614583,-7.3866433662,-0.6245266986,-6.912864491400001,-7.2215386068,-0.6532405698,-6.3960148098000005,0.002748893562,-0.003665191416,0.010384709011999999,0.028099800855999998,0.046120325318,-0.131030593122,-0.1595,-0.2871,0.26622,-0.36772,-0.25172,0.50228,-7.3040909865,-0.6388836341999999,-6.6544396506000005,0.015424347209,0.021227566950999997,-0.060322942054999995,-0.26361,-0.26941000000000004,0.38425,3.29504,8.00224,-3.76576,0.9931112755983222,30.759999999999998
120,4409,0,-1027,-89,-958,2,-14,34,-275,-495,459,-1005,-91,-896,99,152,-426,-634,-434,866,32,176,16,29.15,0.9878805822847274,32.36,0.9984406612385888,4449.43603515625,-7309.84716796875,30.399999618530277,3.954803228378296,0,0.0,0.0,0.0,0.0,-2.7411191231399075,0.0,0.0,-0.7060920854878637,0.0,0.0,0.0,0.0,10,44.823933919270836,-73.16411946614583,-7.3722864306,-0.6388836342,-6.8769721524000005,-7.214360139,-0.6532405698,-6.431907148800001,0.000610865236,-0.004276056651999999,0.010384709011999999,0.030237829182,0.046425757936,-0.130114295268,-0.1595,-0.2871,0.26622,-0.36772,-0.25172,0.50228,-7.2933232848,-0.646062102,-6.6544396506000005,0.015424347209,0.021074850642,-0.059864793128,-0.26361,-0.26941000000000004,0.38425,0.94144,5.17792,0.47072,0.9931606217616581,30.755
121,4425,0,-1030,-87,-955,16,-17,44,-275,-495,459,-1010,-92,-896,94,137,-426,-634,-434,866,96,176,-64,29.14,0.98780162842339,32.37,0.9984110535405872,4449.43603515625,-7309.84716796875,30.399999618530277,3.9506490230560303,0,0.0,0.0,0.0,0.0,-2.726823828235045,0.0,0.0,-0.6791709504284406,0.0,0.0,0.0,0.0,10,44.823933919270836,-73.16411946614583,-7.393821834000001,-0.6245266986,-6.855436749,-7.250252478,-0.6604190376,-6.431907148800001,0.004886921888,-0.005192354505999999,0.013439035192,0.028710666091999997,0.041844268665999995,-0.130114295268,-0.1595,-0.2871,0.26622,-0.36772,-0.25172,0.50228,-7.322037156,-0.6424728681,-6.6436719489,0.016798793989999998,0.018325957079999997,-0.058337630038,-0.26361,-0.26941000000000004,0.38425,2.82432,5.17792,-1.88288,0.9931063409819887,30.755
122,4440,0,-1031,-91,-965,10,-12,33,-275,-495,459,-1015,-95,-887,96,138,-428,-634,-434,866,160,288,-112,29.15,0.987614113002714,32.36,0.9984406612385888,4449.43603515625,-7309.84716796875,30.399999618530277,3.957849740982056,0,0.0,0.0,0.0,0.0,-2.689791552032096,0.0,0.0,-0.6280909390629156,0.0,0.0,0.0,0.0,10,44.823933919270836,-73.16411946614583,-7.4010003018,-0.6532405698,-6.927221427,-7.286144817,-0.681954441,-6.367300938600001,0.0030543261799999997,-0.003665191416,0.010079276394,0.029321531328,0.042149701283999995,-0.130725160504,-0.1595,-0.2871,0.26622,-0.36772,-0.25172,0.50228,-7.3435725594,-0.6675975054000001,-6.6472611828,0.016187928754,0.019242254933999996,-0.060322942054999995,-0.26361,-0.26941000000000004,0.38425,4.7072,8.47296,-3.29504,0.9930273871206514,30.755
123,4456,0,-1030,-87,-962,13,-8,30,-275,-495,459,-1012,-94,-894,87,141,-441,-621,-447,867,64,240,-48,29.14,0.98780162842339,32.38,0.9984209227732544,4449.43603515625,-7309.84716796875,30.399999618530277,3.96366548538208,0,0.0,0.0,0.0,0.0,-2.6775419061441963,0.0,0.0,-0.6046483474531742,0.0,0.0,0.0,0.0,10,44.823933919270836,-73.16411946614583,-7.393821834000001,-0.6245266986,-6.9056860236,-7.264609413600001,-0.6747759732,-6.4175502132,0.003970624034,-0.002443460944,0.00916297854,0.026572637766,0.043065999138,-0.134695784538,-0.1595,-0.2871,0.26622,-0.36018,-0.25926,0.50286,-7.329215623800001,-0.6496513359,-6.6616181184,0.0152716309,0.020311269097,-0.06276640299899999,-0.25984,-0.27318,0.38454,1.88288,7.0608,-1.41216,0.9931112755983222,30.76
124,4471,0,-1031,-88,-959,17,-18,41,-275,-495,459,-1016,-97,-886,85,131,-422,-621,-447,867,32,192,0,29.13,0.9877424130273872,32.37,0.99840118430792,4449.43603515625,-7309.84716796875,30.399999618530277,3.961450099945069,0,0.0,0.0,0.0,0.0,-2.653953305476259,0.0,0.0,-0.569320238741095,0.0,0.0,0.0,0.0,10,44.823933919270836,-73.16411946614583,-7.4010003018,-0.6317051664000001,-6.884150620200001,-7.2933232848000005,-0.6963113766,-6.3601224708,0.005192354505999999,-0.005497787124,0.012522737337999999,0.02596177253,0.040011672958,-0.128892564796,-0.1595,-0.2871,0.26622,-0.36018,-0.25926,0.50286,-7.3471617933,-0.6640082715,-6.6221365455,0.015577063518,0.017256942916999998,-0.058184913729000004,-0.25984,-0.27318,0.38454,0.94144,5.64864,0.0,0.9930717986676536,30.75
125,4486,0,-1034,-87,-963,10,-21,34,-275,-495,459,-1008,-90,-887,97,137,-426,-621,-447,867,32,128,0,29.15,0.9876634591660498,32.37,0.9984110535405872,4449.43603515625,-7309.84716796875,30.399999618530277,3.970312356948853,0,0.0,0.0,0.0,0.0,-2.620666502133269,0.0,0.0,-0.5240743519214911,0.0,0.0,0.0,0.0,10,44.823933919270836,-73.16411946614583,-7.4225357052000005,-0.6245266986,-6.912864491400001,-7.235895542400001,-0.646062102,-6.367300938600001,0.0030543261799999997,-0.006414084978,0.010384709011999999,0.029626963946,0.041844268665999995,-0.130114295268,-0.1595,-0.2871,0.26622,-0.36018,-0.25926,0.50286,-7.329215623800001,-0.6352944003000001,-6.640082715,0.016340645063,0.017715091843999997,-0.059864793128,-0.25984,-0.27318,0.38454,0.94144,3.76576,0.0,0.9930372563533185,30.759999999999998
126,4502,0,-1028,-89,-962,16,-25,37,-271,-482,496,-1008,-94,-891,94,128,-424,-621,-447,867,48,176,0,29.15,0.9877226745620528,32.38,0.9984209227732544,4449.43603515625,-7309.84716796875,30.399999618530277,3.94843339920044,0,0.0,0.0,0.0,0.0,-2.597848238282711,0.0,0.0,-0.4908869667170834,0.0,0.0,0.0,0.0,10,44.823933919270836,-73.16411946614583,-7.3794648984,-0.6388836342,-6.9056860236,-7.235895542400001,-0.6747759732,-6.3960148098000005,0.004886921888,-0.00763581545,0.011301006866,0.028710666091999997,0.039095375104,-0.129503430032,-0.15718000000000001,-0.27956,0.28768,-0.36018,-0.25926,0.50286,-7.3076802204,-0.6568298037,-6.650850416700001,0.016798793989999998,0.015729779827,-0.059101211582999996,-0.25868,-0.26941,0.39527,1.41216,5.17792,0.0,0.9930717986676536,30.765
127,4517,0,-1032,-93,-958,2,-17,35,-271,-482,496,-1006,-89,-898,102,125,-430,-621,-447,867,112,176,-16,29.15,0.9880483592400692,32.38,0.9984209227732544,4449.43603515625,-7309.84716796875,30.399999618530277,3.9600653648376474,0,0.0,0.0,0.0,0.0,-2.622416739632683,0.0,0.0,-0.5094986698074424,0.0,0.0,0.0,0.0,10,44.823933919270836,-73.16411946614583,-7.4081787696,-0.6675975054000001,-6.8769721524000005,-7.2215386068,-0.6388836342,-6.4462640844,0.000610865236,-0.005192354505999999,0.010690141629999999,0.031154127036,0.03817907725,-0.13133602574,-0.15718000000000001,-0.27956,0.28768,-0.36018,-0.25926,0.50286,-7.3148586882,-0.6532405698000001,-6.6616181184,0.015882496136,0.016493361372,-0.060322942055,-0.25868,-0.26941,0.39527,3.29504,5.17792,-0.47072,0.9932346410066618,30.765
128,4532,0,-1030,-89,-958,16,-12,33,-271,-482,496,-1007,-94,-895,84,136,-406,-621,-447,867,32,272,0,29.14,0.9878114976560572,32.38,0.9984307920059216,4449.43603515625,-7309.84716796875,30.399999618530277,3.970312356948853,0,0.0,0.0,0.0,0.0,-2.6135983825302227,0.0,0.0,-0.491692177017414,0.0,0.0,0.0,0.0,10,44.823933919270836,-73.16411946614583,-7.393821834000001,-0.6388836342,-6.8769721524000005,-7.2287170746000005,-0.6747759732,-6.424728681,0.004886921888,-0.003665191416,0.010079276394,0.025656339912,0.041538836047999995,-0.124005642908,-0.15718000000000001,-0.27956,0.28768,-0.36018,-0.25926,0.50286,-7.3112694543000005,-0.6568298037,-6.650850416700001,0.0152716309,0.018936822315999996,-0.056963183257,-0.25868,-0.26941,0.39527,0.94144,8.00224,0.0,0.9931211448309893,30.76
129,4547,0,-1027,-89,-966,7,-20,29,-271,-482,496,-1011,-96,-893,92,128,-430,-621,-447,867,-16,192,16,29.15,0.9877720207253886,32.38,0.998519615099926,4449.43603515625,-7309.84716796875,30.399999618530277,3.956465005874634,0,0.0,0.0,0.0,0.0,-2.611957518948877,0.0,0.0,-0.4819388623988173,0.0,0.0,0.0,0.0,10,44.823933919270836,-73.16411946614583,-7.3722864306,-0.6388836342,-6.9343998948,-7.2574309458,-0.6891329088,-6.4103717454,0.0021380283259999997,-0.0061086523599999994,0.008857545922,0.028099800855999998,0.039095375104,-0.13133602574,-0.15718000000000001,-0.27956,0.28768,-0.36018,-0.25926,0.50286,-7.3148586882,-0.6640082715,-6.672385820100001,0.015118914591,0.016493361372,-0.061239239909,-0.25868,-0.26941,0.39527,-0.47072,5.64864,0.47072,0.9931458179126573,30.765
130,4562,0,-1028,-91,-962,1,-14,32,-271,-482,496,-1012,-96,-893,103,137,-442,-621,-447,867,32,224,0,29.15,0.9878805822847274,32.38,0.9984209227732544,4449.43603515625,-7309.84716796875,30.399999618530277,3.961450099945069,0,0.0,0.0,0.0,0.0,-2.6116582288669616,0.0,0.0,-0.4737950530259548,0.0,0.0,0.0,0.0,10,44.823933919270836,-73.16411946614583,-7.3794648984,-0.6532405698,-6.9056860236,-7.264609413600001,-0.6891329088,-6.4103717454,0.000305432618,-0.004276056651999999,0.009773843776,0.031459559654,0.041844268665999995,-0.135001217156,-0.15718000000000001,-0.27956,0.28768,-0.36018,-0.25926,0.50286,-7.322037156,-0.6711867393,-6.6580288845,0.015882496136,0.018784106007,-0.06261368669,-0.25868,-0.26941,0.39527,0.94144,6.59008,0.0,0.9931507525289909,30.765
131,4578,0,-1030,-88,-960,4,-18,31,-271,-482,496,-1009,-88,-892,90,143,-445,-621,-447,867,32,208,-80,29.16,0.9876338514680484,32.37,0.9985097458672588,4449.43603515625,-7309.84716796875,30.399999618530277,3.9592344760894775,0,0.0,0.0,0.0,0.0,-2.5884183867390886,0.0,0.0,-0.4409674696341649,0.0,0.0,0.0,0.0,10,44.823933919270836,-73.16411946614583,-7.393821834000001,-0.6317051664000001,-6.891329088,-7.2430740102,-0.6317051664000001,-6.403193277600001,0.001221730472,-0.005497787124,0.009468411158,0.02748893562,0.043676864374,-0.13591751501,-0.15718000000000001,-0.27956,0.28768,-0.36018,-0.25926,0.50286,-7.318447922100001,-0.6317051664000001,-6.6472611828,0.014355333045999999,0.019089538625,-0.06322455192599999,-0.25868,-0.26941,0.39527,0.94144,6.11936,-2.3536,0.9930717986676536,30.765
132,4593,0,-1029,-96,-958,24,-12,33,-271,-482,496,-1005,-92,-896,91,144,-433,-621,-447,867,80,288,-96,29.14,0.9876437207007156,32.38,0.9984209227732544,4449.43603515625,-7309.84716796875,30.399999618530277,3.974743366241455,0,0.0,0.0,0.0,0.0,-2.554077511617,0.0,0.0,-0.3966640238453289,0.0,0.0,0.0,0.0,10,44.823933919270836,-73.16411946614583,-7.3866433662,-0.6891329088,-6.8769721524000005,-7.214360139,-0.6604190376,-6.431907148800001,0.007330382832,-0.003665191416,0.010079276394,0.027794368237999998,0.043982296992,-0.132252323594,-0.15718000000000001,-0.27956,0.28768,-0.36018,-0.25926,0.50286,-7.300501752600001,-0.6747759732,-6.6544396506000005,0.017562375535,0.020158552788000002,-0.0610865236,-0.25868,-0.26941,0.39527,2.3536,8.47296,-2.82432,0.993032321736985,30.76
133,4608,0,-1028,-102,-960,18,-12,28,-271,-482,496,-1009,-92,-890,111,139,-445,-621,-447,867,144,304,-128,29.15,0.9879299284480632,32.38,0.9984209227732544,4449.43603515625,-7309.84716796875,30.399999618530277,3.965881109237671,0,0.0,0.0,0.0,0.0,-2.5616494678468773,0.0,0.0,-0.398418616126469,0.0,0.0,0.0,0.0,10,44.823933919270836,-73.16411946614583,-7.3794648984,-0.7322037156000001,-6.891329088,-7.2430740102,-0.6604190376,-6.388836342,0.005497787124,-0.003665191416,0.008552113303999999,0.033903020597999996,0.042455133901999995,-0.13591751501,-0.15718000000000001,-0.27956,0.28768,-0.36018,-0.25926,0.50286,-7.3112694543,-0.6963113766,-6.640082715,0.019700403861,0.019394971243,-0.063682700853,-0.25868,-0.26941,0.39527,4.23648,8.94368,-3.76576,0.9931754256106589,30.765
134,4624,0,-1034,-89,-964,23,-11,34,-271,-482,496,-1010,-91,-890,95,139,-424,-621,-447,867,48,224,-96,29.15,0.9878213668887244,32.39,0.9983814458425856,4449.43603515625,-7309.84716796875,30.399999618530277,3.9592344760894775,0,0.0,0.0,0.0,0.0,-2.547583856128856,0.0,0.0,-0.3767383222487292,0.0,0.0,0.0,0.0,10,44.823933919270836,-73.16411946614583,-7.4225357052000005,-0.6388836342,-6.9200429592,-7.250252478,-0.6532405698,-6.388836342,0.0070249502139999994,-0.003359758798,0.010384709011999999,0.029016098709999997,0.042455133901999995,-0.129503430032,-0.15718000000000001,-0.27956,0.28768,-0.36018,-0.25926,0.50286,-7.336394091600001,-0.646062102,-6.6544396506000005,0.018020524461999997,0.019547687552,-0.05955936050999999,-0.25868,-0.26941,0.39527,1.41216,6.59008,-2.82432,0.9931014063656549,30.77
135,4639,0,-1025,-92,-960,17,-10,37,-271,-482,496,-1011,-93,-893,92,140,-422,-621,-447,867,96,256,-48,29.15,0.98773254379472,32.39,0.9985985689612632,4449.43603515625,-7309.84716796875,30.399999618530277,3.961450099945069,0,0.0,0.0,0.0,0.0,-2.5522344598817472,0.0,0.0,-0.3756560637386833,0.0,0.0,0.0,0.0,10,44.823933919270836,-73.16411946614583,-7.3579294950000005,-0.6604190376,-6.891329088,-7.2574309458,-0.6675975054000001,-6.4103717454,0.005192354505999999,-0.0030543261799999997,0.011301006866,0.028099800855999998,0.042760566519999994,-0.128892564796,-0.15718000000000001,-0.27956,0.28768,-0.36018,-0.25926,0.50286,-7.3076802204,-0.6640082715,-6.6508504167,0.016646077680999998,0.01985312017,-0.058795778965,-0.25868,-0.26941,0.39527,2.82432,7.53152,-1.41216,0.9931655563779915,30.77
136,4655,0,-1032,-87,-963,10,-3,38,-271,-482,496,-1009,-93,-892,94,138,-422,-629,-439,847,80,176,-160,29.15,0.9877621514927214,32.38,0.998578830495929,4449.43603515625,-7309.84716796875,30.399999618530277,3.9592344760894775,0,0.0,0.0,0.0,0.0,-2.558137884887425,0.0,0.0,-0.3759466042439568,0.0,0.0,0.0,0.0,10,44.823933919270836,-73.16411946614583,-7.4081787696,-0.6245266986,-6.912864491400001,-7.2430740102,-0.6675975054000001,-6.403193277600001,0.0030543261799999997,-0.000916297854,0.011606439484,0.028710666091999997,0.042149701283999995,-0.128892564796,-0.15718000000000001,-0.27956,0.28768,-0.36482,-0.25462,0.49126000000000003,-7.3256263899,-0.646062102,-6.6580288845,0.015882496136,0.020616701714999998,-0.058643062656,-0.261,-0.26709,0.38947,2.3536,5.17792,-4.7072,0.9931704909943252,30.765
137,4670,0,-1030,-86,-962,11,-19,25,-271,-482,496,-1008,-99,-895,97,126,-420,-629,-439,847,128,304,-32,29.15,0.9877720207253886,32.38,0.9984702689365902,4449.43603515625,-7309.84716796875,30.399999618530277,3.961450099945069,0,0.0,0.0,0.0,0.0,-2.5495745070042863,0.0,0.0,-0.3605829819867769,0.0,0.0,0.0,0.0,10,44.823933919270836,-73.16411946614583,-7.393821834000001,-0.6173482308,-6.9056860236,-7.235895542400001,-0.7106683122,-6.424728681,0.003359758798,-0.005803219742,0.00763581545,0.029626963946,0.038484509868,-0.12828169956,-0.15718000000000001,-0.27956,0.28768,-0.36482,-0.25462,0.49126000000000003,-7.314858688200001,-0.6640082715,-6.6652073523,0.016493361372,0.016340645063,-0.060322942054999995,-0.261,-0.26709,0.38947,3.76576,8.94368,-0.94144,0.9931211448309893,30.765
138,4685,0,-1028,-87,-962,16,-16,29,-271,-482,496,-1004,-93,-889,98,133,-430,-629,-439,847,80,256,-128,29.15,0.9878805822847274,32.39,0.998647915124599,4449.43603515625,-7309.84716796875,30.399999618530277,3.970312356948853,0,0.0,0.0,0.0,0.0,-2.582460612539905,0.0,0.0,-0.3903065873315106,0.0,0.0,0.0,0.0,10,44.823933919270836,-73.16411946614583,-7.3794648984,-0.6245266986,-6.9056860236,-7.2071816712,-0.6675975054000001,-6.3816578742,0.004886921888,-0.004886921888,0.008857545922,0.029932396564,0.040622538193999996,-0.13133602574,-0.15718000000000001,-0.27956,0.28768,-0.36482,-0.25462,0.49126000000000003,-7.2933232848,-0.646062102,-6.6436719489,0.017409659226,0.017867808152999997,-0.061239239909,-0.261,-0.26709,0.38947,2.3536,7.53152,-3.76576,0.9932642487046632,30.77
139,4701,0,-1031,-94,-962,8,-24,31,-297,-489,468,-1013,-95,-892,88,136,-422,-629,-439,847,64,256,-64,29.14,0.98780162842339,32.37,0.998450530471256,4449.43603515625,-7309.84716796875,30.399999618530277,3.965881109237671,0,0.0,0.0,0.0,0.0,-2.5747036361081665,0.0,0.0,-0.3755822805298505,0.0,0.0,0.0,0.0,10,44.823933919270836,-73.16411946614583,-7.4010003018,-0.6747759732,-6.9056860236,-7.2717878814,-0.681954441,-6.403193277600001,0.002443460944,-0.007330382832,0.009468411158,0.026878070384,0.041538836047999995,-0.128892564796,-0.17226,-0.28362,0.27144,-0.36482,-0.25462,0.49126000000000003,-7.3363940916,-0.6783652071,-6.6544396506000005,0.014660765664,0.017104226607999998,-0.059712076819,-0.26854,-0.26912,0.38135,1.88288,7.53152,-1.88288,0.993126079447323,30.755
140,4716,0,-1029,-85,-969,10,-20,37,-297,-489,468,-1009,-94,-891,94,131,-416,-629,-439,847,80,304,-80,29.15,0.9877621514927214,32.38,0.998519615099926,4449.43603515625,-7309.84716796875,30.399999618530277,3.9592344760894775,0,0.0,0.0,0.0,0.0,-2.5712786308663538,0.0,0.0,-0.3657829989238659,0.0,0.0,0.0,0.0,10,44.823933919270836,-73.16411946614583,-7.3866433662,-0.610169763,-6.9559352982,-7.2430740102,-0.6747759732,-6.3960148098000005,0.0030543261799999997,-0.0061086523599999994,0.011301006866,0.028710666091999997,0.040011672958,-0.127059969088,-0.17226,-0.28362,0.27144,-0.36482,-0.25462,0.49126000000000003,-7.3148586882,-0.6424728681,-6.675975054,0.015882496136,0.016951510298999998,-0.057879481111,-0.26854,-0.26912,0.38135,2.3536,8.94368,-2.3536,0.9931408832963238,30.765
141,4732,0,-1027,-87,-964,9,-17,35,-297,-489,468,-1007,-89,-891,92,131,-435,-629,-439,847,96,288,-96,29.15,0.9877818899580556,32.38,0.9984702689365902,4449.43603515625,-7309.84716796875,30.399999618530277,3.962557792663574,0,0.0,0.0,0.0,0.0,-2.5635473083549054,0.0,0.0,-0.3514843687014407,0.0,0.0,0.0,0.0,10,44.823933919270836,-73.16411946614583,-7.3722864306,-0.6245266986,-6.9200429592,-7.2287170746000005,-0.6388836342,-6.3960148098000005,0.002748893562,-0.005192354505999999,0.010690141629999999,0.028099800855999998,0.040011672958,-0.13286318882999998,-0.17226,-0.28362,0.27144,-0.36482,-0.25462,0.49126000000000003,-7.300501752600001,-0.6317051664,-6.6580288845,0.015424347209,0.017409659225999997,-0.06108652359999999,-0.26854,-0.26912,0.38135,2.82432,8.47296,-2.82432,0.9931260794473229,30.765
142,4747,0,-1034,-88,-964,12,-13,34,-297,-489,468,-1002,-95,-896,94,131,-431,-629,-439,847,80,208,0,29.15,0.9877621514927214,32.38,0.9985294843325933,4449.43603515625,-7309.84716796875,30.399999618530277,3.9586806297302246,0,0.0,0.0,0.0,0.0,-2.5615802428511736,0.0,0.0,-0.34365323018189,0.0,0.0,0.0,0.0,10,44.823933919270836,-73.16411946614583,-7.4225357052000005,-0.6317051664000001,-6.9200429592,-7.1928247356,-0.681954441,-6.431907148800001,0.003665191416,-0.003970624034,0.010384709011999999,0.028710666091999997,0.040011672958,-0.13164145835799998,-0.17226,-0.28362,0.27144,-0.36482,-0.25462,0.49126000000000003,-7.3076802204,-0.6568298037,-6.675975054,0.016187928754,0.018020524461999997,-0.06062837467299999,-0.26854,-0.26912,0.38135,2.3536,6.11936,0.0,0.9931458179126573,30.765
143,4762,0,-1030,-94,-959,10,-23,37,-297,-489,468,-1009,-93,-894,97,134,-411,-629,-439,847,16,240,0,29.15,0.98773254379472,32.39,0.9984998766345916,4449.43603515625,-7309.84716796875,30.399999618530277,3.961450099945069,0,0.0,0.0,0.0,0.0,-2.551004651056649,0.0,0.0,-0.3266368975387269,0.0,0.0,0.0,0.0,10,44.823933919270836,-73.16411946614583,-7.393821834000001,-0.6747759732,-6.884150620200001,-7.2430740102,-0.6675975054000001,-6.4175502132,0.0030543261799999997,-0.0070249502139999994,0.011301006866,0.029626963946,0.040927970811999996,-0.12553280599799999,-0.17226,-0.28362,0.27144,-0.36482,-0.25462,0.49126000000000003,-7.318447922100001,-0.6711867393000001,-6.650850416700001,0.016340645063,0.016951510298999998,-0.057115899565999995,-0.26854,-0.26912,0.38135,0.47072,7.0608,0.0,0.9931162102146558,30.77
144,4778,0,-1031,-85,-960,12,-16,46,-297,-489,468,-1008,-92,-890,94,140,-426,-629,-439,847,176,304,-96,29.15,0.987683197631384,32.38,0.9984209227732544,4449.43603515625,-7309.84716796875,30.399999618530277,3.952587604522705,0,0.0,0.0,0.0,0.0,-2.521990609512778,0.0,0.0,-0.2899509028054077,0.0,0.0,0.0,0.0,10,44.823933919270836,-73.16411946614583,-7.4010003018,-0.610169763,-6.891329088,-7.235895542400001,-0.6604190376,-6.388836342,0.003665191416,-0.004886921888,0.014049900427999999,0.028710666091999997,0.042760566519999994,-0.130114295268,-0.17226,-0.28362,0.27144,-0.36482,-0.25462,0.49126000000000003,-7.318447922100001,-0.6352944003000001,-6.640082715,0.016187928754,0.018936822315999996,-0.05803219742,-0.26854,-0.26912,0.38135,5.17792,8.94368,-2.82432,0.9930520602023192,30.765
145,4793,0,-1028,-85,-961,13,-13,35,-297,-489,468,-1014,-90,-895,98,135,-432,-629,-439,847,80,320,-80,29.15,0.9878312361213916,32.39,0.9984900074019244,4449.43603515625,-7309.84716796875,30.399999618530277,3.965881109237671,0,0.0,0.0,0.0,0.0,-2.524828769395483,0.0,0.0,-0.2883162680555967,0.0,0.0,0.0,0.0,10,44.823933919270836,-73.16411946614583,-7.3794648984,-0.610169763,-6.8985075558,-7.2789663492,-0.646062102,-6.424728681,0.003970624034,-0.003970624034,0.010690141629999999,0.029932396564,0.041233403429999996,-0.131946890976,-0.17226,-0.28362,0.27144,-0.36482,-0.25462,0.49126000000000003,-7.3292156238,-0.6281159325000001,-6.6616181184,0.016951510299,0.018631389697999996,-0.060628374672999995,-0.26854,-0.26912,0.38135,2.3536,9.4144,-2.3536,0.993160621761658,30.77
146,4809,0,-1030,-86,-957,-5,-25,34,-297,-489,468,-1011,-93,-890,99,137,-414,-629,-439,847,32,288,-80,29.15,0.9877720207253886,32.38,0.998519615099926,4449.43603515625,-7309.84716796875,30.399999618530277,3.95757269859314,0,0.0,0.0,0.0,0.0,-2.5232656217219915,0.0,0.0,-0.2819470475809137,0.0,0.0,0.0,0.0,10,44.823933919270836,-73.16411946614583,-7.393821834000001,-0.6173482308,-6.8697936846,-7.2574309458,-0.6675975054000001,-6.388836342,-0.0015271630899999999,-0.00763581545,0.010384709011999999,0.030237829182,0.041844268665999995,-0.126449103852,-0.17226,-0.28362,0.27144,-0.36482,-0.25462,0.49126000000000003,-7.3256263899,-0.6424728681,-6.6293150133,0.014355333046,0.017104226607999998,-0.05803219742,-0.26854,-0.26912,0.38135,0.94144,8.47296,-2.3536,0.9931458179126573,30.765
147,4824,0,-1034,-87,-968,8,-23,37,-297,-489,468,-1006,-97,-894,92,137,-431,-629,-439,847,96,256,-80,29.16,0.9877917591907228,32.39,0.9984998766345916,4449.43603515625,-7309.84716796875,30.399999618530277,3.962557792663574,0,0.0,0.0,0.0,0.0,-2.521663447869387,0.0,0.0,-0.2756389590396053,0.0,0.0,0.0,0.0,10,44.823933919270836,-73.16411946614583,-7.4225357052000005,-0.6245266986,-6.948756830400001,-7.2215386068,-0.6963113766,-6.4175502132,0.002443460944,-0.0070249502139999994,0.011301006866,0.028099800855999998,0.041844268665999995,-0.13164145835799998,-0.17226,-0.28362,0.27144,-0.36482,-0.25462,0.49126000000000003,-7.322037156,-0.6604190376,-6.6831535218,0.0152716309,0.017409659225999997,-0.06017022574599999,-0.26854,-0.26912,0.38135,2.82432,7.53152,-2.3536,0.9931458179126572,30.775
148,4839,0,-1031,-93,-961,23,-17,36,-297,-489,468,-1008,-90,-891,100,138,-441,-622,-446,838,32,224,48,29.16,0.9878411053540588,32.38,0.9984702689365902,4449.43603515625,-7309.84716796875,30.399999618530277,3.9714200496673584,0,0.0,0.0,0.0,0.0,-2.522878422402997,0.0,0.0,-0.2724806742387372,0.0,0.0,0.0,0.0,10,44.823933919270836,-73.16411946614583,-7.4010003018,-0.6675975054000001,-6.8985075558,-7.235895542400001,-0.646062102,-6.3960148098000005,0.0070249502139999994,-0.005192354505999999,0.010995574248,0.0305432618,0.042149701283999995,-0.134695784538,-0.17226,-0.28362,0.27144,-0.36076,-0.25868,0.48604,-7.318447922100001,-0.6568298037,-6.6472611828,0.018784106007,0.018478673388999996,-0.061850105144999994,-0.26651,-0.27115,0.37874,0.94144,6.59008,1.41216,0.9931556871453244,30.770000000000003
149,4855,0,-1027,-95,-962,8,-11,36,-297,-489,468,-1008,-94,-890,91,134,-420,-622,-446,838,96,240,-80,29.15,0.9877621514927214,32.38,0.998588699728596,4449.43603515625,-7309.84716796875,30.399999618530277,3.9592344760894775,0,0.0,0.0,0.0,0.0,-2.529714059145085,0.0,0.0,-0.2754537817726828,0.0,0.0,0.0,0.0,10,44.823933919270836,-73.16411946614583,-7.3722864306,-0.681954441,-6.9056860236,-7.235895542400001,-0.6747759732,-6.388836342,0.002443460944,-0.003359758798,0.010995574248,0.027794368237999998,0.040927970811999996,-0.12828169956,-0.17226,-0.28362,0.27144,-0.36076,-0.25868,0.48604,-7.3040909865,-0.6783652071,-6.6472611828,0.015118914591,0.018784106007,-0.05864306265599999,-0.26651,-0.27115,0.37874,2.82432,7.0608,-2.3536,0.9931754256106586,30.765
150,4870,0,-1030,-87,-963,17,-12,42,-297,-489,468,-1012,-93,-893,90,134,-420,-622,-446,838,32,208,-16,29.15,0.9877818899580556,32.39,0.9983518381445844,4449.43603515625,-7309.84716796875,30.399999618530277,3.963111639022827,0,0.0,0.0,0.0,0.0,-2.5049652149305426,0.0,0.0,-0.2442121688412289,0.0,0.0,0.0,0.0,10,44.823933919270836,-73.16411946614583,-7.393821834000001,-0.6245266986,-6.912864491400001,-7.264609413600001,-0.6675975054000001,-6.4103717454,0.005192354505999999,-0.003665191416,0.012828169956,0.02748893562,0.040927970811999996,-0.12828169956,-0.17226,-0.28362,0.27144,-0.36076,-0.25868,0.48604,-7.329215623800001,-0.646062102,-6.6616181184,0.016340645063,0.018631389697999996,-0.057726764801999994,-0.26651,-0.27115,0.37874,0.94144,6.11936,-0.47072,0.99306686405132,30.77
151,4885,0,-1031,-92,-959,11,-19,42,-297,-489,468,-1013,-93,-888,106,133,-438,-622,-446,838,16,336,-96,29.15,0.987673328398717,32.38,0.9984209227732544,4449.43603515625,-7309.84716796875,30.399999618530277,3.9606192111968994,0,0.0,0.0,0.0,0.0,-2.474898356442095,0.0,0.0,-0.2077247334336926,0.0,0.0,0.0,0.0,10,44.823933919270836,-73.16411946614583,-7.4010003018,-0.6604190376,-6.884150620200001,-7.2717878814,-0.6675975054000001,-6.3744794064,0.003359758798,-0.005803219742,0.012828169956,0.032375857508,0.040622538193999996,-0.133779486684,-0.17226,-0.28362,0.27144,-0.36076,-0.25868,0.48604,-7.3363940916,-0.6640082715,-6.6293150133,0.017867808152999997,0.017409659225999997,-0.060475658364,-0.26651,-0.27115,0.37874,0.47072,9.88512,-2.82432,0.9930471255859857,30.765
152,4901,0,-1032,-82,-959,9,-23,41,-307,-473,490,-1009,-93,-895,100,137,-432,-622,-446,838,96,240,48,29.15,0.9876634591660498,32.39,0.9984998766345916,4449.43603515625,-7309.84716796875,30.399999618530277,3.9592344760894775,0,0.0,0.0,0.0,0.0,-2.45531711511028,0.0,0.0,-0.1831721567059502,0.0,0.0,0.0,0.0,10,44.823933919270836,-73.16411946614583,-7.4081787696,-0.5886343596,-6.884150620200001,-7.2430740102,-0.6675975054000001,-6.424728681,0.002748893562,-0.0070249502139999994,0.012522737337999999,0.0305432618,0.041844268665999995,-0.131946890976,-0.17806,-0.27434000000000003,0.2842,-0.36076,-0.25868,0.48604,-7.3256263899,-0.6281159325000001,-6.6544396506000005,0.016646077680999998,0.017409659225999997,-0.059712076818999996,-0.26941000000000004,-0.26651,0.38512,2.82432,7.0608,1.41216,0.9930816679003207,30.77
153,4916,0,-1030,-91,-961,11,-26,38,-307,-473,490,-1007,-95,-895,86,139,-429,-622,-446,838,64,288,-80,29.15,0.9878213668887244,32.38,0.9984307920059216,4449.43603515625,-7309.84716796875,30.399999618530277,3.962557792663574,0,0.0,0.0,0.0,0.0,-2.4488908119325727,0.0,0.0,-0.1732483159539984,0.0,0.0,0.0,0.0,10,44.823933919270836,-73.16411946614583,-7.393821834000001,-0.6532405698,-6.8985075558,-7.2287170746000005,-0.681954441,-6.424728681,0.003359758798,-0.007941248068,0.011606439484,0.026267205148,0.042455133901999995,-0.131030593122,-0.17806,-0.27434000000000003,0.2842,-0.36076,-0.25868,0.48604,-7.3112694543000005,-0.6675975054000001,-6.6616181184,0.014813481973,0.017256942916999998,-0.059712076818999996,-0.26941000000000004,-0.26651,0.38512,1.88288,8.47296,-2.3536,0.9931260794473229,30.765
154,4932,0,-1027,-91,-957,9,-26,37,-307,-473,490,-1013,-92,-892,100,133,-425,-622,-446,838,160,192,-48,29.15,0.9877128053293855,32.38,0.9984801381692572,4449.43603515625,-7309.84716796875,30.399999618530277,3.962003946304321,0,0.0,0.0,0.0,0.0,-2.4339773869671912,0.0,0.0,-0.1543045669440885,0.0,0.0,0.0,0.0,10,44.823933919270836,-73.16411946614583,-7.3722864306,-0.6532405698,-6.8697936846,-7.2717878814,-0.6604190376,-6.403193277600001,0.002748893562,-0.007941248068,0.011301006866,0.0305432618,0.040622538193999996,-0.12980886265,-0.17806,-0.27434000000000003,0.2842,-0.36076,-0.25868,0.48604,-7.322037156,-0.6568298037,-6.6364934811000005,0.016646077680999998,0.016340645063,-0.059253927892,-0.26941000000000004,-0.26651,0.38512,4.7072,5.64864,-1.41216,0.9930964717493214,30.765
155,4947,0,-1034,-91,-963,17,-22,35,-307,-473,490,-1004,-94,-889,97,126,-424,-622,-446,838,64,160,-112,29.16,0.9877917591907228,32.38,0.9983617073772514,4449.43603515625,-7309.84716796875,30.399999618530277,3.970312356948853,0,0.0,0.0,0.0,0.0,-2.413589236495642,0.0,0.0,-0.129745925237002,0.0,0.0,0.0,0.0,10,44.823933919270836,-73.16411946614583,-7.4225357052000005,-0.6532405698,-6.912864491400001,-7.2071816712,-0.6747759732,-6.3816578742,0.005192354505999999,-0.006719517596,0.010690141629999999,0.029626963946,0.038484509868,-0.129503430032,-0.17806,-0.27434000000000003,0.2842,-0.36076,-0.25868,0.48604,-7.3148586882,-0.6640082715,-6.6472611828,0.017409659226,0.015882496136,-0.059406644200999996,-0.26941000000000004,-0.26651,0.38512,1.88288,4.7072,-3.29504,0.9930767332839872,30.770000000000003
156,4962,0,-1033,-85,-960,7,-21,38,-307,-473,490,-1010,-89,-895,101,131,-454,-622,-446,838,208,208,-144,29.15,0.987673328398717,32.38,0.9985294843325933,4449.43603515625,-7309.84716796875,30.399999618530277,3.954803228378296,0,0.0,0.0,0.0,0.0,-2.400675315553029,0.0,0.0,-0.1136710175038589,0.0,0.0,0.0,0.0,10,44.823933919270836,-73.16411946614583,-7.4153572374,-0.610169763,-6.891329088,-7.250252478,-0.6388836342,-6.424728681,0.0021380283259999997,-0.006414084978,0.011606439484,0.030848694418,0.040011672958,-0.138666408572,-0.17806,-0.27434000000000003,0.2842,-0.36076,-0.25868,0.48604,-7.3328048577,-0.6245266986,-6.6580288845,0.016493361372,0.016798793989999998,-0.063529984544,-0.26941000000000004,-0.26651,0.38512,6.11936,6.11936,-4.23648,0.9931014063656551,30.765
157,4978,0,-1030,-87,-956,20,-14,42,-307,-473,490,-1010,-96,-892,103,147,-444,-622,-446,838,96,224,-48,29.15,0.9876239822353812,32.38,0.9984801381692572,4449.43603515625,-7309.84716796875,30.399999618530277,3.970312356948853,0,0.0,0.0,0.0,0.0,-2.3736974069622425,0.0,0.0,-0.082643241548403,0.0,0.0,0.0,0.0,10,44.823933919270836,-73.16411946614583,-7.393821834000001,-0.6245266986,-6.8626152168,-7.250252478,-0.6891329088,-6.403193277600001,0.0061086523599999994,-0.004276056651999999,0.012828169956,0.031459559654,0.044898594846,-0.13561208239199998,-0.17806,-0.27434000000000003,0.2842,-0.36076,-0.25868,0.48604,-7.322037156,-0.6568298037,-6.632904247200001,0.018784106007,0.020311269096999998,-0.06139195621799999,-0.26941000000000004,-0.26651,0.38512,2.82432,6.59008,-1.41216,0.9930520602023192,30.765
158,4993,0,-1028,-94,-962,5,-25,36,-307,-473,490,-1016,-90,-891,90,143,-440,-622,-446,838,96,288,-128,29.14,0.9877029360967184,32.39,0.9985985689612632,4449.43603515625,-7309.84716796875,30.399999618530277,3.9572958946228023,0,0.0,0.0,0.0,0.0,-2.3757303671948007,0.0,0.0,-0.0835014055241142,0.0,0.0,0.0,0.0,10,44.823933919270836,-73.16411946614583,-7.3794648984,-0.6747759732,-6.9056860236,-7.2933232848000005,-0.646062102,-6.3960148098000005,0.0015271630899999999,-0.00763581545,0.010995574248,0.02748893562,0.043676864374,-0.13439035191999998,-0.17806,-0.27434000000000003,0.2842,-0.36076,-0.25868,0.48604,-7.336394091600001,-0.6604190376000001,-6.650850416700001,0.014508049354999998,0.018020524462,-0.06169738883599999,-0.26941000000000004,-0.26651,0.38512,2.82432,8.47296,-3.76576,0.9931507525289909,30.765
159,5009,0,-1032,-87,-959,6,-24,40,-307,-473,490,-1009,-94,-889,99,134,-417,-622,-446,838,-16,304,-32,29.15,0.9878805822847274,32.39,0.9983814458425856,4449.43603515625,-7309.84716796875,30.399999618530277,3.962003946304321,0,0.0,0.0,0.0,0.0,-2.37199851161448,0.0,0.0,-0.0781095614575414,0.0,0.0,0.0,0.0,10,44.823933919270836,-73.16411946614583,-7.4081787696,-0.6245266986,-6.884150620200001,-7.2430740102,-0.6747759732,-6.3816578742,0.001832595708,-0.007330382832,0.012217304719999999,0.030237829182,0.040927970811999996,-0.127365401706,-0.17806,-0.27434000000000003,0.2842,-0.36076,-0.25868,0.48604,-7.3256263899,-0.6496513359,-6.632904247200001,0.016035212445,0.016798793989999998,-0.057574048493,-0.26941000000000004,-0.26651,0.38512,-0.47072,8.94368,-0.94144,0.9931310140636564,30.77
160,5024,0,-1032,-90,-961,24,-15,37,-307,-473,490,-1013,-92,-896,90,139,-419,-622,-446,838,224,256,-176,29.16,0.987683197631384,32.38,0.9984307920059216,4449.43603515625,-7309.84716796875,30.399999618530277,3.966989040374756,0,0.0,0.0,0.0,0.0,-2.346909530018929,0.0,0.0,-0.0497021587364473,0.0,0.0,0.0,0.0,10,44.823933919270836,-73.16411946614583,-7.4081787696,-0.646062102,-6.8985075558,-7.2717878814,-0.6604190376,-6.431907148800001,0.007330382832,-0.00458148927,0.011301006866,0.02748893562,0.042455133901999995,-0.12797626694199998,-0.17806,-0.27434000000000003,0.2842,-0.36076,-0.25868,0.48604,-7.3399833255,-0.6532405698,-6.6652073523,0.017409659225999997,0.018936822315999996,-0.058337630037999993,-0.26941000000000004,-0.26651,0.38512,6.59008,7.53152,-5.17792,0.9930569948186527,30.770000000000003
