timestampMs	pressurePa	tempK	accelX	accelY	accelZ	gyroX	gyroY	gyroZ	imuTemp	battV	altitudeM	velocityMS	accelerationMSS	unfiltAlt	flightState	drogueCont	drogueFired	mainCont	mainFired
5115	100703.703125	302.29	-9.801861	0.483628	0.397437	0.000000	0.006385	0.012770	300.98	4.03	0.99	-0.51	0.00	54.361259	0	0	0	0	0
10115	100679.187500	302.35	-9.801861	0.474051	0.435744	-0.011706	0.004256	0.011706	300.94	4.05	1.91	0.03	-0.00	56.511856	0	0	0	0	0
15115	100658.265625	302.43	-9.811438	0.488417	0.411802	0.002128	0.003192	0.015963	300.95	4.02	1.26	1.15	0.00	58.394187	0	0	0	0	0
20115	100676.125000	302.51	-9.797073	0.445321	0.411802	-0.015963	0.002128	0.009578	301.07	4.03	1.12	0.11	0.00	56.825942	0	0	0	0	0
25115	100713.406250	302.60	-9.801861	0.292092	0.454898	-0.011706	0.005321	0.010642	301.15	4.03	-2.05	-1.65	0.00	53.552978	0	0	0	0	0
30115	100673.046875	302.68	-9.801861	0.555454	0.263362	-0.006385	0.005321	0.007449	301.16	4.03	0.52	0.99	-0.00	57.096218	0	0	0	0	0
35115	100667.875000	302.74	-9.811438	0.469263	0.402225	-0.010642	0.005321	0.009578	301.30	4.03	0.31	0.35	0.00	57.550354	0	0	0	0	0
40115	100685.734375	302.82	-9.797073	0.464475	0.349553	-0.007449	0.008513	0.005321	301.38	4.03	-0.07	-0.47	0.00	55.982231	0	0	0	0	0
45115	100661.187500	302.89	-9.806650	0.521935	0.397437	-0.014899	0.002128	0.015963	301.36	4.03	0.62	0.64	-0.00	58.137599	0	0	0	0	0
50115	100675.484375	302.95	-9.806650	0.483628	0.330399	-0.005321	0.010642	0.006385	301.47	4.03	0.64	0.47	-0.00	56.882194	0	0	0	0	0
55115	100673.906250	303.03	-9.806650	0.584185	0.469263	-0.003192	0.004256	0.006385	301.57	4.02	0.31	0.02	-0.00	57.020759	0	0	0	0	0
60115	100665.156250	303.08	-9.811438	0.316034	0.416591	-0.013834	0.007449	0.017027	301.57	4.03	0.97	0.55	0.00	57.789089	0	0	0	0	0
65115	100675.875000	303.13	-9.782708	0.445321	0.426167	-0.025541	0.006385	0.008513	301.66	4.03	0.17	0.02	-0.00	56.847892	0	0	0	0	0
70115	100670.703125	303.20	-9.811438	0.541089	0.493205	-0.009578	0.008513	0.011706	301.74	4.03	0.44	-0.39	0.00	57.302017	0	0	0	0	0
75115	100665.531250	303.26	-9.806650	0.502782	0.373495	-0.015963	0.007449	0.006385	301.74	4.02	1.31	1.04	-0.00	57.756160	0	0	0	0	0
80115	100656.781250	303.31	-9.811438	0.541089	0.421379	-0.011706	0.008513	0.008513	301.83	4.03	1.66	0.54	-0.00	58.524539	0	0	0	0	0
85115	100667.484375	303.36	-9.811438	0.335188	0.450109	-0.014899	0.007449	0.012770	301.81	4.03	0.69	-0.27	0.00	57.584655	0	0	0	0	0
90115	100674.609375	303.39	-9.811438	0.435744	0.411802	-0.008513	0.006385	0.012770	301.84	4.02	0.67	-0.10	0.00	56.959022	0	0	0	0	0
95115	100665.859375	303.44	-9.801861	0.397437	0.397437	-0.010642	0.006385	0.009578	301.87	4.05	0.63	-0.56	0.00	57.727348	0	0	0	0	0
100115	100676.562500	303.49	-9.811438	0.354341	0.421379	0.007449	0.006385	0.009578	302.01	4.02	0.52	-0.52	0.00	56.787528	0	0	0	0	0
105115	100664.250000	303.52	-9.811438	0.426167	0.354341	-0.014899	0.007449	0.007449	302.02	4.03	-0.39	-0.00	0.00	58.084396	0	0	0	0	0
110115	100671.375000	303.55	-9.801861	0.363918	0.397437	-0.008513	0.005321	0.008513	302.12	4.02	-0.68	-0.32	0.00	57.456417	0	0	0	0	0
115115	100659.046875	303.59	-9.806650	0.507570	0.517147	-0.020220	0.006385	0.009578	302.10	4.02	-0.79	-0.53	0.00	58.543010	0	0	0	0	0
120115	100669.750000	303.64	-9.825803	0.464475	0.478840	-0.012770	0.003192	0.014899	302.12	4.02	-0.24	-0.18	-0.00	57.599636	0	0	0	0	0
125115	100657.406250	303.67	-9.811438	0.483628	0.407014	0.001064	0.007449	0.010642	302.13	4.03	-0.11	-0.21	0.00	58.687622	0	0	0	0	0
130115	100645.093750	303.70	-9.844957	0.430956	0.402225	0.001064	0.005321	0.012770	302.15	4.03	-0.22	-0.15	0.00	59.772960	0	0	0	0	0
135115	100652.218750	303.73	-9.801861	0.541089	0.507570	-0.017027	0.003192	0.014899	302.19	4.02	0.35	0.95	0.00	59.144882	0	0	0	0	0
140115	100675.218750	303.75	-9.806650	0.521935	0.454898	-0.029798	0.009578	0.002128	302.21	4.03	-0.64	0.14	-0.00	57.117652	0	0	0	0	0
145115	100662.875000	303.78	-9.787496	0.215478	0.603338	0.000000	0.004256	0.006385	302.24	4.03	-0.62	0.37	0.00	58.205589	0	0	0	0	0
150115	100647.000000	303.80	-9.816226	0.493205	0.392649	-0.005321	0.004256	0.008513	302.28	4.03	0.18	0.02	0.00	59.604919	0	0	0	0	0
155115	100673.578125	303.83	-9.763554	0.450109	0.335188	-0.005321	0.009578	0.009578	302.30	4.03	-0.94	-0.22	-0.01	57.262245	0	0	0	0	0
160115	100657.671875	303.85	-9.821015	0.541089	0.402225	-0.005321	0.006385	0.012770	302.36	4.03	-0.43	-0.14	0.00	58.664207	0	0	0	0	0
165115	100661.234375	303.86	-9.821015	0.502782	0.383072	-0.006385	0.005321	0.010642	302.40	4.03	0.44	0.94	0.00	58.350196	0	0	0	0	0
170115	100645.328125	303.88	-9.801861	0.301669	0.349553	0.003192	0.010642	0.012770	302.34	4.03	-0.17	-0.08	0.00	59.752296	0	0	0	0	0
175115	100652.468750	303.91	-9.801861	0.248996	0.454898	-0.013834	0.011706	0.004256	302.39	4.03	0.64	0.83	0.00	59.122844	0	0	0	0	0
180115	100659.578125	303.94	-9.801861	0.541089	0.407014	-0.005321	0.004256	0.019156	302.39	4.03	0.18	0.75	0.00	58.496181	0	0	0	0	0
185115	100659.578125	303.94	-9.806650	0.474051	0.502782	-0.004256	0.007449	0.007449	302.39	4.02	-1.49	-0.70	0.00	58.496181	0	0	0	0	0
190115	100663.125000	303.96	-9.792284	0.316034	0.407014	0.009578	0.008513	0.008513	302.46	4.02	-1.07	-0.18	-0.00	58.183555	0	0	0	0	0
195115	100650.812500	303.99	-9.816226	0.407014	0.440533	-0.006385	0.009578	0.002128	302.43	4.03	-0.36	0.63	-0.00	59.268840	0	0	0	0	0
200115	100670.281250	303.99	-9.782708	0.464475	0.373495	-0.015963	0.007449	0.011706	302.51	4.03	-0.96	-0.39	0.00	57.552814	0	0	0	0	0
205115	100673.828125	304.01	-9.816226	0.258573	0.440533	-0.002128	-0.002128	0.019156	302.54	4.02	-1.31	-0.37	0.00	57.240211	0	0	0	0	0
210115	100654.359375	304.01	-9.816226	0.402225	0.430956	-0.029798	0.005321	0.011706	302.51	4.02	0.03	0.92	0.00	58.956192	0	0	0	0	0
215115	100677.390625	304.03	-9.811438	0.545877	0.478840	-0.011706	0.002128	0.019156	302.52	4.03	-1.31	-0.41	0.00	56.926242	0	0	0	0	0
220115	100680.937500	304.04	-9.811438	0.430956	0.483628	0.028734	0.006385	0.009578	302.54	4.02	-1.76	-0.77	0.01	56.613658	0	0	0	0	0
225115	100642.000000	304.04	-9.816226	0.402225	0.320823	-0.009578	0.002128	0.005321	302.57	4.02	0.23	0.91	0.00	60.045688	0	0	0	0	0
230115	100665.015625	304.06	-9.797073	0.459686	0.383072	-0.006385	0.006385	0.009578	302.60	4.03	-0.70	-0.69	0.00	58.016914	0	0	0	0	0
235115	100665.015625	304.06	-9.811438	0.464475	0.383072	-0.003192	0.005321	0.011706	302.52	4.03	-0.33	-0.81	0.00	58.016914	0	0	0	0	0
240115	100668.609375	304.07	-9.806650	0.565031	0.407014	-0.012770	0.003192	0.005321	302.52	4.02	-0.65	-0.03	0.00	57.700168	0	0	0	0	0
245115	100649.140625	304.07	-9.825803	0.474051	0.373495	0.003192	0.005321	0.015963	302.58	4.03	-0.23	-0.01	0.00	59.416217	0	0	0	0	0
250115	100668.609375	304.07	-9.792284	0.521935	0.407014	-0.002128	0.003192	0.010642	302.57	4.03	-1.31	-1.11	0.00	57.700168	0	0	0	0	0
255115	100652.703125	304.09	-9.816226	0.450109	0.359130	-0.008513	0.007449	0.005321	302.49	4.02	-0.02	0.36	0.00	59.102184	0	0	0	0	0
260115	100675.718750	304.11	-9.801861	0.545877	0.416591	-0.013834	0.007449	0.010642	302.60	4.02	-1.05	-0.70	0.00	57.073585	0	0	0	0	0
265115	100656.250000	304.11	-9.816226	0.316034	0.387860	-0.020220	0.009578	-0.001064	302.57	4.03	-0.00	0.12	0.00	58.789539	0	0	0	0	0
270115	100672.171875	304.09	-9.825803	0.651222	0.497993	0.003192	0.004256	0.024477	302.63	4.02	-1.17	-0.22	0.00	57.386184	0	0	0	0	0
275115	100656.250000	304.11	-9.825803	0.531512	0.421379	-0.001064	0.012770	0.002128	302.58	4.02	-0.79	0.10	0.00	58.789539	0	0	0	0	0
280115	100659.796875	304.12	-9.806650	0.378283	0.392649	-0.004256	0.003192	0.011706	302.61	4.02	0.00	0.32	0.00	58.476902	0	0	0	0	0
285115	100659.796875	304.12	-9.821015	0.493205	0.426167	-0.006385	0.004256	0.006385	302.60	4.02	-0.66	0.47	0.00	58.476902	0	0	0	0	0
290115	100659.796875	304.12	-9.801861	0.416591	0.407014	-0.014899	0.005321	0.008513	302.57	4.02	-0.88	-0.15	0.00	58.476902	0	0	0	0	0
295115	100679.281250	304.12	-9.830592	0.445321	0.373495	-0.018091	0.005321	0.010642	302.57	4.02	-1.14	-0.89	0.00	56.759620	0	0	0	0	0
300115	100659.796875	304.12	-9.816226	0.502782	0.359130	-0.008513	0.007449	0.010642	302.57	4.02	-0.18	0.21	0.00	58.476902	0	0	0	0	0
305115	100663.359375	304.14	-9.816226	0.459686	0.416591	0.001064	0.006385	0.018091	302.60	4.03	-0.43	-0.18	0.00	58.162895	0	0	0	0	0
310115	100643.875000	304.14	-9.797073	0.363918	0.407014	-0.004256	0.006385	0.015963	302.58	4.02	-0.18	0.24	-0.00	59.880397	0	0	0	0	0
315115	100643.875000	304.14	-9.811438	0.450109	0.407014	-0.005321	0.007449	0.006385	302.66	4.02	0.07	0.37	0.00	59.880397	0	0	0	0	0
320115	100647.453125	304.16	-9.801861	0.541089	0.363918	-0.007449	0.005321	0.009578	302.58	4.02	-0.23	0.16	-0.00	59.564971	0	0	0	0	0
325115	100666.921875	304.16	-9.821015	0.565031	0.383072	-0.014899	0.006385	0.005321	302.57	4.02	-0.68	-0.06	0.00	57.848899	0	0	0	0	0
330115	100627.968750	304.16	-9.801861	0.430956	0.526724	-0.009578	0.006385	0.011706	302.64	4.02	0.92	1.53	-0.00	61.282695	0	0	0	0	0
335115	100670.500000	304.17	-9.825803	0.584185	0.421379	0.008513	0.006385	0.010642	302.61	4.02	-1.28	0.31	0.00	57.533535	0	0	0	0	0
340115	100670.500000	304.17	-9.797073	0.612915	0.359130	-0.014899	0.008513	0.010642	302.66	4.03	-1.40	-0.10	0.00	57.533535	0	0	0	0	0
345115	100689.968750	304.17	-9.811438	0.392649	0.397437	-0.021284	0.001064	0.010642	302.60	4.02	-2.13	-0.83	0.00	55.817779	0	0	0	0	0
350115	100670.500000	304.17	-9.835380	0.474051	0.349553	-0.011706	0.002128	0.010642	302.63	4.02	1.17	0.20	0.00	57.661922	0	0	0	0	0
355115	100670.500000	304.17	-9.797073	0.416591	0.421379	-0.005321	0.004256	0.014899	302.61	4.03	1.01	-0.15	0.00	57.661922	0	0	0	0	0
360115	100674.046875	304.19	-9.806650	0.402225	0.402225	-0.004256	0.004256	0.018091	302.64	4.02	1.21	-0.17	0.00	57.348625	0	0	0	0	0
365115	100651.031250	304.17	-9.806650	0.402225	0.339976	0.003192	0.006385	0.020220	302.66	4.03	1.53	0.29	0.00	59.381778	0	0	0	0	0
370115	100670.500000	304.17	-9.816226	0.450109	0.402225	-0.003192	0.004256	0.007449	302.64	4.02	1.22	-0.29	0.00	57.661922	0	0	0	0	0
375115	100693.531250	304.19	-9.806650	0.497993	0.387860	0.000000	0.004256	0.015963	302.63	4.02	0.88	-0.46	0.00	55.627708	0	0	0	0	0
380115	100670.500000	304.17	-9.825803	0.517147	0.383072	-0.011706	0.001064	0.018091	302.61	4.03	1.38	0.08	0.00	57.661922	0	0	0	0	0
385115	100651.031250	304.17	-9.801861	0.474051	0.411802	-0.009578	0.005321	0.007449	302.69	4.03	1.43	0.11	0.00	59.381778	0	0	0	0	0
390115	100651.031250	304.17	-9.787496	0.435744	0.325611	0.000000	0.004256	0.009578	302.63	4.02	1.29	0.26	0.00	59.381778	0	0	0	0	0
395115	100654.578125	304.19	-9.806650	0.565031	0.402225	-0.011706	0.006385	0.011706	302.61	4.02	1.32	-0.40	0.00	59.068431	0	0	0	0	0
400115	100651.031250	304.17	-9.811438	0.402225	0.359130	-0.008513	0.006385	0.010642	302.64	4.03	1.85	0.09	0.00	59.381778	0	0	0	0	0
405115	100654.578125	304.19	-9.811438	0.550666	0.416591	-0.013834	0.003192	0.009578	302.63	4.02	0.45	0.74	0.00	59.069572	0	0	0	0	0
410115	100651.031250	304.17	-9.816226	0.421379	0.435744	-0.010642	0.004256	0.010642	302.64	4.02	-0.20	0.04	0.00	59.382926	0	0	0	0	0
415115	100670.500000	304.17	-9.821015	0.363918	0.320823	-0.005321	0.008513	0.021284	302.66	4.03	-0.87	-0.13	0.00	57.663040	0	0	0	0	0
420115	100674.046875	304.19	-9.806650	0.454898	0.416591	-0.007449	0.008513	0.007449	302.60	4.02	-0.30	0.44	0.00	57.349735	0	0	0	0	0
425115	100674.046875	304.19	-9.811438	0.459686	0.440533	-0.006385	0.004256	0.009578	302.66	4.03	-0.43	0.19	0.00	57.349735	0	0	0	0	0
430115	100670.500000	304.17	-9.806650	0.588973	0.407014	-0.012770	0.004256	0.024477	302.63	4.02	-1.10	-0.26	0.00	57.663040	0	0	0	0	0
435115	100651.031250	304.17	-9.821015	0.469263	0.335188	0.006385	0.005321	0.008513	302.60	4.02	-0.75	0.38	0.00	59.382926	0	0	0	0	0
440115	100670.500000	304.17	-9.811438	0.320823	0.426167	-0.017027	0.006385	0.010642	302.66	4.02	-1.10	-0.30	0.00	57.663040	0	0	0	0	0
445115	100651.031250	304.17	-9.811438	0.526724	0.416591	-0.008513	0.004256	0.013834	302.67	4.02	-0.13	0.16	0.00	59.382926	0	0	0	0	0
450115	100670.500000	304.17	-9.825803	0.574608	0.407014	-0.006385	0.009578	0.010642	302.66	4.01	-0.36	0.64	0.00	57.663040	0	0	0	0	0
455115	100689.968750	304.17	-9.801861	0.316034	0.373495	-0.005321	0.006385	0.017027	302.69	4.03	-1.87	-0.73	0.00	55.943420	0	0	0	0	0
460115	100670.500000	304.17	-9.816226	0.493205	0.402225	0.000000	0.004256	0.012770	302.66	4.03	-1.81	-0.46	0.00	57.663040	0	0	0	0	0
465115	100670.500000	304.17	-9.816226	0.402225	0.397437	-0.006385	0.005321	0.009578	302.63	4.02	-1.09	-0.34	0.00	57.663040	0	0	0	0	0
470115	100651.031250	304.17	-9.816226	0.574608	0.397437	-0.011706	0.004256	0.011706	302.63	4.02	0.31	0.57	0.00	59.382926	0	0	0	0	0
475115	100670.500000	304.17	-9.811438	0.497993	0.430956	-0.012770	0.006385	0.002128	302.64	4.03	-0.66	-0.70	0.00	57.663040	0	0	0	0	0
480115	100651.031250	304.17	-9.816226	0.464475	0.359130	-0.005321	0.006385	0.012770	302.64	4.02	0.02	0.25	0.00	59.382926	0	0	0	0	0
485115	100670.500000	304.17	-9.801861	0.565031	0.368707	-0.004256	0.005321	0.013834	302.64	4.02	-1.16	-0.49	0.00	57.663040	0	0	0	0	0
490115	100670.500000	304.17	-9.797073	0.426167	0.435744	-0.010642	0.006385	0.011706	302.67	4.02	-0.02	-0.37	0.00	57.663040	0	0	0	0	0
495115	100651.031250	304.17	-9.797073	0.502782	0.392649	-0.007449	0.006385	0.008513	302.66	4.02	1.15	0.63	0.00	59.382926	0	0	0	0	0
500115	100670.500000	304.17	-9.806650	0.459686	0.387860	-0.006385	0.005321	0.012770	302.66	4.03	-0.27	-0.73	0.00	57.663040	0	0	0	0	0
505115	100651.031250	304.17	-9.811438	0.474051	0.392649	-0.009578	0.004256	0.012770	302.63	4.02	0.36	-0.13	0.00	59.382926	0	0	0	0	0
510115	100651.031250	304.17	-9.806650	0.545877	0.383072	0.002128	0.005321	0.007449	302.66	4.01	0.36	0.50	0.00	59.382926	0	0	0	0	0
515115	100670.500000	304.17	-9.816226	0.588973	0.392649	-0.002128	0.005321	0.017027	302.66	4.02	-0.76	-0.48	0.00	57.663040	0	0	0	0	0
520115	100670.500000	304.17	-9.801861	0.325611	0.430956	-0.011706	0.004256	0.006385	302.63	4.02	-0.45	-0.08	0.00	57.663040	0	0	0	0	0
525115	100647.453125	304.16	-9.811438	0.488417	0.392649	-0.005321	0.003192	0.009578	302.69	4.02	0.97	0.79	0.00	59.699054	0	0	0	0	0
530115	100670.500000	304.17	-9.801861	0.450109	0.397437	-0.005321	0.003192	0.010642	302.69	4.02	-0.21	-0.31	0.00	57.663040	0	0	0	0	0
535115	100670.500000	304.17	-9.801861	0.478840	0.402225	-0.006385	0.004256	0.011706	302.69	4.02	-0.72	-1.05	0.00	57.663040	0	0	0	0	0
540115	100651.031250	304.17	-9.816226	0.550666	0.339976	0.000000	0.008513	0.001064	302.60	4.02	0.30	0.16	0.00	59.382926	0	0	0	0	0
545115	100651.031250	304.17	-9.816226	0.474051	0.344765	-0.011706	0.004256	0.012770	302.69	4.02	0.45	0.10	0.00	59.382926	0	0	0	0	0
550115	100670.500000	304.17	-9.816226	0.397437	0.426167	-0.008513	0.006385	0.009578	302.66	4.02	0.11	-0.82	0.00	57.663040	0	0	0	0	0
555115	100631.546875	304.17	-9.806650	0.392649	0.402225	-0.004256	0.006385	0.013834	302.66	4.02	1.11	0.88	0.00	61.104465	0	0	0	0	0
560115	100631.546875	304.17	-9.806650	0.531512	0.383072	-0.006385	0.007449	0.010642	302.66	4.02	0.84	0.15	0.00	61.104465	0	0	0	0	0
565115	100651.031250	304.17	-9.801861	0.435744	0.407014	-0.010642	0.003192	0.008513	302.66	4.02	0.48	-0.59	0.00	59.382926	0	0	0	0	0
566865	100534.171875	304.17	-147.607315	5.051765	22.673089	1.219602	0.063853	-0.014899	302.69	4.02	3.64	21.28	109.22	69.712059	1	0	0	0	0
566875	100573.125000	304.17	-148.837936	3.869029	21.566968	1.278134	0.179854	-0.002128	302.70	4.01	4.72	23.45	112.05	66.267936	1	0	0	0	0
566885	100514.703125	304.17	-148.584152	-7.292738	14.235922	0.681104	0.070238	0.027669	302.72	4.01	6.84	26.62	114.58	71.433837	1	0	0	0	0
566895	100612.078125	304.17	-149.556198	11.051634	1.345541	0.444846	0.400148	0.037247	302.67	4.01	6.31	27.19	116.98	62.824893	1	0	0	0	0
566905	100612.078125	304.17	-150.418106	-10.903194	-3.045424	0.877985	0.096844	0.042569	302.61	4.02	5.92	27.91	119.22	62.824893	1	0	0	0	0
566915	100553.656250	304.17	-150.825134	-2.035071	-12.038045	0.758792	-0.158569	0.037247	302.69	4.01	6.92	29.97	121.29	67.989173	1	0	0	0	0
566925	100553.656250	304.17	-150.336715	5.425261	1.010353	0.956738	-0.148991	0.062789	302.60	4.01	7.69	31.79	123.12	67.989173	1	0	0	0	0
566935	100592.593750	304.17	-150.212219	-3.404554	19.680337	0.829031	-0.067046	0.050018	302.64	4.01	7.42	32.59	124.76	64.546974	1	0	0	0	0
566945	100576.671875	304.19	-151.035812	-5.185840	10.721235	0.799233	-0.090459	0.043633	302.64	4.01	7.58	33.81	126.33	65.954383	1	0	0	0	0
566955	100573.125000	304.17	-150.001525	6.373364	-0.670376	0.800297	0.006385	0.036183	302.64	4.01	7.79	35.05	127.65	66.267936	1	0	0	0	0
566965	100553.656250	304.17	-149.259323	-0.440533	3.653551	0.770499	-0.041504	0.040440	302.66	4.01	8.39	36.66	128.77	67.989173	1	0	0	0	0
566975	100553.656250	304.17	-149.225799	-4.759673	0.612915	0.777948	-0.045761	0.027669	302.69	4.01	8.85	38.12	129.78	67.989173	1	0	0	0	0
566985	100573.125000	304.17	-149.867446	2.906560	-2.892195	0.750278	-0.102165	0.020220	302.63	4.01	8.78	39.06	130.76	66.267936	1	0	0	0	0
566995	100553.656250	304.17	-152.074905	1.335964	-0.272938	0.698131	-0.098972	0.024477	302.61	4.02	9.16	40.44	131.85	67.989173	1	0	0	0	0
567005	100553.656250	304.17	-147.027923	-4.319139	-0.359130	0.665140	-0.137285	0.012770	302.66	4.02	9.46	41.70	132.36	67.989173	1	0	0	0	0
567015	100553.656250	304.17	-151.509872	0.967257	-3.375824	0.633213	-0.212845	0.006385	302.67	4.02	9.70	42.91	133.25	67.989173	1	0	0	0	0
567025	100573.125000	304.17	-150.231369	1.489193	-4.103661	0.616186	-0.140477	-0.003192	302.67	4.02	9.45	43.65	133.93	66.267936	1	0	0	0	0
567035	100573.125000	304.17	-149.297622	-4.041412	-1.168370	0.603415	-0.222423	-0.011706	302.64	4.02	9.28	44.43	134.46	66.267936	1	0	0	0	0
567045	100553.656250	304.17	-148.354309	-0.134075	-2.121262	0.582131	-0.242643	-0.015963	302.67	4.02	9.58	45.67	134.85	67.989173	1	0	0	0	0
567055	100553.656250	304.17	-147.741394	1.192312	-1.695094	0.560846	-0.225615	-0.020220	302.63	4.02	9.82	46.82	135.15	67.989173	1	0	0	0	0
567065	100553.656250	304.17	-147.449310	-3.696647	1.331176	0.564039	-0.278826	-0.026605	302.67	4.02	10.01	47.92	135.38	67.989173	1	0	0	0	0
567075	100534.171875	304.17	-147.339172	-0.967257	0.205901	0.553397	-0.261799	-0.038312	302.67	4.02	10.59	49.38	135.59	69.712059	1	0	0	0	0
567085	100573.125000	304.17	-147.530700	1.206677	-0.928950	0.525727	-0.270313	-0.043633	302.63	4.02	10.18	49.87	135.79	66.267936	1	0	0	0	0
567095	100550.078125	304.16	-147.109329	-3.045424	1.738190	0.507635	-0.263927	-0.051082	302.66	4.02	10.38	50.94	135.94	68.305549	1	0	0	0	0
567105	100553.656250	304.17	-147.272125	-1.699883	0.402225	0.494864	-0.272441	-0.068110	302.67	4.02	10.46	51.89	136.08	67.989173	1	0	0	0	0
567115	100553.656250	304.17	-146.917785	0.962469	-0.296881	0.460809	-0.289469	-0.076624	302.63	4.02	10.53	52.82	136.18	67.989173	1	0	0	0	0
567125	100534.171875	304.17	-146.769348	-2.226607	1.393425	0.433139	-0.258606	-0.088330	302.61	4.02	11.02	54.14	136.26	69.712059	1	0	0	0	0
567135	100534.171875	304.17	-146.874694	-1.642422	0.076614	0.411855	-0.288405	-0.101101	302.60	4.02	11.39	55.34	136.33	69.712059	1	0	0	0	0
567145	100534.171875	304.17	-147.085388	1.010353	-0.076614	0.385249	-0.285212	-0.109615	302.60	4.02	11.69	56.45	136.42	69.712059	1	0	0	0	0
567155	100534.171875	304.17	-146.893844	-1.795651	0.181959	0.346937	-0.264992	-0.118128	302.67	4.02	11.91	57.49	136.49	69.712059	1	0	0	0	0
567165	100534.171875	304.17	-146.994400	-1.489193	-0.177170	0.319267	-0.301175	-0.124514	302.67	4.02	12.09	58.47	136.56	69.712059	1	0	0	0	0
567175	100495.234375	304.17	-146.664001	0.871489	-0.732625	0.294790	-0.271377	-0.133028	302.60	4.03	13.09	60.23	136.58	73.155883	1	0	0	0	0
567185	100530.609375	304.16	-146.807662	-1.675941	-0.833182	0.251157	-0.282019	-0.142606	302.66	4.01	13.08	61.00	136.62	70.027099	1	0	0	0	0
567195	100514.703125	304.17	-146.759780	-1.599326	-0.536301	0.213909	-0.293726	-0.153248	302.61	4.02	13.42	62.10	136.66	71.433837	1	0	0	0	0
567205	100514.703125	304.17	-146.477264	0.359130	-1.996764	0.181982	-0.268184	-0.166019	302.64	4.03	13.69	63.12	136.66	71.433837	1	0	0	0	0
567215	100511.125000	304.16	-146.616119	-1.604115	-1.757344	0.143670	-0.288405	-0.174532	302.67	4.00	13.98	64.14	136.67	71.750312	1	0	0	0	0
567225	100534.171875	304.17	-146.620910	-1.268926	-1.168370	0.114936	-0.267120	-0.186239	302.61	4.00	13.69	64.61	136.69	69.712059	1	0	0	0	0
567235	100514.703125	304.17	-146.640060	0.076614	-2.408566	0.070238	-0.272441	-0.191560	302.63	4.01	13.91	65.55	136.70	71.433837	1	0	0	0	0
567245	100534.171875	304.17	-146.731048	-1.216254	-1.963245	0.035119	-0.262863	-0.195817	302.61	4.00	13.65	66.03	136.73	69.712059	1	0	0	0	0
567255	100534.171875	304.17	-146.860336	-0.986411	-1.651999	-0.007449	-0.229872	-0.203267	302.63	4.00	13.46	66.57	136.76	69.712059	1	0	0	0	0
567265	100511.125000	304.16	-147.047073	0.244208	-2.360682	-0.036183	-0.246900	-0.207523	302.58	4.01	13.83	67.64	136.81	71.750312	1	0	0	0	0
567275	100534.171875	304.17	-147.037506	-0.986411	-2.489969	-0.092587	-0.204331	-0.217101	302.69	4.00	13.61	68.14	136.85	69.712059	1	0	0	0	0
567285	100475.750000	304.17	-147.123687	-0.766144	-1.982398	-0.124514	-0.187303	-0.228808	302.70	4.00	14.73	69.93	136.89	74.879585	1	0	0	0	0
567295	100511.125000	304.16	-147.123687	0.440533	-2.312798	-0.152184	-0.202202	-0.238386	302.63	4.00	14.81	70.69	136.94	71.750312	1	0	0	0	0
567305	100475.750000	304.17	-147.171569	-0.684741	-2.973598	-0.180918	-0.151119	-0.242643	302.63	4.00	15.65	72.19	136.98	74.879585	1	0	0	0	0
567315	100472.187500	304.16	-147.195510	-0.368707	-2.015917	-0.211780	-0.148991	-0.244771	302.61	4.00	16.38	73.56	137.01	75.194770	1	0	0	0	0
567325	100495.234375	304.17	-147.219467	0.756567	-2.135627	-0.244771	-0.138349	-0.242643	302.58	4.00	16.42	74.26	137.05	73.155883	1	0	0	0	0
567335	100472.187500	304.16	-147.353530	-0.071826	-3.069366	-0.273505	-0.097908	-0.246900	302.66	4.00	16.97	75.44	137.10	75.194770	1	0	0	0	0
567345	100452.718750	304.16	-147.123687	-0.067037	-1.441309	-0.312882	-0.088330	-0.247964	302.64	4.01	17.82	76.89	137.12	76.917411	1	0	0	0	0
567355	100456.281250	304.17	-146.941726	1.235408	-1.915361	-0.360772	-0.055339	-0.245836	302.72	4.00	18.39	78.07	137.12	76.602172	1	0	0	0	0
567365	100456.281250	304.17	-147.080596	0.909796	-2.935291	-0.386313	-0.034055	-0.240514	302.63	4.01	18.83	79.10	137.14	76.602172	1	0	0	0	0
567375	100433.234375	304.16	-147.104537	0.770932	-1.608903	-0.415047	0.000000	-0.236257	302.61	4.01	19.67	80.52	137.15	78.641700	1	0	0	0	0
567385	100436.812500	304.17	-147.248184	1.355118	-2.250549	-0.437396	0.020220	-0.232001	302.69	4.00	20.24	81.65	137.18	78.325027	1	0	0	0	0
567395	100436.812500	304.17	-147.238616	1.508347	-3.169923	-0.471451	0.030862	-0.222423	302.67	4.01	20.67	82.65	137.21	78.325027	1	0	0	0	0
567405	100397.859375	304.17	-147.166793	1.388636	-2.164358	-0.493800	0.072367	-0.214973	302.66	4.00	21.86	84.37	137.22	81.772941	1	0	0	0	0
567415	100378.390625	304.17	-146.319244	1.580173	-3.026270	-0.542754	0.070238	-0.204331	302.63	4.01	23.20	86.21	137.15	83.496604	1	0	0	0	0
567425	100378.390625	304.17	-146.683166	2.322375	-3.462015	-0.606608	0.090459	-0.192624	302.60	4.02	24.22	87.72	137.12	83.496604	1	0	0	0	0
567435	100378.390625	304.17	-146.702316	2.035071	-2.557007	-0.667269	0.117064	-0.174532	302.63	4.02	24.99	88.98	137.10	83.496604	1	0	0	0	0
567445	100358.906250	304.17	-146.410217	2.188300	-2.442085	-0.717287	0.107486	-0.156441	302.70	4.02	26.01	90.47	137.05	85.221931	1	0	0	0	0
567455	100355.343750	304.16	-146.520355	2.829946	-2.394201	-0.775820	0.148991	-0.135156	302.66	4.02	26.87	91.79	137.02	85.537414	1	0	0	0	0
567465	100339.437500	304.17	-146.424591	2.432508	-1.455674	-0.839673	0.164954	-0.110679	302.69	4.02	27.88	93.23	136.98	86.946144	1	0	0	0	0
567475	100319.968750	304.17	-146.429367	2.691082	-1.618480	-0.900334	0.164954	-0.088330	302.64	4.01	29.07	94.85	136.95	88.670623	1	0	0	0	0
567485	100339.437500	304.17	-147.157211	2.734178	-2.264914	-0.971637	0.201138	-0.062789	302.64	4.02	29.55	95.76	136.99	86.946144	1	0	0	0	0
567495	100319.968750	304.17	-146.980041	2.738966	-1.632845	-1.042940	0.200074	-0.036183	302.60	4.02	30.35	96.96	137.00	88.670623	1	0	0	0	0
567505	100300.484375	304.17	-147.233825	3.117250	-1.412578	-1.120629	0.216037	-0.008513	302.64	4.02	31.38	98.40	137.04	90.396759	1	0	0	0	0
567515	100300.484375	304.17	-146.884277	2.753331	-2.145204	-1.202574	0.228808	0.020220	302.67	4.02	32.17	99.57	137.05	90.396759	1	0	0	0	0
567525	100261.546875	304.17	-146.941726	2.729389	-1.072602	-1.297290	0.234129	0.047890	302.64	4.02	33.63	101.39	137.05	93.847084	1	0	0	0	0
567535	100261.546875	304.17	-146.951309	3.083731	-0.474051	-1.378171	0.239450	0.079816	302.67	4.02	34.74	102.85	137.06	93.847084	1	0	0	0	0
567545	100261.546875	304.17	-145.897857	2.552218	-1.561019	-1.470759	0.240514	0.110679	302.69	4.02	35.59	104.03	136.97	93.847084	1	0	0	0	0
567555	100242.062500	304.17	-146.941726	2.566584	-0.196324	-1.562282	0.256478	0.136220	302.64	4.02	36.66	105.42	136.98	95.574035	1	0	0	0	0
567565	100222.593750	304.17	-147.267349	2.877830	-0.287304	-1.654870	0.255414	0.166019	302.63	4.02	37.91	106.98	137.03	97.299873	1	0	0	0	0
567575	100222.593750	304.17	-147.008773	2.557007	-0.689530	-1.736815	0.253285	0.190496	302.61	4.02	38.86	108.22	137.04	97.299873	1	0	0	0	0
567585	100222.593750	304.17	-146.941726	2.231395	-0.584185	-1.830467	0.270313	0.220294	302.64	4.02	39.58	109.24	137.05	97.299873	1	0	0	0	0
567595	100203.109375	304.17	-147.018341	2.652775	0.033518	-1.921990	0.255414	0.243707	302.64	4.02	40.56	110.49	137.07	99.027366	1	0	0	0	0
567605	100183.640625	304.17	-146.865112	2.111685	0.114921	-2.006064	0.249028	0.266056	302.64	4.02	41.73	111.92	137.07	100.753746	1	0	0	0	0
567615	100180.078125	304.16	-145.452545	1.771709	-0.368707	-2.084817	0.259670	0.289469	302.61	4.00	42.70	113.13	136.93	101.069679	1	0	0	0	0
567625	100203.109375	304.17	-144.183609	2.197877	0.766144	-2.151863	0.232001	0.306496	302.66	4.00	42.94	113.60	136.69	99.027366	1	0	0	0	0
567635	100183.640625	304.17	-143.187622	1.369483	0.162805	-2.212524	0.210716	0.321395	302.66	4.01	43.54	114.42	136.38	100.753746	1	0	0	0	0
567645	100164.171875	304.17	-142.885955	1.307234	-1.197100	-2.291276	0.195817	0.335230	302.60	4.00	44.44	115.51	136.07	102.480400	1	0	0	0	0
567655	100144.687500	304.17	-143.106216	1.019929	0.225054	-2.360451	0.179854	0.343744	302.67	4.00	45.55	116.80	135.80	104.208709	1	0	0	0	0
567665	100144.687500	304.17	-142.000106	0.584185	0.158017	-2.427497	0.146863	0.352258	302.61	4.00	46.39	117.80	135.46	104.208709	1	0	0	0	0
567675	100125.218750	304.17	-142.488510	0.392649	-0.948103	-2.506250	0.123450	0.352258	302.66	4.00	47.46	119.02	135.20	105.935913	1	0	0	0	0
567685	100144.687500	304.17	-142.603439	0.038307	0.378283	-2.576488	0.120257	0.352258	302.63	4.00	47.84	119.56	134.97	104.208709	1	0	0	0	0
567695	100125.218750	304.17	-142.938629	0.268150	0.981622	-2.644599	0.093651	0.349065	302.61	4.01	48.56	120.43	134.80	105.935913	1	0	0	0	0
567705	100105.750000	304.17	-142.220367	-0.095768	0.292092	-2.706324	0.083009	0.336295	302.61	4.01	49.54	121.53	134.57	107.663383	1	0	0	0	0
567715	100066.796875	304.17	-141.128616	0.296881	0.756567	-2.773370	0.104294	0.335230	302.61	4.01	51.15	123.23	134.26	111.120521	1	0	0	0	0
567725	100086.265625	304.17	-141.597869	-0.009576	1.675941	-2.841481	0.073431	0.327781	302.63	4.00	51.93	124.11	134.03	109.392509	1	0	0	0	0
567735	100066.796875	304.17	-143.111007	-0.694318	0.440533	-2.931940	0.043633	0.326717	302.55	4.00	52.96	125.23	133.96	111.120521	1	0	0	0	0
567745	100024.296875	304.16	-143.249877	-0.612915	0.833182	-3.002179	0.017027	0.315010	302.58	4.01	54.68	127.01	133.91	114.893699	1	0	0	0	0
567755	100027.843750	304.17	-143.901092	-0.995987	1.383848	-3.067096	-0.029798	0.295854	302.63	4.00	55.90	128.30	133.92	114.578750	1	0	0	0	0
567765	100027.843750	304.17	-142.967361	-1.221042	1.082179	-3.125629	-0.052147	0.278826	302.66	4.00	56.83	129.28	133.85	114.578750	1	0	0	0	0
567775	100008.375000	304.17	-143.728713	-1.206677	1.221042	-3.171391	-0.086202	0.253285	302.67	4.00	57.97	130.46	133.86	116.307586	1	0	0	0	0
567785	100008.375000	304.17	-144.016021	-1.790862	1.187524	-3.222473	-0.096844	0.229872	302.69	4.00	58.83	131.37	133.89	116.307586	1	0	0	0	0
567795	100008.375000	304.17	-144.274597	-1.527500	0.900219	-3.270364	-0.108550	0.210716	302.66	4.00	59.48	132.06	133.95	116.307586	1	0	0	0	0
567805	99985.343750	304.16	-143.618576	-2.111685	0.646434	-3.315061	-0.116000	0.178789	302.64	4.01	60.49	133.09	133.94	118.353118	1	0	0	0	0
567815	99965.875000	304.16	-144.351211	-2.619256	0.383072	-3.338474	-0.129835	0.152184	302.67	4.02	61.68	134.30	134.00	120.082542	1	0	0	0	0
567825	99969.421875	304.17	-144.844406	-2.102108	0.603338	-3.391685	-0.138349	0.112807	302.66	4.02	62.51	135.14	134.10	119.767448	1	0	0	0	0
567835	99949.953125	304.17	-144.255432	-2.236184	0.287304	-3.424676	-0.111743	0.077688	302.67	4.03	63.57	136.19	134.13	121.497100	1	0	0	0	0
567845	99949.953125	304.17	-144.351211	-2.336740	0.067037	-3.459795	-0.123450	0.052147	302.61	4.03	64.37	136.98	134.17	121.497100	1	0	0	0	0
567855	99930.484375	304.17	-144.365570	-2.226607	0.445321	-3.503429	-0.114936	0.013834	302.61	4.02	65.41	138.00	134.21	123.227020	1	0	0	0	0
567865	99949.953125	304.17	-144.432601	-2.815581	-1.383848	-3.538548	-0.087266	-0.014899	302.64	4.02	65.77	138.35	134.25	121.497100	1	0	0	0	0
567875	99907.453125	304.16	-144.753433	-1.130063	-1.043871	-3.574732	-0.080881	-0.050018	302.64	4.02	66.98	139.52	134.32	125.273849	1	0	0	0	0
567885	99911.000000	304.17	-144.786956	-1.010353	-1.120486	-3.625815	-0.073431	-0.070238	302.63	4.02	67.82	140.32	134.38	124.958602	1	0	0	0	0
567895	99891.531250	304.17	-144.355987	-0.981622	-1.680729	-3.685411	-0.058532	-0.084073	302.58	4.02	68.89	141.34	134.40	126.689071	1	0	0	0	0
567905	99891.531250	304.17	-144.054321	-0.349553	-1.403002	-3.726916	-0.043633	-0.103229	302.72	4.02	69.70	142.09	134.39	126.689071	1	0	0	0	0
567915	99872.062500	304.17	-143.091857	-0.478840	-0.359130	-3.774806	-0.019156	-0.108550	302.66	4.02	70.74	143.05	134.28	128.419815	1	0	0	0	0
567925	99872.062500	304.17	-143.005661	0.028730	-0.612915	-3.805669	-0.004256	-0.119193	302.64	4.02	71.53	143.76	134.18	128.419815	1	0	0	0	0
567935	99852.578125	304.17	-142.756668	0.296881	-0.378283	-3.890807	0.032990	-0.119193	302.64	4.02	72.57	144.69	134.07	130.152221	1	0	0	0	0
567945	99852.578125	304.17	-142.541183	0.469263	-0.483628	-3.948275	0.037247	-0.118128	302.60	4.02	73.35	145.37	133.94	130.152221	1	0	0	0	0
567955	99849.031250	304.16	-142.225158	0.617704	-1.110909	-4.011064	0.039376	-0.119193	302.63	4.02	74.02	145.93	133.80	130.467605	1	0	0	0	0
567965	99833.109375	304.17	-141.971374	1.752555	-1.915361	-4.075982	0.094716	-0.106422	302.64	4.02	74.88	146.67	133.65	131.883514	1	0	0	0	0
567975	99813.640625	304.17	-141.712799	2.154781	-1.288080	-4.131321	0.123450	-0.096844	302.63	4.02	75.96	147.61	133.48	133.615066	1	0	0	0	0
567985	99774.687500	304.17	-141.463806	2.279279	0.397437	-4.203689	0.131963	-0.078752	302.64	4.03	77.65	149.13	133.31	137.080398	1	0	0	0	0
567995	99774.687500	304.17	-141.329727	4.419696	-0.316034	-4.292020	0.167083	-0.045761	302.66	4.03	78.92	150.23	133.14	137.080398	1	0	0	0	0
568005	99735.734375	304.17	-140.965805	3.883395	-0.421379	-4.368644	0.160697	-0.009578	302.58	4.02	80.75	151.86	132.95	140.546829	1	0	0	0	0
568015	99712.718750	304.16	-140.735961	3.251325	1.177947	-4.420791	0.172404	0.035119	302.63	4.00	82.65	153.53	132.75	142.595504	1	0	0	0	0
568025	99735.734375	304.17	-140.367248	4.089296	1.709460	-4.487837	0.167083	0.073431	302.63	4.00	83.58	154.24	132.55	140.546829	1	0	0	0	0
568035	99693.250000	304.16	-139.926727	2.547430	2.777273	-4.560204	0.127707	0.101101	302.64	4.00	85.22	155.64	132.32	144.328750	1	0	0	0	0
568045	99696.781250	304.17	-139.696884	3.193865	2.801215	-4.603837	0.110679	0.134092	302.63	4.00	86.39	156.56	132.09	144.014358	1	0	0	0	0
568055	99696.781250	304.17	-139.002563	3.840299	1.843535	-4.659177	0.091523	0.158569	302.66	4.01	87.27	157.19	131.81	144.014358	1	0	0	0	0
568065	99696.781250	304.17	-138.863693	2.250549	2.762908	-4.721967	0.080881	0.186239	302.60	4.00	87.94	157.60	131.55	144.014358	1	0	0	0	0
568075	99677.312500	304.17	-138.633850	2.853888	2.274491	-4.785820	0.083009	0.207523	302.66	4.01	88.87	158.26	131.30	145.747833	1	0	0	0	0
568085	99654.296875	304.16	-138.748779	3.361459	0.627280	-4.843288	0.070238	0.226679	302.66	4.00	90.09	159.20	131.07	147.797485	1	0	0	0	0
568095	99634.828125	304.16	-138.346542	1.307234	0.435744	-4.903949	0.073431	0.245836	302.64	4.01	91.45	160.25	130.83	149.531555	1	0	0	0	0
568105	99638.359375	304.17	-137.973052	1.110909	0.373495	-4.939069	0.034055	0.252221	302.64	4.00	92.39	160.89	130.58	149.217010	1	0	0	0	0
568115	99618.890625	304.17	-137.671386	1.651999	1.168370	-5.011436	0.005321	0.253285	302.70	4.00	93.54	161.72	130.33	150.951309	1	0	0	0	0
568125	99595.875000	304.16	-137.446334	0.502782	-0.713472	-5.064647	-0.005321	0.246900	302.69	4.01	94.92	162.77	130.07	153.001922	1	0	0	0	0
568135	99595.875000	304.16	-137.144653	0.742202	-0.737414	-5.086996	-0.023412	0.239450	302.67	4.00	95.96	163.47	129.81	153.001922	1	0	0	0	0
568145	99576.406250	304.16	-136.819046	1.695094	0.756567	-5.098702	-0.007449	0.236257	302.58	4.00	97.18	164.34	129.55	154.736831	1	0	0	0	0
568155	99560.468750	304.17	-136.785522	0.952892	-1.355118	-5.144464	-0.019156	0.237322	302.63	4.00	98.46	165.25	129.30	156.157257	1	0	0	0	0
568165	99537.453125	304.16	-136.340209	0.430956	-0.569819	-5.201932	0.000000	0.228808	302.63	4.00	99.94	166.34	129.04	158.208847	1	0	0	0	0
568175	99521.515625	304.17	-135.961929	1.283292	0.354341	-5.261528	-0.014899	0.224551	302.57	4.01	101.41	167.42	128.77	159.629714	1	0	0	0	0
568185	99498.515625	304.16	-135.770385	0.641646	-1.168370	-5.301969	-0.043633	0.219230	302.61	4.01	103.03	168.63	128.50	161.680572	1	0	0	0	0
568195	99502.046875	304.17	-135.392105	0.033518	-1.575384	-5.354116	-0.013834	0.216037	302.63	4.01	104.18	169.36	128.23	161.365676	1	0	0	0	0
568205	99482.578125	304.17	-134.855804	0.248996	0.354341	-5.430740	-0.022348	0.202202	302.66	4.00	105.48	170.23	127.92	163.101898	1	0	0	0	0
568215	99443.625000	304.17	-134.769607	0.847547	-0.981622	-5.473309	-0.055339	0.190496	302.69	4.02	107.33	171.62	127.64	166.576568	1	0	0	0	0
568225	99463.093750	304.17	-134.410476	0.162805	-1.776497	-5.518007	-0.048954	0.192624	302.67	4.02	108.30	172.14	127.36	164.839797	1	0	0	0	0
568235	99420.609375	304.16	-133.850234	-0.397437	-0.416591	-5.563768	-0.037247	0.168147	302.61	4.02	109.97	173.33	127.04	168.630111	1	0	0	0	0
568245	99401.140625	304.16	-133.548568	0.330399	-1.637633	-5.634007	-0.039376	0.158569	302.69	4.02	111.67	174.54	126.73	170.367492	1	0	0	0	0
568255	99385.203125	304.17	-133.342666	-0.028730	-2.279279	-5.690412	-0.020220	0.144734	302.61	4.02	113.31	175.67	126.42	171.789947	1	0	0	0	0
568265	99381.671875	304.16	-133.146347	-1.216254	-1.996764	-5.731916	0.000000	0.113872	302.67	4.02	114.63	176.48	126.13	172.105133	1	0	0	0	0
568275	99362.203125	304.16	-132.863830	-0.411802	-2.020706	-5.773421	0.003192	0.104294	302.63	4.02	116.06	177.38	125.84	173.843063	1	0	0	0	0
568285	99346.250000	304.17	-132.246124	0.114921	-2.398990	-5.810669	0.037247	0.079816	302.69	4.03	117.49	178.27	125.52	175.267364	1	0	0	0	0
568295	99342.718750	304.16	-131.757705	-0.866701	-2.169146	-5.863880	0.045761	0.071303	302.64	4.03	118.65	178.89	125.18	175.582672	1	0	0	0	0
568305	99287.828125	304.17	-131.058593	0.028730	-1.206677	-5.887293	0.042569	0.068110	302.61	4.03	120.75	180.41	124.81	180.484878	1	0	0	0	0
568315	99284.296875	304.16	-130.886215	0.320823	-1.824381	-5.931991	0.084073	0.053211	302.66	4.02	122.42	181.48	124.45	180.800338	1	0	0	0	0
568325	99303.781250	304.16	-130.460052	-0.507570	-1.987187	-5.983074	0.091523	0.050018	302.67	4.02	123.24	181.73	124.09	179.059906	1	0	0	0	0
568335	99284.296875	304.16	-130.258941	0.603338	-1.934514	-6.021386	0.135156	0.038312	302.61	4.03	124.30	182.20	123.75	180.800338	1	0	0	0	0
568345	99264.828125	304.16	-129.909378	0.689530	-3.476380	-6.083111	0.137285	0.048954	302.60	4.03	125.53	182.82	123.41	182.539642	1	0	0	0	0
568355	99225.875000	304.16	-129.507156	0.023942	-2.327163	-6.150157	0.168147	0.056403	302.61	4.02	127.32	183.99	123.05	186.020477	1	0	0	0	0
568365	99225.875000	304.16	-129.047470	0.550666	-0.957680	-6.196982	0.219230	0.045761	302.66	4.02	128.68	184.71	122.69	186.020477	1	0	0	0	0
568375	99186.937500	304.16	-128.817626	1.958456	-0.569819	-6.242744	0.190496	0.064917	302.66	4.03	130.57	185.94	122.34	189.501037	1	0	0	0	0
568385	99186.937500	304.16	-128.626083	1.110909	0.215478	-6.305533	0.205395	0.073431	302.61	4.02	132.00	186.72	122.01	189.501037	1	0	0	0	0
568395	99151.515625	304.17	-128.846359	0.727837	1.388636	-6.357681	0.176661	0.089394	302.60	4.03	133.87	187.91	121.73	192.668289	1	0	0	0	0
568405	99147.984375	304.16	-129.090560	1.982398	1.819593	-6.397057	0.144734	0.101101	302.63	4.02	135.35	188.72	121.49	192.984085	1	0	0	0	0
568415	99128.515625	304.16	-129.057052	0.742202	1.790862	-6.442819	0.162826	0.103229	302.66	4.00	136.91	189.59	121.28	194.725341	1	0	0	0	0
568425	99089.562500	304.16	-128.611724	0.574608	3.055001	-6.492837	0.103229	0.108550	302.63	4.01	138.96	190.92	121.05	198.210052	1	0	0	0	0
568435	99070.093750	304.16	-128.032333	2.375048	2.844311	-6.536470	0.061725	0.107486	302.57	4.00	140.94	192.17	120.78	199.952133	1	0	0	0	0
568445	99050.625000	304.16	-127.620521	1.168370	3.552995	-6.583296	0.056403	0.108550	302.58	4.01	142.87	193.36	120.49	201.694488	1	0	0	0	0
568455	99047.109375	304.14	-127.127319	0.569819	3.768473	-6.685462	-0.005321	0.105358	302.60	4.00	144.40	194.14	120.19	202.009140	1	0	0	0	0
568465	99011.671875	304.16	-126.562286	1.551442	2.782062	-6.741866	-0.060660	0.096844	302.63	4.01	146.35	195.32	119.87	205.181427	1	0	0	0	0
568475	99008.156250	304.14	-126.021202	0.852335	3.275267	-6.832325	-0.089394	0.089394	302.66	4.00	147.91	196.09	119.52	205.496185	1	0	0	0	0
568485	98992.203125	304.16	-125.623764	0.373495	2.580949	-6.896178	-0.146863	0.084073	302.66	4.00	149.43	196.83	119.17	206.924606	1	0	0	0	0
568495	98972.718750	304.16	-125.092247	0.814028	0.823605	-6.978124	-0.141541	0.069174	302.63	4.01	151.02	197.62	118.80	208.669464	1	0	0	0	0
568505	98972.718750	304.16	-124.795364	0.124498	1.532289	-7.023886	-0.129835	0.043633	302.61	4.00	152.22	198.01	118.44	208.669464	1	0	0	0	0
568515	98992.203125	304.16	-124.249488	-0.067037	-0.263362	-7.051556	-0.133028	0.024477	302.66	4.00	152.68	197.69	118.07	206.924606	1	0	0	0	0
568525	98953.250000	304.16	-123.708396	2.432508	-2.092532	-7.064326	-0.116000	0.005321	302.58	4.00	153.90	198.09	117.67	210.413208	1	0	0	0	0
568535	98953.250000	304.16	-123.296600	1.369483	-1.910572	-7.104767	-0.109615	-0.001064	302.64	4.01	154.82	198.20	117.28	210.413208	1	0	0	0	0
568545	98933.781250	304.16	-122.923103	1.350329	-3.524264	-7.110088	-0.071303	-0.006385	302.61	4.00	155.94	198.50	116.89	212.157226	1	0	0	0	0
568555	98933.781250	304.16	-122.549606	2.786850	-3.414131	-7.154785	-0.023412	-0.010642	302.55	4.00	156.79	198.52	116.50	212.157226	1	0	0	0	0
568565	98933.781250	304.16	-122.089920	2.849099	-2.111685	-7.199483	-0.023412	0.012770	302.55	4.01	157.43	198.34	116.10	212.157226	1	0	0	0	0
568575	98910.796875	304.14	-121.869651	3.940855	-4.453215	-7.219703	0.022348	0.025541	302.63	4.00	158.41	198.49	115.72	214.216537	1	0	0	0	0
568585	98836.406250	304.16	-121.266311	4.477157	-1.125274	-7.260144	0.105358	0.068110	302.61	4.00	160.82	200.02	115.31	220.884292	1	0	0	0	0
568595	98836.406250	304.16	-120.720436	3.136404	1.302445	-7.298456	0.129835	0.093651	302.60	4.01	162.64	200.95	114.90	220.884292	1	0	0	0	0
568605	98797.468750	304.16	-120.150619	1.762132	0.248996	-7.350603	0.076624	0.104294	302.61	4.01	164.88	202.28	114.46	224.375961	1	0	0	0	0
568615	98777.984375	304.16	-119.959083	5.698199	-1.450886	-7.385722	0.114936	0.125578	302.61	4.02	167.01	203.49	114.05	226.123596	1	0	0	0	0
568625	98777.984375	304.16	-119.609527	2.786850	0.000000	-7.483631	0.065981	0.157505	302.66	4.02	168.61	204.17	113.65	226.123596	1	0	0	0	0
568635	98758.515625	304.16	-119.274337	0.344765	-3.438073	-7.546420	0.014899	0.173468	302.61	4.02	170.26	204.89	113.25	227.870132	1	0	0	0	0
568645	98735.546875	304.14	-119.006187	3.145981	-2.604891	-7.590054	0.061725	0.159633	302.61	4.03	172.02	205.70	112.87	229.930984	1	0	0	0	0
568655	98700.093750	304.16	-118.603958	2.676717	-0.335188	-7.609210	-0.023412	0.176661	302.58	4.02	174.13	206.84	112.48	233.112777	1	0	0	0	0
568665	98680.625000	304.16	-118.196945	0.536301	-3.466804	-7.649650	-0.030862	0.176661	302.60	4.02	176.17	207.90	112.09	234.860412	1	0	0	0	0
568675	98661.156250	304.16	-117.536148	2.834734	-2.035071	-7.689026	-0.013834	0.173468	302.64	4.02	178.14	208.87	111.68	236.608337	1	0	0	0	0
568685	98661.156250	304.16	-117.100402	2.202665	-1.364694	-7.743302	-0.056403	0.169211	302.63	4.02	179.62	209.36	111.26	236.608337	1	0	0	0	0
568695	98641.671875	304.16	-116.640716	0.852335	-3.433285	-7.762458	-0.031926	0.152184	302.63	4.02	181.18	209.91	110.84	238.357940	1	0	0	0	0
568705	98618.703125	304.14	-116.171455	2.604891	-1.977610	-7.781614	-0.020220	0.152184	302.58	4.02	182.87	210.58	110.42	240.420776	1	0	0	0	0
568715	98602.734375	304.16	-115.778800	1.910572	-1.407790	-7.817798	-0.057468	0.148991	302.58	4.02	184.49	211.18	110.00	241.855178	1	0	0	0	0
568725	98579.765625	304.14	-115.242500	1.106121	-3.821145	-7.853981	-0.042569	0.146863	302.66	4.02	186.24	211.87	109.56	243.918685	1	0	0	0	0
568735	98563.781250	304.16	-114.706199	2.269703	-1.929726	-7.896550	0.001064	0.138349	302.61	4.02	187.91	212.49	109.12	245.354934	1	0	0	0	0
568745	98524.828125	304.16	-114.165115	1.968033	-1.307234	-7.925285	-0.031926	0.141541	302.60	4.02	190.04	213.54	108.67	248.855819	1	0	0	0	0
568755	98540.812500	304.14	-113.662330	2.011129	-4.601655	-7.951890	-0.007449	0.133028	302.66	4.02	191.29	213.73	108.21	247.419097	1	0	0	0	0
568765	98482.390625	304.14	-113.111663	2.528276	-2.264914	-7.965725	0.013834	0.148991	302.61	4.02	193.54	214.87	107.75	252.671127	1	0	0	0	0
568775	98462.921875	304.14	-112.719017	2.111685	-0.809240	-8.011487	0.005321	0.142606	302.60	4.02	195.67	215.89	107.29	254.421890	1	0	0	0	0
568785	98466.421875	304.16	-112.158767	2.887407	-3.634398	-8.023193	0.037247	0.151119	302.60	4.03	197.20	216.31	106.82	254.107131	1	0	0	0	0
568795	98423.984375	304.14	-111.081382	2.700659	-0.287304	-8.076405	0.039376	0.161762	302.63	4.02	199.31	217.27	106.29	257.924285	1	0	0	0	0
568805	98423.984375	304.14	-109.707107	2.073378	-0.766144	-8.114716	0.009578	0.164954	302.55	4.02	200.89	217.71	105.69	257.924285	1	0	0	0	0
568815	98401.031250	304.12	-107.863571	2.365471	-2.863465	-8.131744	0.031926	0.164954	302.55	4.00	202.61	218.24	104.96	259.989410	1	0	0	0	0
568825	98349.578125	304.16	-105.766250	1.843535	0.871489	-8.142387	0.048954	0.181982	302.63	4.00	205.05	219.47	104.11	264.620147	1	0	0	0	0
568835	98326.609375	304.14	-103.932296	0.770932	-1.182735	-8.164735	0.030862	0.170276	302.61	4.01	207.41	220.58	103.16	266.687957	1	0	0	0	0
568845	98307.140625	304.14	-101.710472	1.752555	-2.451662	-8.217947	0.021284	0.173468	302.60	4.00	209.63	221.53	102.09	268.440948	1	0	0	0	0
568855	98287.671875	304.14	-97.879753	1.029506	0.263362	-8.241359	0.057468	0.156441	302.58	4.00	211.74	222.33	100.75	270.194244	1	0	0	0	0
568865	98268.203125	304.14	-92.966850	0.359130	-1.177947	-8.265836	-0.007449	0.158569	302.63	4.01	213.77	223.00	99.08	271.947845	1	0	0	0	0
568875	98248.718750	304.14	-87.742698	1.776497	-1.527500	-8.304148	0.002128	0.137285	302.64	4.00	215.75	223.57	97.07	273.703094	1	0	0	0	0
568885	98248.718750	304.14	-82.844169	1.053448	0.402225	-8.317984	0.022348	0.123450	302.63	4.00	217.23	223.61	94.79	273.703094	1	0	0	0	0
568895	98209.781250	304.14	-77.854652	0.837970	-0.737414	-8.346717	0.007449	0.126642	302.57	4.00	219.23	224.10	92.25	277.211669	1	0	0	0	0
568905	98170.828125	304.14	-73.003997	1.407790	-1.412578	-8.395672	0.026605	0.107486	302.60	4.00	221.60	224.91	89.49	280.722747	1	0	0	0	0
568915	98151.359375	304.14	-68.842872	0.608127	0.076614	-8.399929	0.057468	0.104294	302.58	4.00	223.83	225.53	86.59	282.478027	1	0	0	0	0
568925	98131.890625	304.14	-65.309036	0.435744	0.574608	-8.451012	0.012770	0.096844	302.63	4.00	225.95	226.01	83.64	284.233581	1	0	0	0	0
568935	98092.937500	304.14	-62.306705	2.006340	-2.059013	-8.465910	0.031926	0.101101	302.61	4.00	228.42	226.79	80.67	287.746917	1	0	0	0	0
568945	98070.015625	304.12	-60.065731	0.828393	0.603338	-8.480810	0.046825	0.078752	302.57	4.01	230.79	227.44	77.78	289.814880	1	0	0	0	0
568955	98034.515625	304.14	-58.729766	1.010353	-0.248996	-8.539342	0.021284	0.083009	302.60	4.00	233.38	228.28	75.04	293.018371	1	0	0	0	0
568965	98011.593750	304.12	-57.910949	3.801992	-2.188300	-8.548920	0.042569	0.078752	302.57	4.00	235.84	228.98	72.48	295.087310	1	0	0	0	0
568975	97976.109375	304.14	-57.092132	1.685518	-1.072602	-8.591489	0.054275	0.086202	302.64	4.00	238.49	229.84	70.08	298.290954	1	0	0	0	0
568985	97953.171875	304.12	-56.306835	1.661575	-1.541865	-8.614902	0.040440	0.101101	302.60	4.00	240.99	230.55	67.84	300.362304	1	0	0	0	0
568995	97956.625000	304.14	-55.531112	4.467580	-2.829946	-8.632994	0.059596	0.096844	302.57	4.00	242.81	230.57	65.74	300.050445	1	0	0	0	0
569005	97933.703125	304.12	-54.501605	1.561019	-3.136404	-8.634058	0.052147	0.116000	302.60	4.00	244.68	230.63	63.74	302.120727	1	0	0	0	0
569015	97878.734375	304.14	-52.768203	1.173158	-2.513911	-8.638315	0.022348	0.119193	302.58	4.02	247.32	231.42	61.76	307.087066	1	0	0	0	0
569025	97839.796875	304.14	-49.962200	3.160346	-2.221819	-8.659600	0.015963	0.121321	302.55	4.02	250.19	232.40	59.70	310.606353	1	0	0	0	0
569035	97797.390625	304.12	-45.753192	2.269703	-1.374271	-8.669178	0.009578	0.127707	302.61	4.02	253.31	233.57	57.44	314.440460	1	0	0	0	0
569045	97797.390625	304.12	-39.978378	1.704671	-1.723825	-8.703233	-0.003192	0.119193	302.52	4.02	255.67	233.94	54.85	314.440460	1	0	0	0	0
569055	97781.375000	304.14	-33.705570	2.772485	-0.723048	-8.714940	-0.026605	0.120257	302.54	4.02	257.80	234.03	51.91	315.888854	1	0	0	0	0
569065	97742.437500	304.14	-27.145458	2.073378	-1.776497	-8.730903	-0.046825	0.118128	302.60	4.02	260.29	234.40	48.62	319.410980	1	0	0	0	0
569075	97700.031250	304.12	-21.471200	2.355894	-3.878606	-8.731967	-0.008513	0.112807	302.54	4.02	263.11	235.05	45.11	323.248199	1	0	0	0	0
569085	97680.562500	304.12	-17.621324	2.111685	-1.019929	-8.751124	0.006385	0.116000	302.55	4.02	265.68	235.41	41.56	325.010314	1	0	0	0	0
569095	97661.093750	304.12	-15.255852	1.647210	0.043095	-8.750059	0.003192	0.113872	302.63	4.02	268.05	235.54	38.13	326.772705	1	0	0	0	0
569105	97622.156250	304.12	-13.551181	2.437297	-1.508347	-8.771343	-0.014899	0.120257	302.60	4.03	270.70	235.93	34.86	330.298339	1	0	0	0	0
569115	97583.203125	304.12	-12.540828	3.131615	-0.761356	-8.788371	0.010642	0.120257	302.61	4.02	273.57	236.51	31.80	333.826568	1	0	0	0	0
569125	97544.265625	304.12	-11.650185	1.996764	-0.651222	-8.786243	0.005321	0.128771	302.60	4.02	276.61	237.23	28.95	337.354492	1	0	0	0	0
569135	97544.265625	304.12	-10.879252	1.991975	-0.646434	-8.786243	-0.025541	0.128771	302.61	4.02	278.90	237.21	26.30	337.354492	1	0	0	0	0
569145	97508.750000	304.14	-10.117896	3.064578	-1.723825	-8.796885	-0.013834	0.135156	302.61	4.02	281.41	237.40	23.83	340.573364	1	0	0	0	0
569155	97485.843750	304.12	-9.490615	3.275267	-2.987963	-8.778793	-0.007449	0.152184	302.57	4.02	283.82	237.47	21.53	342.649932	1	0	0	0	0
569165	97427.421875	304.12	-9.174580	2.446874	-2.312798	-8.809656	-0.001064	0.167083	302.54	4.02	286.94	238.23	19.42	347.947937	1	0	0	0	0
569175	97407.953125	304.12	-8.451531	2.193088	-2.073378	-8.792628	0.055339	0.171340	302.57	4.02	289.73	238.65	17.45	349.714050	1	0	0	0	0
569185	97369.015625	304.12	-7.546523	1.680729	-2.317587	-8.797949	0.031926	0.183046	302.55	4.02	292.71	239.23	15.57	353.247131	1	0	0	0	0
569195	97349.531250	304.12	-5.856217	2.379836	-2.188300	-8.810720	0.077688	0.170276	302.55	4.03	295.39	239.51	13.71	355.015502	1	0	0	0	0
569205	97310.593750	304.12	-3.399766	3.102885	-1.106121	-8.814976	0.020220	0.211780	302.63	4.02	298.29	239.97	11.80	358.550292	1	0	0	0	0
569215	97291.125000	304.12	-0.689530	1.958456	-1.781286	-8.823491	0.028734	0.234129	302.60	4.01	300.91	240.13	9.81	360.318115	1	0	0	0	0
569225	97229.281250	304.11	2.786850	0.943315	-1.398213	-8.799014	0.006385	0.229872	302.60	4.01	304.28	240.98	7.67	365.935607	1	0	0	0	0
569235	97170.859375	304.11	6.459556	0.938527	-1.426944	-8.801142	-0.056403	0.240514	302.58	4.01	308.14	242.27	5.39	371.244964	1	0	0	0	0
569245	97154.812500	304.12	7.331045	1.752555	-0.727837	-8.818169	-0.075559	0.239450	302.66	4.01	311.41	242.96	3.25	372.703735	1	0	0	0	0
569255	97131.921875	304.11	15.610195	2.054224	-2.317587	-8.909693	-0.083009	0.229872	302.60	4.00	314.39	243.29	0.52	374.785003	1	0	0	0	0
569265	97073.500000	304.11	14.202404	-3.213018	-2.202665	-8.811784	-0.031926	0.204331	302.63	4.00	317.95	244.20	-1.81	380.098663	1	0	0	0	0
569275	97073.500000	304.11	16.256629	-1.091755	-4.477157	-8.792628	0.018091	0.183046	302.58	4.00	320.64	244.21	-4.11	380.098663	1	0	0	0	0
569285	97054.031250	304.11	18.061857	-0.038307	-2.188300	-8.774537	0.008513	0.146863	302.58	4.01	323.09	243.99	-6.37	381.869964	1	0	0	0	0
569295	97034.562500	304.11	19.541473	2.078166	2.279279	-8.781986	-0.102165	0.168147	302.60	4.01	325.37	243.58	-8.55	383.641571	1	0	0	0	0
569305	97018.515625	304.12	20.776882	1.407790	-3.873818	-8.774537	-0.151119	0.178789	302.57	4.00	327.45	242.97	-10.65	385.102020	1	0	0	0	0
569315	97054.031250	304.11	21.662736	1.479616	-7.311892	-8.762829	-0.040440	0.175597	302.63	4.00	328.19	241.06	-12.62	381.869964	1	0	0	0	0
569325	97015.093750	304.11	22.922086	-0.603338	-10.256759	-8.704298	-0.014899	0.181982	302.57	4.01	329.62	239.81	-14.53	385.413482	1	0	0	0	0
569335	96995.625000	304.11	24.602815	2.130839	-6.268020	-8.685141	0.102165	0.164954	302.54	4.00	331.12	238.64	-16.41	387.185668	1	0	0	0	0
569345	96917.734375	304.11	23.693019	2.585737	-1.991975	-8.687270	0.102165	0.169211	302.61	4.00	334.01	238.82	-18.04	394.278686	1	0	0	0	0
569355	96898.265625	304.11	23.865402	0.478840	-4.252102	-8.701105	0.114936	0.183046	302.60	4.01	336.62	238.72	-19.52	396.052307	1	0	0	0	0
569365	96859.312500	304.11	23.750480	0.794874	-5.061342	-8.706425	0.138349	0.189432	302.55	4.00	339.46	238.85	-20.86	399.601837	1	0	0	0	0
569375	96820.375000	304.11	23.764844	1.824381	-3.155557	-8.688334	0.102165	0.202202	302.57	4.00	342.47	239.15	-22.07	403.151123	1	0	0	0	0
569385	96804.312500	304.12	23.932439	1.010353	-3.447650	-8.662793	0.119193	0.204331	302.55	4.01	345.10	239.07	-23.18	404.615600	1	0	0	0	0
569395	96723.015625	304.11	23.836671	0.445321	-3.639186	-8.663857	0.098972	0.214973	302.52	4.01	348.92	240.14	-24.18	412.030761	1	0	0	0	0
569405	96664.609375	304.11	23.372196	1.192312	-3.787626	-8.672370	0.127707	0.218166	302.60	4.00	353.13	241.58	-25.04	417.361175	1	0	0	0	0
569415	96606.187500	304.11	23.807941	0.914585	-3.538630	-8.627673	0.146863	0.217101	302.55	4.02	357.62	243.28	-25.86	422.695617	1	0	0	0	0
569425	96508.828125	304.11	23.937227	0.143652	-1.671152	-8.610646	0.148991	0.213909	302.57	4.02	363.23	246.03	-26.62	431.591217	1	0	0	0	0
569435	96450.421875	304.11	24.095245	0.215478	0.138863	-8.634058	0.110679	0.193688	302.64	4.03	368.79	248.71	-27.33	436.931213	1	0	0	0	0
569445	96414.875000	304.12	24.119188	-0.162805	0.095768	-8.642573	0.061725	0.181982	302.63	4.01	373.79	250.83	-27.96	440.182495	1	0	0	0	0
569455	96392.000000	304.11	23.286005	-0.732625	0.584185	-8.646829	0.009578	0.181982	302.61	4.01	378.08	252.24	-28.46	442.275268	1	0	0	0	0
569465	96353.062500	304.11	21.356279	-0.138863	-1.747767	-8.658535	0.018091	0.157505	302.57	4.02	382.20	253.49	-28.72	445.838470	1	0	0	0	0
569475	96314.125000	304.11	21.466411	-0.277727	-3.347093	-8.676628	0.028734	0.144734	302.60	4.02	386.19	254.59	-28.97	449.402832	1	0	0	0	0
569485	96294.640625	304.11	19.867084	-1.019929	-5.248090	-8.602131	0.056403	0.135156	302.55	4.02	389.64	255.17	-29.04	451.186859	1	0	0	0	0
569495	96278.578125	304.12	22.634782	-1.685518	-4.702211	-8.539342	0.089394	0.113872	302.54	4.02	392.60	255.25	-29.36	452.657836	1	0	0	0	0
569505	96275.171875	304.11	23.606828	0.426167	-1.968033	-8.540407	0.101101	0.105358	302.57	4.02	394.90	254.68	-29.75	452.969787	1	0	0	0	0
569515	96216.765625	304.11	23.477540	1.297657	-1.474828	-8.543600	0.079816	0.116000	302.54	4.02	397.96	254.86	-30.08	458.320281	1	0	0	0	0
569525	96177.812500	304.11	23.750480	1.240196	-1.498770	-8.546792	0.083009	0.108550	302.54	4.02	401.15	255.15	-30.42	461.890167	1	0	0	0	0
569535	96158.343750	304.11	23.549367	0.378283	-1.771709	-8.512737	0.097908	0.121321	302.57	4.03	403.98	255.10	-30.70	463.674804	1	0	0	0	0
569545	96119.406250	304.11	23.324312	1.278503	-1.790862	-8.494645	0.083009	0.135156	302.63	4.02	407.00	255.23	-30.93	467.245025	1	0	0	0	0
569555	96080.453125	304.11	23.324312	1.862688	-2.154781	-8.473361	0.108550	0.145798	302.57	4.02	410.16	255.49	-31.14	470.817840	1	0	0	0	0
569565	96041.515625	304.11	23.147142	1.297657	-1.987187	-8.472296	0.138349	0.164954	302.57	4.02	413.43	255.85	-31.32	474.390380	1	0	0	0	0
569575	96002.578125	304.11	22.984336	1.561019	-2.351105	-8.440369	0.124514	0.175597	302.52	4.03	416.77	256.29	-31.46	477.964111	1	0	0	0	0
569585	95944.156250	304.11	23.070528	0.943315	-1.086967	-8.455268	0.147927	0.175597	302.61	4.02	420.62	257.22	-31.60	483.328338	1	0	0	0	0
569595	95924.687500	304.11	22.878990	0.493205	-0.407014	-8.470168	0.122385	0.181982	302.61	4.02	423.96	257.64	-31.70	485.116516	1	0	0	0	0
569605	95901.828125	304.09	22.802375	0.497993	-0.536301	-8.473361	0.079816	0.181982	302.60	4.02	427.00	257.76	-31.79	487.216522	1	0	0	0	0
569615	95882.359375	304.09	22.740127	1.029506	-0.727837	-8.478681	0.054275	0.179854	302.60	4.00	429.72	257.58	-31.86	489.005340	1	0	0	0	0
569625	95807.859375	304.11	22.548591	0.885854	-1.187524	-8.495709	0.057468	0.191560	302.58	4.00	433.48	258.40	-31.91	495.853240	1	0	0	0	0
569635	95765.531250	304.09	22.467187	-0.344765	-1.867477	-8.492517	0.071303	0.170276	302.57	4.00	437.27	259.26	-31.95	499.745880	1	0	0	0	0
569645	95746.062500	304.09	22.591686	-0.957680	-0.890643	-8.481874	0.080881	0.150055	302.54	4.01	440.57	259.62	-32.00	501.536773	1	0	0	0	0
569655	95726.593750	304.09	22.400150	-0.402225	-0.569819	-8.464846	0.015963	0.159633	302.60	4.00	443.50	259.62	-32.02	503.327941	1	0	0	0	0
569665	95687.656250	304.09	22.175096	-0.976834	-0.622492	-8.482938	0.028734	0.136220	302.57	4.01	446.59	259.78	-32.02	506.911193	1	0	0	0	0
569675	95648.718750	304.09	21.997924	-0.129286	-1.877054	-8.511672	0.026605	0.124514	302.61	4.00	449.80	260.07	-32.00	510.495635	1	0	0	0	0
569685	95632.609375	304.11	21.892580	0.344765	-1.934514	-8.481874	0.050018	0.110679	302.57	4.01	452.59	259.93	-31.97	511.978942	1	0	0	0	0
569695	95590.296875	304.09	21.772869	0.488417	-2.293645	-8.492517	0.034055	0.104294	302.57	4.01	455.65	260.06	-31.93	515.875915	1	0	0	0	0
569705	95590.296875	304.09	21.763292	0.794874	-3.270479	-8.479745	0.034055	0.113872	302.54	4.00	457.95	259.45	-31.90	515.875915	1	0	0	0	0
569715	95551.359375	304.09	21.710620	1.086967	-3.256114	-8.481874	0.087266	0.108550	302.55	4.01	460.56	259.16	-31.86	519.463317	1	0	0	0	0
569725	95512.421875	304.09	21.748928	0.684741	-2.877830	-8.469103	0.087266	0.118128	302.60	4.01	463.42	259.10	-31.83	523.051879	1	0	0	0	0
569735	95492.953125	304.09	21.667524	0.478840	-1.905784	-8.475489	0.097908	0.111743	302.63	4.00	466.01	258.79	-31.80	524.846618	1	0	0	0	0
569745	95454.000000	304.09	21.710620	1.039083	-1.833958	-8.482938	0.121321	0.120257	302.58	4.01	468.85	258.72	-31.77	528.438354	1	0	0	0	0
569755	95415.062500	304.09	21.667524	1.312022	-1.489193	-8.433984	0.107486	0.136220	302.58	4.00	471.87	258.83	-31.74	532.029907	1	0	0	0	0
569765	95395.593750	304.09	21.686677	1.302445	-1.211466	-8.412699	0.122385	0.129835	302.55	4.01	474.59	258.64	-31.72	533.826110	1	0	0	0	0
569775	95376.125000	304.09	21.490354	1.316810	-0.833182	-8.423341	0.106422	0.135156	302.54	4.00	477.08	258.24	-31.68	535.622619	1	0	0	0	0
569785	95337.187500	304.09	21.624429	1.527500	-0.957680	-8.435049	0.104294	0.150055	302.58	4.00	479.84	258.10	-31.66	539.216552	1	0	0	0	0
569795	95298.234375	304.09	21.744138	1.187524	-0.363918	-8.407379	0.087266	0.156441	302.58	4.00	482.81	258.16	-31.65	542.813049	1	0	0	0	0
569805	95239.828125	304.09	21.758504	1.450886	-0.363918	-8.420149	0.080881	0.168147	302.55	4.00	486.38	258.81	-31.64	548.207946	1	0	0	0	0
569815	95200.890625	304.09	21.677101	0.684741	-0.411802	-8.395672	0.065981	0.169211	302.54	4.02	489.97	259.46	-31.63	551.806030	1	0	0	0	0
569825	95181.421875	304.09	21.734561	-0.009576	-0.335188	-8.403121	0.060660	0.181982	302.61	4.03	493.11	259.68	-31.62	553.605468	1	0	0	0	0
569835	95142.468750	304.09	21.504718	-0.991199	-1.048660	-8.378644	0.040440	0.154312	302.54	4.02	496.37	260.01	-31.60	557.206787	1	0	0	0	0
569845	95123.000000	304.09	21.375432	-1.417367	-3.375824	-8.362681	0.037247	0.136220	302.54	4.02	499.27	259.99	-31.56	559.007141	1	0	0	0	0
569855	95084.062500	304.09	21.236568	-0.019153	-3.806780	-8.344589	0.074495	0.127707	302.55	4.02	502.34	260.14	-31.51	562.608825	1	0	0	0	0
569865	95045.125000	304.09	21.097705	0.694318	-2.466027	-8.347782	0.065981	0.117064	302.60	4.02	505.55	260.42	-31.45	566.211669	1	0	0	0	0
569875	95025.656250	304.09	21.231781	0.818816	-2.169146	-8.335011	0.056403	0.121321	302.58	4.02	508.41	260.35	-31.42	568.013549	1	0	0	0	0
569885	94986.703125	304.09	21.073762	0.354341	-2.451662	-8.344589	0.079816	0.113872	302.60	4.02	511.45	260.47	-31.37	571.619628	1	0	0	0	0
569895	94947.765625	304.09	21.150377	0.373495	-3.643975	-8.309470	0.102165	0.111743	302.57	4.02	514.64	260.73	-31.33	575.225463	1	0	0	0	0
569905	94928.296875	304.09	21.337125	-0.004788	-1.599326	-8.297763	0.096844	0.109615	302.55	4.02	517.48	260.65	-31.31	577.028808	1	0	0	0	0
569915	94908.828125	304.09	23.037008	0.790086	-1.063025	-8.294570	0.096844	0.107486	302.61	4.02	520.07	260.30	-31.46	578.832458	1	0	0	0	0
569925	94850.406250	304.09	14.599842	1.053448	-2.489969	-8.201983	0.043633	0.062789	302.57	4.03	523.35	260.70	-30.79	584.246704	1	0	0	0	0
569935	94811.468750	304.09	19.819200	1.331176	-0.263362	-8.321176	0.017027	0.114936	302.58	4.02	526.72	261.15	-30.68	587.856750	1	0	0	0	0
569945	94811.468750	304.09	21.102493	0.306457	-1.029506	-8.339268	0.021284	0.104294	302.57	4.02	529.25	260.77	-30.70	587.856750	1	0	0	0	0
569955	94753.062500	304.09	21.284452	1.570596	-3.337517	-8.315855	0.051082	0.120257	302.57	4.02	532.50	261.08	-30.74	593.274047	1	0	0	0	0
569965	94753.062500	304.09	21.337125	1.398213	-1.623268	-8.312663	0.038312	0.123450	302.55	4.02	534.94	260.61	-30.78	593.274047	1	0	0	0	0
569975	94694.640625	304.09	21.389797	0.469263	-1.426944	-8.314790	0.035119	0.127707	302.60	4.02	538.13	260.86	-30.82	598.695495	1	0	0	0	0
569985	94655.703125	304.09	21.351490	0.225054	-0.957680	-8.337140	0.043633	0.128771	302.58	4.03	541.42	261.21	-30.85	602.310302	1	0	0	0	0
569995	94616.765625	304.09	21.126436	-0.842759	-1.374271	-8.308405	0.034055	0.114936	302.55	4.02	544.79	261.64	-30.86	605.926391	1	0	0	0	0
570005	94577.828125	304.09	21.097705	-0.837970	-2.149993	-8.329689	0.073431	0.098972	302.60	4.02	548.23	262.13	-30.87	609.543579	1	0	0	0	0
570015	94558.343750	304.09	20.944475	0.411802	-0.282515	-8.300956	0.076624	0.091523	302.60	4.00	551.27	262.23	-30.86	611.354125	1	0	0	0	0
570025	94519.406250	304.09	21.188684	-0.272938	-0.378283	-8.308405	0.062789	0.079816	302.57	4.01	554.45	262.47	-30.87	614.973205	1	0	0	0	0
570035	94480.468750	304.09	21.159954	-0.349553	-0.708683	-8.304148	0.038312	0.091523	302.57	4.01	557.74	262.81	-30.89	618.593444	1	0	0	0	0
570045	94461.000000	304.09	21.643583	0.713472	-1.283292	-8.304148	0.090459	0.080881	302.60	4.01	560.67	262.78	-30.94	620.404052	1	0	0	0	0
570055	94422.062500	304.09	21.610063	0.675164	-0.225054	-8.295635	0.059596	0.080881	302.55	4.00	563.77	262.93	-30.99	624.026123	1	0	0	0	0
570065	94383.109375	304.09	21.408950	0.339976	0.076614	-8.300956	0.068110	0.084073	302.61	4.01	567.00	263.21	-31.01	627.650878	1	0	0	0	0
570075	94383.109375	304.09	21.303606	0.713472	0.450109	-8.310534	0.045761	0.087266	302.60	4.00	569.43	262.70	-31.02	627.650878	1	0	0	0	0
570085	94363.640625	304.09	21.552602	1.316810	0.761356	-8.308405	0.034055	0.091523	302.57	4.00	571.70	262.04	-31.05	629.462951	1	0	0	0	0
570095	94363.640625	304.09	21.317972	1.589749	-0.823605	-8.304148	0.048954	0.097908	302.54	4.00	573.40	260.84	-31.05	629.462951	1	0	0	0	0
570105	94324.703125	304.09	20.992361	1.647210	-1.896207	-8.278607	0.074495	0.108550	302.52	4.01	575.57	260.11	-31.03	633.088073	1	0	0	0	0
570115	94285.765625	304.09	21.179107	1.867477	-2.298433	-8.263708	0.058532	0.109615	302.61	4.01	578.10	259.73	-31.02	636.714355	1	0	0	0	0
570125	94266.296875	304.09	21.102493	2.159569	-1.264138	-8.247744	0.065981	0.125578	302.58	4.00	580.45	259.18	-31.01	638.528015	1	0	0	0	0
570135	94227.343750	304.09	21.294029	2.039859	-0.397437	-8.228589	0.079816	0.134092	302.58	4.01	583.11	258.93	-31.02	642.157592	1	0	0	0	0
570145	94188.406250	304.09	20.949264	1.426944	-0.335188	-8.216882	0.070238	0.141541	302.57	4.01	586.01	258.93	-30.99	645.786926	1	0	0	0	0
570155	94168.937500	304.09	21.207838	0.833182	-1.551442	-8.204112	0.060660	0.147927	302.57	4.00	588.64	258.66	-31.00	647.602050	1	0	0	0	0
570165	94130.000000	304.09	20.695478	1.173158	-1.584961	-8.201983	0.043633	0.152184	302.60	4.00	591.52	258.64	-30.95	651.233215	1	0	0	0	0
570175	94091.046875	304.09	20.733785	1.192312	-1.733402	-8.177506	0.034055	0.150055	302.57	4.00	594.58	258.80	-30.91	654.867065	1	0	0	0	0
570185	94091.046875	304.09	20.791246	1.053448	-1.690306	-8.141323	0.027669	0.158569	302.48	4.00	596.89	258.22	-30.88	654.867065	1	0	0	0	0
570195	94032.640625	304.09	21.021091	0.890643	-1.312022	-8.131744	0.037247	0.161762	302.57	4.01	599.97	258.40	-30.88	660.317932	1	0	0	0	0
570205	93990.390625	304.07	20.800823	0.694318	-0.349553	-8.133872	0.015963	0.161762	302.57	4.00	603.27	258.79	-30.85	664.262695	1	0	0	0	0
570215	93954.765625	304.09	20.604499	0.603338	-1.235408	-8.109395	-0.002128	0.154312	302.54	4.02	606.58	259.19	-30.81	667.590026	1	0	0	0	0
570225	93935.281250	304.09	20.642807	0.000000	-2.293645	-8.121102	0.045761	0.145798	302.54	4.02	609.52	259.22	-30.78	669.410278	1	0	0	0	0
570235	93912.500000	304.07	20.527885	0.225054	-2.183511	-8.104074	0.036183	0.138349	302.58	4.02	612.26	259.06	-30.74	671.538940	1	0	0	0	0
570245	93876.875000	304.09	20.365079	0.158017	-2.121262	-8.078533	0.040440	0.135156	302.57	4.02	615.14	259.04	-30.68	674.868469	1	0	0	0	0
570255	93834.625000	304.07	20.345926	0.502782	-2.293645	-8.089175	0.030862	0.127707	302.58	4.02	618.29	259.29	-30.64	678.818542	1	0	0	0	0
570265	93798.984375	304.09	20.298042	0.220266	-2.121262	-8.058313	0.041504	0.120257	302.57	4.02	621.49	259.57	-30.59	682.151794	1	0	0	0	0
570275	93798.984375	304.09	20.307619	0.641646	-1.934514	-8.060441	0.038312	0.112807	302.57	4.02	623.89	259.09	-30.54	682.151794	1	0	0	0	0
570285	93756.750000	304.07	20.283676	0.866701	-2.762908	-8.048734	0.022348	0.112807	302.52	4.02	626.68	258.97	-30.50	686.103027	1	0	0	0	0
570295	93721.109375	304.09	20.288465	0.641646	-3.524264	-8.046606	0.025541	0.110679	302.61	4.03	629.60	259.00	-30.46	689.438537	1	0	0	0	0
570305	93701.640625	304.09	19.914968	0.526724	-2.427720	-8.033836	0.015963	0.107486	302.57	4.02	632.25	258.75	-30.39	691.260986	1	0	0	0	0
570315	93678.859375	304.07	20.307619	1.292868	-1.886630	-8.024257	0.042569	0.109615	302.60	4.02	634.77	258.39	-30.36	693.393920	1	0	0	0	0
570325	93639.921875	304.07	20.192697	1.541865	-2.240972	-8.000844	0.059596	0.116000	302.63	4.02	637.56	258.29	-30.33	697.040466	1	0	0	0	0
570335	93604.281250	304.09	20.044256	1.714248	-2.451662	-7.998716	0.067046	0.131963	302.55	4.02	640.49	258.33	-30.28	700.379333	1	0	0	0	0
570345	93604.281250	304.09	19.895814	1.915361	-2.834734	-7.994459	0.053211	0.140477	302.60	4.02	642.69	257.66	-30.23	700.379333	1	0	0	0	0
570355	93562.046875	304.07	19.977218	1.249773	-2.202665	-7.997652	0.085138	0.139413	302.55	4.02	645.33	257.42	-30.18	704.337280	1	0	0	0	0
570365	93542.578125	304.07	20.005949	1.699883	-1.570596	-7.982752	0.061725	0.159633	302.57	4.02	647.76	256.99	-30.15	706.162231	1	0	0	0	0
570375	93506.937500	304.09	19.914968	1.513135	-0.967257	-7.961468	0.034055	0.172404	302.61	4.03	650.41	256.77	-30.11	709.503906	1	0	0	0	0
570385	93445.218750	304.07	19.680337	0.646434	-1.292868	-7.938055	0.021284	0.177725	302.55	4.02	653.85	257.32	-30.05	715.293151	1	0	0	0	0
570395	93425.750000	304.07	19.752162	0.699106	0.052672	-7.942312	0.043633	0.177725	302.54	4.02	656.88	257.47	-30.01	717.119934	1	0	0	0	0
570405	93367.343750	304.07	19.522319	0.086191	0.732625	-7.941247	0.042569	0.176661	302.60	4.02	660.53	258.22	-29.95	722.602233	1	0	0	0	0
570415	93351.171875	304.09	19.551050	-0.378283	0.019153	-7.917835	0.031926	0.163890	302.55	4.01	663.65	258.45	-29.89	724.120727	1	0	0	0	0
570425	93289.453125	304.07	19.622877	-0.679953	-0.210689	-7.892293	0.023412	0.150055	302.60	4.00	667.44	259.33	-29.85	729.917724	1	0	0	0	0
570435	93289.453125	304.07	19.709068	-0.469263	-0.675164	-7.888037	0.045761	0.143670	302.54	4.01	670.30	259.29	-29.82	729.917724	1	0	0	0	0
570445	93269.984375	304.07	19.618087	0.282515	-0.502782	-7.872073	0.090459	0.127707	302.60	4.00	672.89	259.00	-29.78	731.747009	1	0	0	0	0
570455	93250.515625	304.07	19.680337	-0.177170	-0.062249	-7.853981	0.086202	0.122385	302.57	4.00	675.30	258.52	-29.75	733.576599	1	0	0	0	0
570465	93231.046875	304.07	19.469648	-0.335188	-1.532289	-7.852917	0.074495	0.116000	302.60	4.00	677.56	257.91	-29.71	735.406555	1	0	0	0	0
570475	93192.109375	304.07	19.048269	0.746990	-3.366247	-7.827375	0.084073	0.121321	302.54	4.00	680.16	257.65	-29.62	739.067260	1	0	0	0	0
570485	93172.640625	304.07	19.364303	0.909796	-2.557007	-7.825247	0.097908	0.124514	302.51	4.00	682.57	257.19	-29.58	740.898071	1	0	0	0	0
570495	93156.453125	304.09	19.407398	0.052672	-1.264138	-7.826312	0.100037	0.116000	302.57	4.01	684.75	256.52	-29.54	742.420593	1	0	0	0	0
570505	93114.234375	304.07	19.120094	-0.684741	-1.177947	-7.809284	0.095780	0.112807	302.54	4.00	687.38	256.29	-29.48	746.392456	1	0	0	0	0
570515	93075.296875	304.07	19.129671	0.464475	-0.866701	-7.820991	0.096844	0.111743	302.57	4.01	690.26	256.31	-29.43	750.056884	1	0	0	0	0
570525	93078.578125	304.09	18.928558	1.201889	-0.833182	-7.795449	0.062789	0.116000	302.57	4.01	692.34	255.56	-29.36	749.748046	1	0	0	0	0
570535	93036.343750	304.07	18.890251	0.991199	-1.106121	-7.799706	0.079816	0.126642	302.55	4.01	694.90	255.27	-29.30	753.724060	1	0	0	0	0
570545	93000.687500	304.09	18.938135	0.177170	-1.125274	-7.795449	0.097908	0.127707	302.57	4.01	697.65	255.18	-29.25	757.081909	1	0	0	0	0
570555	92958.468750	304.07	18.794483	0.100556	-1.197100	-7.794385	0.102165	0.133028	302.52	4.01	700.70	255.38	-29.19	761.059143	1	0	0	0	0
570565	92903.343750	304.09	18.684349	0.474051	-0.459686	-7.797577	0.118128	0.128771	302.54	4.01	704.29	256.10	-29.13	766.254455	1	0	0	0	0
570575	92900.062500	304.07	18.741809	-0.014365	-0.081402	-7.815670	0.114936	0.121321	302.57	4.01	707.07	256.03	-29.07	766.563781	1	0	0	0	0
570585	92841.656250	304.07	18.789693	-0.081402	-0.483628	-7.790128	0.089394	0.118128	302.54	4.01	710.53	256.61	-29.03	772.071166	1	0	0	0	0
570595	92822.171875	304.07	18.674772	0.028730	-0.019153	-7.772036	0.075559	0.112807	302.55	4.01	713.59	256.81	-28.98	773.909057	1	0	0	0	0
570605	92802.703125	304.07	18.531120	0.407014	0.804451	-7.774165	0.065981	0.111743	302.54	4.01	716.34	256.71	-28.92	775.745788	1	0	0	0	0
570615	92763.765625	304.07	18.497602	0.531512	0.612915	-7.763522	0.050018	0.107486	302.57	4.02	719.33	256.83	-28.86	779.420227	1	0	0	0	0
570625	92747.578125	304.09	18.650831	0.421379	-0.694318	-7.773100	0.055339	0.103229	302.58	4.02	721.95	256.60	-28.82	780.948120	1	0	0	0	0
570635	92705.359375	304.07	18.564640	0.296881	-1.819593	-7.758201	0.050018	0.106422	302.60	4.01	724.91	256.70	-28.78	784.934143	1	0	0	0	0
570645	92666.421875	304.07	18.325220	0.205901	0.095768	-7.776293	0.062789	0.103229	302.57	4.02	728.05	256.97	-28.72	788.611694	1	0	0	0	0
570655	92627.484375	304.07	18.200721	-0.387860	0.545877	-7.765650	0.053211	0.093651	302.54	4.03	731.32	257.38	-28.65	792.290466	1	0	0	0	0
570665	92591.812500	304.09	18.291700	-0.622492	-0.201112	-7.757137	0.041504	0.083009	302.58	4.02	734.63	257.80	-28.60	795.661804	1	0	0	0	0
570675	92569.062500	304.07	18.373104	-1.149216	-0.268150	-7.733724	0.040440	0.065981	302.58	4.02	737.65	257.95	-28.56	797.812500	1	0	0	0	0
570685	92569.062500	304.07	18.152837	0.445321	-1.101332	-7.712440	0.020220	0.056403	302.55	4.02	739.91	257.37	-28.51	797.812500	1	0	0	0	0
570695	92569.062500	304.07	18.013973	0.976834	-1.881842	-7.703925	0.027669	0.062789	302.52	4.02	741.61	256.24	-28.44	797.812500	1	0	0	0	0
570705	92530.125000	304.07	18.033126	0.852335	-1.723825	-7.694347	0.035119	0.059596	302.58	4.02	743.80	255.59	-28.38	801.494384	1	0	0	0	0
570715	92530.125000	304.07	18.114530	0.900219	-1.561019	-7.671999	0.037247	0.070238	302.55	4.02	745.43	254.42	-28.33	801.494384	1	0	0	0	0
570725	92494.453125	304.09	17.932569	0.737414	-2.595314	-7.669870	0.084073	0.071303	302.54	4.02	747.49	253.67	-28.27	804.868591	1	0	0	0	0
570735	92474.984375	304.09	17.755399	0.914585	-2.212242	-7.651779	0.103229	0.075559	302.54	4.02	749.49	252.88	-28.20	806.710632	1	0	0	0	0
570745	92413.312500	304.07	17.903839	1.570596	-2.279279	-7.624109	0.131963	0.091523	302.54	4.02	752.44	253.01	-28.16	812.547668	1	0	0	0	0
570755	92374.375000	304.07	17.784130	1.532289	-2.044648	-7.613466	0.113872	0.097908	302.51	4.02	755.57	253.32	-28.10	816.234619	1	0	0	0	0
570765	92374.375000	304.07	17.764976	0.450109	-0.656011	-7.614531	0.088330	0.106422	302.55	4.02	757.93	252.87	-28.05	816.234619	1	0	0	0	0
570775	92335.421875	304.07	17.453729	-0.086191	0.339976	-7.618788	0.063853	0.106422	302.57	4.03	760.62	252.75	-27.98	819.924316	1	0	0	0	0
570785	92296.484375	304.07	17.357961	0.737414	-1.422155	-7.615595	0.090459	0.114936	302.54	4.02	763.55	252.87	-27.90	823.613769	1	0	0	0	0
570795	92277.015625	304.07	17.252616	0.612915	-2.652775	-7.615595	0.121321	0.117064	302.54	4.02	766.21	252.73	-27.82	825.458984	1	0	0	0	0
570805	92257.546875	304.07	17.434576	-0.407014	-3.007117	-7.585796	0.138349	0.114936	302.51	4.02	768.67	252.40	-27.77	827.304504	1	0	0	0	0
570815	92238.078125	304.07	17.377115	-0.895431	-1.934514	-7.554934	0.139413	0.110679	302.60	4.00	770.98	251.91	-27.71	829.150329	1	0	0	0	0
570825	92160.203125	304.07	17.563863	-0.483628	-0.440533	-7.543228	0.140477	0.104294	302.48	4.00	774.54	252.65	-27.68	836.536804	1	0	0	0	0
570835	92140.734375	304.07	17.190368	-0.488417	-0.268150	-7.546420	0.122385	0.101101	302.54	4.01	777.69	252.98	-27.62	838.384216	1	0	0	0	0
570845	92121.250000	304.07	17.075447	0.095768	-2.039859	-7.577283	0.110679	0.103229	302.58	4.00	780.51	253.00	-27.55	840.233459	1	0	0	0	0
570855	92082.312500	304.07	17.199945	-0.411802	-0.469263	-7.585796	0.148991	0.093651	302.52	4.00	783.55	253.23	-27.50	843.929870	1	0	0	0	0
570865	92062.843750	304.07	17.266983	-0.622492	1.321599	-7.574090	0.127707	0.092587	302.51	4.00	786.30	253.16	-27.46	845.778503	1	0	0	0	0
570875	92062.843750	304.07	17.195156	0.038307	0.627280	-7.574090	0.103229	0.090459	302.55	4.00	788.36	252.44	-27.41	845.778503	1	0	0	0	0
570885	91984.968750	304.07	17.128118	-0.062249	1.048660	-7.575155	0.111743	0.086202	302.54	4.01	791.74	253.00	-27.37	853.176391	1	0	0	0	0
570895	91984.968750	304.07	17.128118	-0.282515	1.618480	-7.598567	0.070238	0.070238	302.58	4.01	794.29	252.75	-27.33	853.176391	1	0	0	0	0
570905	91965.500000	304.07	17.266983	0.502782	1.297657	-7.612402	0.064917	0.067046	302.55	4.00	796.66	252.33	-27.30	855.026672	1	0	0	0	0
570915	91946.031250	304.07	17.037139	1.197100	1.010353	-7.604953	0.054275	0.083009	302.55	4.00	798.90	251.78	-27.26	856.877258	1	0	0	0	0
570925	91946.031250	304.07	16.965312	0.866701	-0.033518	-7.600696	0.046825	0.080881	302.58	4.00	800.58	250.70	-27.21	856.877258	1	0	0	0	0
570935	91926.562500	304.07	16.730680	1.474828	1.173158	-7.565576	0.072367	0.094716	302.54	4.01	802.29	249.66	-27.14	858.728149	1	0	0	0	0
570945	91907.093750	304.07	16.984466	2.403778	1.685518	-7.525135	0.070238	0.107486	302.54	4.00	804.03	248.66	-27.10	860.579345	1	0	0	0	0
570955	91887.609375	304.07	17.377115	1.924938	0.277727	-7.540035	0.046825	0.106422	302.55	4.00	805.79	247.68	-27.11	862.432373	1	0	0	0	0
570965	91907.093750	304.07	17.003620	1.819593	-1.762132	-7.527264	0.043633	0.111743	302.57	4.00	806.64	245.84	-27.07	860.579345	1	0	0	0	0
570975	91868.140625	304.07	16.879121	1.886630	-3.993528	-7.491081	0.093651	0.131963	302.51	4.00	808.19	244.69	-27.03	864.284240	1	0	0	0	0
570985	91829.203125	304.07	16.859968	2.494758	-1.843535	-7.452768	0.072367	0.147927	302.60	4.00	810.26	244.07	-27.00	867.988891	1	0	0	0	0
570995	91809.734375	304.07	17.027563	2.044648	0.090979	-7.466604	0.112807	0.158569	302.55	4.00	812.28	243.39	-26.98	869.841674	1	0	0	0	0
571005	91790.265625	304.07	17.022773	1.939303	0.665588	-7.476181	0.117064	0.176661	302.58	4.00	814.25	242.67	-26.96	871.694824	1	0	0	0	0
571015	91731.859375	304.07	17.104177	2.695871	0.512359	-7.447447	0.101101	0.197945	302.57	4.02	817.11	242.82	-26.96	877.256103	1	0	0	0	0
571025	91676.687500	304.09	16.678009	2.920926	0.679953	-7.450640	0.073431	0.218166	302.54	4.02	820.57	243.56	-26.92	882.512023	1	0	0	0	0
571035	91634.500000	304.07	16.850391	3.145981	0.665588	-7.399557	0.028734	0.249028	302.55	4.01	824.17	244.43	-26.90	886.532714	1	0	0	0	0
571045	91595.562500	304.07	16.610971	2.719813	1.556231	-7.427227	0.019156	0.243707	302.57	4.02	827.81	245.32	-26.85	890.245056	1	0	0	0	0
571055	91595.562500	304.07	16.792930	0.258573	1.723825	-7.448512	-0.015963	0.251157	302.60	4.02	830.55	245.33	-26.83	890.245056	1	0	0	0	0
571065	91537.156250	304.07	16.778564	-0.186747	-0.248996	-7.468732	-0.001064	0.266056	302.57	4.02	833.99	246.03	-26.81	895.815917	1	0	0	0	0
571075	91517.687500	304.07	16.237476	-0.316034	-0.823605	-7.472989	0.039376	0.245836	302.57	4.02	837.05	246.34	-26.74	897.673461	1	0	0	0	0
571085	91478.750000	304.07	16.141708	-2.485181	1.316810	-7.418713	0.005321	0.203267	302.54	4.03	840.27	246.82	-26.67	901.389648	1	0	0	0	0
571095	91439.796875	304.07	16.208745	-3.682282	-1.431732	-7.393172	-0.004256	0.181982	302.55	4.02	843.62	247.41	-26.61	905.108520	1	0	0	0	0
571105	91439.796875	304.07	16.314090	-2.030282	-0.354341	-7.335704	0.023412	0.153248	302.55	4.02	846.14	247.20	-26.56	905.108520	1	0	0	0	0
571115	91420.328125	304.07	16.021997	-2.638410	-0.248996	-7.276107	0.117064	0.111743	302.58	4.03	848.49	246.82	-26.49	906.967712	1	0	0	0	0
571125	91400.859375	304.07	16.189592	-3.102885	-0.905008	-7.230346	0.108550	0.061725	302.55	4.03	850.72	246.33	-26.44	908.827209	1	0	0	0	0
571135	91400.859375	304.07	15.978901	-2.269703	-1.134851	-7.193098	0.097908	0.031926	302.49	4.03	852.38	245.30	-26.38	908.827209	1	0	0	0	0
571145	91381.390625	304.07	15.801731	-0.732625	-4.438849	-7.157978	0.141541	0.010642	302.54	4.02	854.09	244.32	-26.30	910.687072	1	0	0	0	0
571155	91342.453125	304.07	16.079458	-0.651222	-2.853888	-7.102638	0.174532	-0.011706	302.54	4.02	856.29	243.83	-26.26	914.407714	1	0	0	0	0
571165	91303.515625	304.07	15.825673	0.435744	-1.704671	-7.078161	0.184110	-0.001064	302.57	4.02	858.87	243.71	-26.20	918.129638	1	0	0	0	0
571175	91306.734375	304.09	15.820884	0.723048	-2.384624	-7.066454	0.234129	0.000000	302.58	4.02	860.73	242.89	-26.14	917.821899	1	0	0	0	0
571185	91264.578125	304.07	15.931017	0.919373	-1.259350	-7.069647	0.237322	0.019156	302.57	4.02	863.12	242.60	-26.10	921.852783	1	0	0	0	0
571195	91245.109375	304.07	15.686809	1.091755	-1.723825	-7.045170	0.239450	0.038312	302.58	4.03	865.38	242.18	-26.04	923.714904	1	0	0	0	0
571205	91206.156250	304.07	15.773000	1.594538	-2.207453	-7.040913	0.270313	0.054275	302.61	4.02	868.00	242.12	-26.00	927.441528	1	0	0	0	0
571215	91167.218750	304.07	15.926229	0.957680	-1.522712	-7.046234	0.262863	0.070238	302.60	4.01	870.90	242.32	-25.98	931.167907	1	0	0	0	0
571225	91147.750000	304.07	15.935806	1.517923	0.052672	-7.078161	0.222423	0.111743	302.51	4.00	873.54	242.28	-25.95	933.031616	1	0	0	0	0
571235	91108.812500	304.07	15.773000	2.298433	2.193088	-7.095189	0.167083	0.140477	302.57	4.01	876.45	242.50	-25.92	936.759948	1	0	0	0	0
571245	91089.343750	304.07	15.749058	2.365471	2.226607	-7.111152	0.123450	0.146863	302.54	4.00	879.10	242.46	-25.89	938.624633	1	0	0	0	0
571255	91050.406250	304.07	15.792154	0.799663	2.968810	-7.147336	0.154312	0.168147	302.57	4.00	882.02	242.69	-25.86	942.354919	1	0	0	0	0
571265	91011.468750	304.07	15.782577	-0.411802	3.150769	-7.180326	0.101101	0.184110	302.55	4.00	885.15	243.11	-25.84	946.086486	1	0	0	0	0
571275	90992.000000	304.07	15.543157	-0.114921	0.296881	-7.219703	0.065981	0.179854	302.54	4.00	887.96	243.23	-25.79	947.952758	1	0	0	0	0
571285	90972.515625	304.07	15.275006	0.670376	-2.628833	-7.246308	0.072367	0.178789	302.58	4.00	890.54	243.12	-25.72	949.820861	1	0	0	0	0
571295	90953.046875	304.07	15.514427	-0.641646	1.273715	-7.263336	0.068110	0.166019	302.55	4.00	892.94	242.84	-25.69	951.687805	1	0	0	0	0
571305	90894.640625	304.07	15.758635	-1.235408	3.615244	-7.279300	0.022348	0.142606	302.55	4.00	896.14	243.33	-25.68	957.290466	1	0	0	0	0
571315	90875.171875	304.07	15.456965	-2.279279	4.113238	-7.258015	-0.067046	0.113872	302.58	4.00	899.01	243.50	-25.64	959.158691	1	0	0	0	0
571325	90855.703125	304.07	15.303736	-1.939303	4.917690	-7.247373	-0.094716	0.073431	302.54	4.01	901.63	243.43	-25.59	961.027221	1	0	0	0	0
571335	90816.765625	304.07	15.361197	-0.464475	4.783615	-7.283556	-0.134092	0.044697	302.55	4.01	904.53	243.63	-25.55	964.765319	1	0	0	0	0
571345	90797.296875	304.07	15.140931	-0.339976	2.202665	-7.319740	-0.156441	0.010642	302.60	4.01	907.17	243.58	-25.49	966.634826	1	0	0	0	0
571355	90797.296875	304.07	15.313313	-1.728613	3.035847	-7.332511	-0.144734	-0.015963	302.60	4.01	909.16	242.89	-25.46	966.634826	1	0	0	0	0
571365	90758.359375	304.07	15.069105	-0.339976	2.480392	-7.345282	-0.148991	-0.046825	302.57	4.00	911.57	242.63	-25.40	970.374816	1	0	0	0	0
571375	90758.359375	304.07	15.116989	0.545877	0.818816	-7.333575	-0.138349	-0.054275	302.58	4.01	913.39	241.79	-25.35	970.374816	1	0	0	0	0
571385	90758.359375	304.07	14.848838	1.058237	-0.608127	-7.302712	-0.102165	-0.068110	302.55	4.01	914.74	240.51	-25.28	970.374816	1	0	0	0	0
571395	90738.875000	304.07	14.992490	0.354341	0.062249	-7.250566	-0.035119	-0.088330	302.54	4.00	916.21	239.36	-25.23	972.246826	1	0	0	0	0
571405	90699.937500	304.07	14.887145	0.483628	-0.565031	-7.211189	0.060660	-0.092587	302.54	4.01	918.25	238.76	-25.18	975.988769	1	0	0	0	0
571415	90680.468750	304.07	15.116989	1.824381	1.699883	-7.192033	0.069174	-0.089394	302.54	4.02	920.23	238.12	-25.15	977.860229	1	0	0	0	0
571425	90641.531250	304.07	14.963760	1.642422	1.599326	-7.169684	0.006385	-0.074495	302.57	4.02	922.65	237.91	-25.12	981.604125	1	0	0	0	0
571435	90622.062500	304.07	14.791378	2.485181	-1.086967	-7.151593	0.012770	-0.065981	302.55	4.02	924.93	237.57	-25.07	983.476562	1	0	0	0	0
571445	90602.593750	304.07	14.839262	3.567360	-0.770932	-7.138822	0.039376	-0.039376	302.60	4.01	927.11	237.13	-25.02	985.349304	1	0	0	0	0
571455	90583.125000	304.07	14.805743	3.658340	1.077390	-7.128180	0.009578	-0.023412	302.54	4.02	929.21	236.62	-24.98	987.222412	1	0	0	0	0
571465	90544.187500	304.07	15.021221	3.509899	0.402225	-7.121795	0.027669	-0.001064	302.58	4.02	931.71	236.51	-24.97	990.969543	1	0	0	0	0
571475	90524.718750	304.07	15.217545	4.611232	-0.679953	-7.102638	0.036183	0.040440	302.57	4.02	934.06	236.24	-24.97	992.843627	1	0	0	0	0
571485	90505.234375	304.07	14.800954	4.888959	-1.781286	-7.101574	0.064917	0.070238	302.58	4.03	936.29	235.87	-24.94	994.719543	1	0	0	0	0
571495	90485.765625	304.07	14.676456	4.759673	-2.935291	-7.102638	0.090459	0.118128	302.54	4.02	938.43	235.41	-24.89	996.594238	1	0	0	0	0
571505	90450.015625	304.09	14.805743	4.754884	-1.848323	-7.089868	0.092587	0.145798	302.55	4.02	940.88	235.26	-24.87	1000.037597	1	0	0	0	0
571515	90407.890625	304.07	14.604630	2.375048	-0.598550	-7.095189	0.077688	0.180918	302.57	4.02	943.74	235.51	-24.82	1004.096435	1	0	0	0	0
571525	90368.953125	304.07	14.786589	2.552218	-0.512359	-7.122859	0.053211	0.192624	302.54	4.02	946.82	235.97	-24.80	1007.849487	1	0	0	0	0
571535	90349.484375	304.07	14.614207	0.560243	2.212242	-7.073904	0.010642	0.181982	302.57	4.02	949.61	236.14	-24.77	1009.726501	1	0	0	0	0
571545	90349.484375	304.07	14.676456	0.225054	2.825157	-7.109024	-0.007449	0.211780	302.57	4.02	951.70	235.63	-24.74	1009.726501	1	0	0	0	0
571555	90310.546875	304.07	14.494497	0.933738	3.141192	-7.115409	-0.009578	0.228808	302.57	4.02	954.20	235.53	-24.70	1013.481506	1	0	0	0	0
571565	90271.593750	304.07	14.365209	2.442085	0.430956	-7.109024	-0.005321	0.239450	302.63	4.02	957.02	235.74	-24.65	1017.239318	1	0	0	0	0
571575	90252.125000	304.07	14.408305	1.244984	-1.326387	-7.081354	0.021284	0.210716	302.54	4.02	959.60	235.71	-24.61	1019.117980	1	0	0	0	0
571585	90213.187500	304.07	14.355632	0.584185	1.431732	-7.090932	0.027669	0.239450	302.58	4.02	962.48	235.97	-24.57	1022.876220	1	0	0	0	0
571595	90213.187500	304.07	14.470555	-0.660799	1.508347	-7.079226	-0.023412	0.206459	302.60	4.02	964.64	235.54	-24.54	1022.876220	1	0	0	0	0
571605	90154.781250	304.07	14.302960	-1.987187	1.192312	-7.069647	-0.038312	0.162826	302.57	4.02	967.66	235.95	-24.50	1028.516113	1	0	0	0	0
571615	90174.250000	304.07	14.427458	-3.035847	0.067037	-7.060070	-0.053211	0.136220	302.57	4.00	969.47	235.17	-24.47	1026.635864	1	0	0	0	0
571625	90154.781250	304.07	14.298171	-1.479616	-0.253785	-7.038785	-0.051082	0.122385	302.57	4.01	971.29	234.41	-24.44	1028.516113	1	0	0	0	0
571635	90154.781250	304.07	14.039598	0.186747	-2.025494	-7.006858	-0.029798	0.095780	302.60	4.01	972.65	233.22	-24.38	1028.516113	1	0	0	0	0
571645	90115.843750	304.07	13.757082	0.201112	-4.630385	-6.977060	0.000000	0.076624	302.54	4.00	974.59	232.61	-24.30	1032.277709	1	0	0	0	0
571655	90115.843750	304.07	14.025233	-0.220266	-3.801992	-6.945133	0.046825	0.065981	302.57	4.00	976.05	231.53	-24.25	1032.277709	1	0	0	0	0
571665	90076.906250	304.07	14.034810	-0.229843	-2.877830	-6.925977	0.040440	0.057468	302.55	4.00	978.08	231.01	-24.21	1036.040649	1	0	0	0	0
571675	90060.609375	304.09	13.939042	-0.383072	-2.906560	-6.912142	0.084073	0.050018	302.60	4.00	979.99	230.38	-24.16	1037.615966	1	0	0	0	0
571685	90037.953125	304.07	13.776236	0.330399	-5.046977	-6.889793	0.128771	0.053211	302.57	4.00	981.96	229.83	-24.11	1039.806274	1	0	0	0	0
571695	90018.484375	304.07	13.776236	0.742202	-1.771709	-6.854674	0.197945	0.053211	302.55	4.01	983.91	229.25	-24.05	1041.688964	1	0	0	0	0
571705	90002.187500	304.09	13.924676	1.292868	-0.148440	-6.838711	0.166019	0.061725	302.60	4.00	985.76	228.59	-24.02	1043.265014	1	0	0	0	0
571715	89960.078125	304.07	13.996502	1.872265	-2.082955	-6.824875	0.163890	0.061725	302.52	4.00	988.16	228.46	-24.00	1047.338745	1	0	0	0	0
571725	89940.609375	304.07	13.828908	1.599326	-1.355118	-6.811040	0.166019	0.076624	302.51	4.00	990.43	228.21	-23.96	1049.222656	1	0	0	0	0
571735	89901.671875	304.07	13.977349	1.412578	-1.043871	-6.817426	0.143670	0.097908	302.60	4.00	993.07	228.32	-23.95	1052.991455	1	0	0	0	0
571745	89882.203125	304.07	13.819332	1.460463	-0.282515	-6.820619	0.146863	0.110679	302.58	4.00	995.53	228.25	-23.92	1054.876342	1	0	0	0	0
571755	89843.265625	304.07	13.675680	1.757344	0.248996	-6.811040	0.143670	0.134092	302.52	4.01	998.31	228.50	-23.88	1058.647216	1	0	0	0	0
571765	89823.781250	304.07	13.800178	1.273715	1.556231	-6.805719	0.137285	0.148991	302.54	4.01	1000.87	228.53	-23.85	1060.534545	1	0	0	0	0
571775	89784.843750	304.07	13.809755	1.000776	0.617704	-6.807848	0.140477	0.162826	302.58	4.01	1003.73	228.86	-23.83	1064.307373	1	0	0	0	0
571785	89765.375000	304.07	13.771448	0.833182	-1.441309	-6.805719	0.127707	0.174532	302.58	4.01	1006.35	228.95	-23.81	1066.194213	1	0	0	0	0
571795	89745.906250	304.07	13.790601	0.560243	-1.168370	-6.787628	0.138349	0.189432	302.57	4.01	1008.79	228.86	-23.79	1068.081542	1	0	0	0	0
571805	89687.500000	304.07	13.527239	-0.067037	-1.326387	-6.747188	0.098972	0.174532	302.55	4.01	1012.03	229.55	-23.75	1073.745117	1	0	0	0	0
571815	89668.031250	304.07	13.412317	-2.346317	0.086191	-6.751444	0.092587	0.148991	302.51	4.02	1014.94	229.91	-23.70	1075.633666	1	0	0	0	0
571825	89629.093750	304.07	13.493721	-1.149216	-0.483628	-6.755701	0.106422	0.152184	302.57	4.02	1018.07	230.49	-23.67	1079.411865	1	0	0	0	0
571835	89632.250000	304.09	13.517663	-0.086191	-0.263362	-6.747188	0.094716	0.148991	302.58	4.02	1020.35	230.23	-23.63	1079.105468	1	0	0	0	0
571845	89590.140625	304.07	13.503297	1.072602	0.469263	-6.761022	0.069174	0.160697	302.60	4.03	1023.08	230.41	-23.60	1083.192749	1	0	0	0	0
571855	89570.671875	304.07	13.551181	1.723825	0.861912	-6.774857	0.087266	0.150055	302.52	4.02	1025.60	230.38	-23.58	1085.083007	1	0	0	0	0
571865	89551.203125	304.07	13.436259	0.756567	2.983175	-6.789756	0.039376	0.143670	302.57	4.02	1027.96	230.21	-23.55	1086.973510	1	0	0	0	0
571875	89512.265625	304.07	13.464989	-0.842759	2.221819	-6.839775	0.026605	0.152184	302.54	4.02	1030.67	230.38	-23.52	1090.755615	1	0	0	0	0
571885	89473.328125	304.07	13.201627	-1.896207	0.052672	-6.840839	0.031926	0.134092	302.55	4.02	1033.66	230.81	-23.48	1094.539062	1	0	0	0	0
571895	89453.859375	304.07	13.297395	-2.389413	-0.402225	-6.819554	0.020220	0.108550	302.54	4.03	1036.37	230.97	-23.44	1096.431274	1	0	0	0	0
571905	89434.390625	304.07	13.273453	-1.561019	-0.378283	-6.812105	0.018091	0.085138	302.54	4.02	1038.88	230.93	-23.41	1098.323852	1	0	0	0	0
571915	89434.390625	304.07	13.206416	-0.363918	0.081402	-6.819554	0.019156	0.071303	302.54	4.02	1040.77	230.29	-23.37	1098.323852	1	0	0	0	0
571925	89395.453125	304.07	13.144166	0.028730	-0.129286	-6.811040	0.015963	0.059596	302.54	4.02	1043.12	230.11	-23.33	1102.109863	1	0	0	0	0
571935	89395.453125	304.07	13.096282	0.272938	-0.067037	-6.821683	0.019156	0.059596	302.54	4.02	1044.89	229.36	-23.28	1102.109863	1	0	0	0	0
571945	89375.984375	304.07	13.077129	1.177947	-0.052672	-6.788691	0.017027	0.059596	302.63	4.02	1046.68	228.65	-23.24	1104.003417	1	0	0	0	0
571955	89356.500000	304.07	13.000514	1.144428	0.493205	-6.792949	0.041504	0.053211	302.57	4.02	1048.49	227.96	-23.20	1105.898803	1	0	0	0	0
571965	89337.031250	304.07	13.163320	1.091755	1.259350	-6.776986	0.018091	0.054275	302.55	4.02	1050.32	227.29	-23.18	1107.793090	1	0	0	0	0
571975	89298.093750	304.07	12.957419	0.804451	-0.675164	-6.761022	0.035119	0.053211	302.58	4.02	1052.63	227.10	-23.14	1111.582519	1	0	0	0	0
571985	89278.625000	304.07	12.928689	0.521935	-1.604115	-6.746123	0.054275	0.058532	302.57	4.02	1054.84	226.81	-23.10	1113.477783	1	0	0	0	0
571995	89259.156250	304.07	12.981361	0.397437	-0.110133	-6.725903	0.058532	0.060660	302.54	4.02	1056.96	226.45	-23.07	1115.373291	1	0	0	0	0
572005	89259.156250	304.07	12.717999	0.828393	-1.527500	-6.696104	0.064917	0.060660	302.57	4.02	1058.56	225.57	-23.01	1115.373291	1	0	0	0	0
572015	89239.687500	304.07	12.761095	1.101332	-1.747767	-6.671627	0.071303	0.068110	302.55	4.00	1060.22	224.77	-22.97	1117.269165	1	0	0	0	0
572025	89220.218750	304.07	12.741941	1.685518	-1.795651	-6.666306	0.080881	0.075559	302.57	4.01	1061.93	224.03	-22.93	1119.165405	1	0	0	0	0
572035	89181.281250	304.07	12.952630	1.455674	-1.604115	-6.650342	0.100037	0.075559	302.57	4.01	1064.16	223.79	-22.91	1122.958862	1	0	0	0	0
572045	89161.812500	304.07	12.550405	1.723825	-2.106897	-6.630122	0.113872	0.089394	302.61	4.00	1066.30	223.47	-22.86	1124.856079	1	0	0	0	0
572055	89122.859375	304.07	12.674903	1.618480	-2.121262	-6.637572	0.103229	0.104294	302.55	4.00	1068.86	223.56	-22.82	1128.653076	1	0	0	0	0
572065	89103.390625	304.07	12.737153	1.264138	-0.656011	-6.645021	0.104294	0.113872	302.54	4.00	1071.25	223.48	-22.79	1130.551269	1	0	0	0	0
572075	89083.921875	304.07	12.890381	1.115697	0.550666	-6.633315	0.074495	0.120257	302.60	4.00	1073.52	223.29	-22.79	1132.449829	1	0	0	0	0
572085	89044.984375	304.07	12.670115	0.847547	0.383072	-6.646086	0.054275	0.130899	302.57	4.00	1076.16	223.47	-22.76	1136.248046	1	0	0	0	0
572095	89025.515625	304.07	12.627019	0.469263	0.225054	-6.635443	0.053211	0.136220	302.60	4.01	1078.63	223.46	-22.73	1138.147583	1	0	0	0	0
572105	89006.046875	304.07	12.421117	0.718260	1.776497	-6.650342	0.045761	0.138349	302.58	4.00	1080.95	223.33	-22.68	1140.047485	1	0	0	0	0
572115	88986.578125	304.07	12.569559	1.082179	2.202665	-6.658857	0.014899	0.141541	302.57	4.01	1083.16	223.09	-22.65	1141.947753	1	0	0	0	0
572125	88967.109375	304.07	12.445059	0.651222	1.527500	-6.660985	-0.008513	0.134092	302.52	4.00	1085.30	222.77	-22.61	1143.848388	1	0	0	0	0
572135	88928.171875	304.07	12.521675	-0.215478	0.746990	-6.653535	-0.014899	0.123450	302.57	4.00	1087.85	222.86	-22.58	1147.650512	1	0	0	0	0
572145	88889.218750	304.07	12.469001	-0.263362	0.593762	-6.646086	-0.022348	0.122385	302.57	4.01	1090.71	223.25	-22.56	1151.455688	1	0	0	0	0
572155	88889.218750	304.07	12.387598	-0.004788	0.723048	-6.653535	-0.030862	0.110679	302.52	4.00	1092.86	222.95	-22.52	1151.455688	1	0	0	0	0
572165	88869.750000	304.07	12.406752	0.248996	0.895431	-6.660985	-0.032990	0.102165	302.54	4.00	1094.95	222.59	-22.49	1153.357910	1	0	0	0	0
572175	88850.281250	304.07	12.516886	0.435744	0.234631	-6.648214	-0.029798	0.091523	302.63	4.00	1096.99	222.19	-22.47	1155.260498	1	0	0	0	0
572185	88830.812500	304.07	12.392387	0.469263	-0.919373	-6.645021	-0.029798	0.084073	302.57	4.01	1098.99	221.76	-22.45	1157.163452	1	0	0	0	0
572195	88808.171875	304.06	12.282254	0.354341	-1.154005	-6.627994	-0.031926	0.074495	302.54	4.01	1101.04	221.37	-22.41	1159.376831	1	0	0	0	0
572205	88791.875000	304.07	12.157755	0.225054	-1.235408	-6.619480	-0.032990	0.061725	302.60	4.00	1102.98	220.88	-22.37	1160.970458	1	0	0	0	0
572215	88756.062500	304.09	12.052411	0.349553	-1.661575	-6.622673	-0.028734	0.064917	302.54	4.02	1105.30	220.77	-22.32	1164.473022	1	0	0	0	0
572225	88733.468750	304.07	11.894393	0.493205	-1.091755	-6.612030	0.004256	0.059596	302.58	4.01	1107.59	220.64	-22.26	1166.683349	1	0	0	0	0
572235	88733.468750	304.07	11.908759	0.804451	-0.627280	-6.592874	0.018091	0.056403	302.51	4.02	1109.31	219.95	-22.21	1166.683349	1	0	0	0	0
572245	88694.531250	304.07	12.095506	1.201889	-0.866701	-6.567333	0.014899	0.053211	302.58	4.02	1111.55	219.77	-22.18	1170.493652	1	0	0	0	0
572255	88675.062500	304.07	12.215216	1.144428	-0.598550	-6.572654	0.018091	0.047890	302.55	4.01	1113.70	219.50	-22.16	1172.399291	1	0	0	0	0
572265	88655.578125	304.07	12.186486	0.852335	-0.857124	-6.540728	0.008513	0.052147	302.57	4.02	1115.79	219.18	-22.14	1174.306762	1	0	0	0	0
572275	88636.109375	304.07	12.028469	0.895431	-0.440533	-6.537535	0.021284	0.059596	302.58	4.02	1117.83	218.82	-22.11	1176.213134	1	0	0	0	0
572285	88616.640625	304.07	12.071564	1.288080	-0.809240	-6.527957	0.026605	0.064917	302.54	4.02	1119.84	218.42	-22.09	1178.119750	1	0	0	0	0
572295	88597.171875	304.07	11.760318	1.604115	-1.096544	-6.513058	0.025541	0.073431	302.58	4.03	1121.81	218.01	-22.04	1180.026855	1	0	0	0	0
572305	88558.234375	304.07	11.903970	2.006340	-1.335964	-6.501351	0.030862	0.084073	302.54	4.02	1124.25	218.03	-22.01	1183.841918	1	0	0	0	0
572315	88541.890625	304.09	11.870451	1.474828	-1.197100	-6.489645	0.022348	0.091523	302.52	4.01	1126.47	217.86	-21.98	1185.443603	1	0	0	0	0
572325	88499.828125	304.07	11.769895	0.565031	-0.823605	-6.483259	0.027669	0.094716	302.55	4.02	1129.17	218.15	-21.94	1189.567016	1	0	0	0	0
572335	88499.828125	304.07	12.018892	0.598550	-1.120486	-6.477938	0.048954	0.100037	302.60	4.02	1131.20	217.78	-21.93	1189.567016	1	0	0	0	0
572345	88460.890625	304.07	11.836933	1.106121	-0.732625	-6.470489	0.061725	0.109615	302.57	4.02	1133.67	217.85	-21.90	1193.385375	1	0	0	0	0
572355	88441.421875	304.07	11.736376	0.809240	-0.258573	-6.469424	0.068110	0.112807	302.54	4.02	1136.00	217.79	-21.87	1195.295166	1	0	0	0	0
572365	88421.937500	304.07	11.856086	0.454898	0.095768	-6.473681	0.061725	0.114936	302.60	4.02	1138.22	217.62	-21.85	1197.206787	1	0	0	0	0
572375	88402.468750	304.07	11.717223	-0.114921	0.770932	-6.472617	0.053211	0.112807	302.58	4.02	1140.37	217.37	-21.82	1199.117187	1	0	0	0	0
572385	88386.125000	304.09	11.659762	0.129286	0.047884	-6.465167	0.047890	0.110679	302.54	4.01	1142.38	217.00	-21.78	1200.721191	1	0	0	0	0
572395	88344.062500	304.07	11.750741	0.545877	-0.330399	-6.464104	0.030862	0.114936	302.55	4.02	1144.91	217.14	-21.76	1204.850463	1	0	0	0	0
572405	88324.593750	304.07	11.736376	0.411802	-0.746990	-6.459846	0.025541	0.110679	302.52	4.02	1147.30	217.13	-21.74	1206.762207	1	0	0	0	0
572415	88285.656250	304.07	11.463437	0.062249	-0.392649	-6.456654	0.036183	0.105358	302.57	4.00	1150.04	217.47	-21.70	1210.586791	1	0	0	0	0
572425	88285.656250	304.07	11.607089	0.047884	-0.737414	-6.457718	0.039376	0.102165	302.57	4.00	1152.10	217.14	-21.67	1210.586791	1	0	0	0	0
572435	88266.187500	304.07	11.492168	0.000000	-0.330399	-6.460910	0.039376	0.094716	302.55	4.00	1154.12	216.78	-21.63	1212.499633	1	0	0	0	0
572445	88227.250000	304.07	11.568782	0.095768	-0.234631	-6.458782	0.029798	0.087266	302.55	4.00	1156.58	216.86	-21.61	1216.326293	1	0	0	0	0
572455	88227.250000	304.07	11.516110	0.057460	-0.416591	-6.458782	0.017027	0.080881	302.54	4.01	1158.44	216.34	-21.58	1216.326293	1	0	0	0	0
572465	88188.296875	304.07	11.324573	-0.162805	-1.335964	-6.443883	0.014899	0.075559	302.54	4.01	1160.78	216.30	-21.54	1220.155761	1	0	0	0	0
572475	88168.828125	304.07	11.405976	-0.090979	-1.680729	-6.448140	0.052147	0.061725	302.49	4.00	1163.02	216.16	-21.51	1222.070312	1	0	0	0	0
572485	88149.359375	304.07	11.386822	0.220266	-0.282515	-6.439626	0.035119	0.065981	302.54	4.00	1165.17	215.94	-21.48	1223.985107	1	0	0	0	0
572495	88129.890625	304.07	11.176133	-0.043095	-0.775721	-6.430048	0.037247	0.058532	302.57	4.00	1167.26	215.67	-21.43	1225.900390	1	0	0	0	0
572505	88110.421875	304.07	11.286266	-0.119710	-1.077390	-6.422599	0.048954	0.051082	302.52	4.00	1169.31	215.35	-21.40	1227.815917	1	0	0	0	0
572515	88110.421875	304.07	11.434706	0.239420	-0.167594	-6.420470	0.054275	0.048954	302.55	4.00	1170.84	214.54	-21.38	1227.815917	1	0	0	0	0
572525	88071.484375	304.07	11.286266	0.454898	-0.751779	-6.413020	0.054275	0.043633	302.55	4.00	1172.95	214.29	-21.35	1231.647949	1	0	0	0	0
572535	88071.484375	304.07	11.520898	0.316034	-0.110133	-6.399186	0.055339	0.041504	302.58	4.01	1174.52	213.52	-21.35	1231.647949	1	0	0	0	0
572545	88032.546875	304.07	11.228805	0.292092	-0.047884	-6.392800	0.054275	0.044697	302.60	4.01	1176.65	213.31	-21.32	1235.481445	1	0	0	0	0
572555	88013.078125	304.07	11.348515	0.550666	0.119710	-6.375773	0.058532	0.044697	302.57	4.00	1178.73	213.05	-21.30	1237.398681	1	0	0	0	0
572565	87993.609375	304.07	11.176133	0.636857	0.023942	-6.357681	0.060660	0.047890	302.57	4.01	1180.77	212.74	-21.27	1239.316284	1	0	0	0	0
572575	87974.125000	304.07	11.185709	0.857124	0.229843	-6.340653	0.067046	0.051082	302.48	4.00	1182.77	212.42	-21.24	1241.235839	1	0	0	0	0
572585	87954.656250	304.07	11.238382	1.101332	0.335188	-6.340653	0.064917	0.055339	302.55	4.00	1184.75	212.07	-21.22	1243.154052	1	0	0	0	0
572595	87935.187500	304.07	11.118672	1.110909	0.100556	-6.337460	0.060660	0.062789	302.60	4.00	1186.71	211.70	-21.19	1245.072753	1	0	0	0	0
572605	87896.250000	304.07	11.310208	0.933738	0.296881	-6.347038	0.070238	0.067046	302.57	4.01	1189.14	211.79	-21.19	1248.911010	1	0	0	0	0
572615	87876.781250	304.07	11.099518	0.933738	0.335188	-6.353424	0.058532	0.073431	302.60	4.02	1191.44	211.76	-21.16	1250.830688	1	0	0	0	0
572625	87857.312500	304.07	11.056423	0.986411	-0.325611	-6.342782	0.052147	0.078752	302.57	4.02	1193.65	211.64	-21.13	1252.750610	1	0	0	0	0
572635	87840.937500	304.09	10.975020	1.029506	-0.105344	-6.340653	0.048954	0.085138	302.51	4.02	1195.71	211.38	-21.10	1254.365844	1	0	0	0	0
572645	87802.000000	304.09	11.271901	0.972045	-0.756567	-6.340653	0.050018	0.089394	302.51	4.02	1198.21	211.54	-21.10	1258.207519	1	0	0	0	0
572655	87779.437500	304.07	11.046846	0.876277	-1.422155	-6.331075	0.058532	0.095780	302.55	4.02	1200.64	211.64	-21.07	1260.434082	1	0	0	0	0
572665	87759.968750	304.07	11.070788	1.063025	-1.149216	-6.334268	0.080881	0.101101	302.52	4.02	1202.95	211.62	-21.06	1262.355834	1	0	0	0	0
572675	87740.484375	304.07	11.046846	0.928950	0.052672	-6.323626	0.073431	0.111743	302.52	4.02	1205.16	211.50	-21.04	1264.279541	1	0	0	0	0
572685	87740.484375	304.07	10.869675	0.919373	1.489193	-6.312983	0.044697	0.112807	302.51	4.02	1206.82	210.86	-21.00	1264.279541	1	0	0	0	0
572695	87701.546875	304.07	10.898406	1.005564	0.967257	-6.317240	0.011706	0.114936	302.46	4.02	1209.02	210.74	-20.97	1268.124633	1	0	0	0	0
572705	87685.171875	304.09	10.864887	0.612915	-0.349553	-6.319369	0.007449	0.117064	302.54	4.03	1211.07	210.48	-20.94	1269.742187	1	0	0	0	0
572715	87662.609375	304.07	10.797849	0.770932	-0.569819	-6.323626	0.041504	0.114936	302.57	4.03	1213.16	210.26	-20.91	1271.971191	1	0	0	0	0
572725	87643.140625	304.07	10.931924	0.818816	0.689530	-6.308726	0.042569	0.114936	302.54	4.02	1215.22	210.01	-20.89	1273.895019	1	0	0	0	0
572735	87626.765625	304.09	10.840945	0.737414	0.914585	-6.304469	0.036183	0.110679	302.58	4.03	1217.16	209.65	-20.87	1275.513427	1	0	0	0	0
572745	87604.203125	304.07	10.730812	0.469263	1.211466	-6.298084	0.024477	0.111743	302.55	4.02	1219.17	209.36	-20.84	1277.743652	1	0	0	0	0
572755	87584.734375	304.07	10.682928	0.205901	1.221042	-6.275735	0.006385	0.111743	302.57	4.02	1221.15	209.05	-20.80	1279.668579	1	0	0	0	0
572765	87584.734375	304.07	10.697293	0.430956	-0.349553	-6.257644	-0.002128	0.107486	302.60	4.02	1222.64	208.26	-20.77	1279.668579	1	0	0	0	0
572775	87545.796875	304.07	10.812214	0.569819	-0.924161	-6.242744	0.012770	0.105358	302.55	4.02	1224.72	208.05	-20.76	1283.519287	1	0	0	0	0
572785	87526.328125	304.07	10.587160	0.454898	-1.106121	-6.226781	0.023412	0.106422	302.57	4.02	1226.75	207.80	-20.72	1285.445190	1	0	0	0	0
572795	87506.843750	304.07	10.630255	0.349553	-0.814028	-6.214010	0.038312	0.101101	302.60	4.02	1228.75	207.52	-20.69	1287.372924	1	0	0	0	0
572805	87490.468750	304.09	10.534487	0.397437	-1.316810	-6.200175	0.043633	0.092587	302.61	4.02	1230.66	207.16	-20.66	1288.993286	1	0	0	0	0
572815	87487.375000	304.07	10.371681	0.454898	-1.996764	-6.182084	0.037247	0.094716	302.58	4.00	1232.17	206.41	-20.61	1289.299438	1	0	0	0	0
572825	87471.000000	304.09	10.409988	0.483628	-2.044648	-6.156542	0.042569	0.096844	302.55	4.00	1233.70	205.68	-20.57	1290.920166	1	0	0	0	0
572835	87432.062500	304.09	10.534487	0.933738	-2.178723	-6.125679	0.048954	0.095780	302.60	3.98	1235.80	205.53	-20.55	1294.775024	1	0	0	0	0
572845	87409.500000	304.07	10.568006	0.991199	-1.920149	-6.111845	0.040440	0.098972	302.54	4.00	1237.93	205.40	-20.53	1297.009277	1	0	0	0	0
572855	87412.578125	304.09	10.462660	0.924161	-1.077390	-6.106523	0.038312	0.100037	302.57	4.00	1239.46	204.68	-20.50	1296.704467	1	0	0	0	0
572865	87393.109375	304.09	10.481815	0.818816	-0.588973	-6.093753	0.019156	0.104294	302.55	3.98	1241.08	204.07	-20.48	1298.632690	1	0	0	0	0
572875	87354.171875	304.09	10.381258	0.679953	-0.464475	-6.082046	0.023412	0.105358	302.57	4.00	1243.25	204.00	-20.45	1302.490234	1	0	0	0	0
572885	87334.703125	304.09	10.491392	0.852335	-0.478840	-6.073533	0.042569	0.106422	302.60	4.00	1245.37	203.86	-20.44	1304.419555	1	0	0	0	0
572895	87312.156250	304.07	10.472237	0.435744	0.339976	-6.068211	0.052147	0.109615	302.60	3.98	1247.51	203.76	-20.42	1306.654296	1	0	0	0	0
572905	87295.765625	304.09	10.515334	0.292092	0.636857	-6.041606	0.057468	0.110679	302.57	4.00	1249.52	203.53	-20.41	1308.279174	1	0	0	0	0
572915	87276.296875	304.09	10.457872	0.474051	0.914585	-6.028835	0.069174	0.114936	302.57	4.00	1251.51	203.29	-20.40	1310.209594	1	0	0	0	0
572925	87237.343750	304.09	10.419565	0.402225	1.005564	-6.023514	0.064917	0.113872	302.58	3.98	1253.97	203.50	-20.38	1314.072875	1	0	0	0	0
572935	87217.875000	304.09	10.510545	0.268150	1.264138	-6.022449	0.056403	0.116000	302.54	4.00	1256.29	203.58	-20.38	1316.004272	1	0	0	0	0
572945	87198.406250	304.09	10.414776	0.158017	1.436521	-6.012872	0.040440	0.113872	302.55	4.00	1258.52	203.56	-20.36	1317.936035	1	0	0	0	0
572955	87178.937500	304.09	10.275913	0.143652	0.627280	-6.007551	0.046825	0.112807	302.60	4.00	1260.67	203.48	-20.34	1319.868041	1	0	0	0	0
572965	87159.468750	304.09	10.204087	-0.359130	1.230619	-6.004358	0.081945	0.109615	302.57	4.00	1262.77	203.34	-20.31	1321.800537	1	0	0	0	0
572975	87140.000000	304.09	10.251971	0.100556	2.111685	-5.999037	0.065981	0.110679	302.60	4.00	1264.83	203.16	-20.28	1323.733276	1	0	0	0	0
572985	87120.515625	304.09	10.290278	0.090979	1.728613	-5.992651	0.039376	0.102165	302.55	4.01	1266.85	202.95	-20.26	1325.667968	1	0	0	0	0
572995	87081.578125	304.09	10.256759	-0.134075	0.943315	-5.985202	0.038312	0.097908	302.55	3.98	1269.34	203.19	-20.25	1329.535278	1	0	0	0	0
573005	87101.046875	304.09	10.194510	0.095768	0.842759	-5.971367	0.041504	0.089394	302.51	4.00	1270.72	202.36	-20.22	1327.601440	1	0	0	0	0
573015	87042.640625	304.09	10.237606	0.234631	0.943315	-5.946890	0.031926	0.085138	302.64	4.01	1273.20	202.61	-20.20	1333.404052	1	0	0	0	0
573025	87020.093750	304.07	10.194510	0.062249	0.090979	-5.938376	0.036183	0.086202	302.54	4.02	1275.62	202.79	-20.19	1335.644897	1	0	0	0	0
573035	87000.625000	304.07	10.074800	0.043095	0.402225	-5.942633	0.056403	0.073431	302.57	4.02	1277.92	202.86	-20.16	1337.580200	1	0	0	0	0
573045	86981.156250	304.07	10.079588	0.052672	0.545877	-5.938376	0.028734	0.076624	302.52	4.02	1280.13	202.84	-20.13	1339.515869	1	0	0	0	0
573055	86984.234375	304.09	9.950302	0.162805	-0.229843	-5.931991	0.032990	0.073431	302.60	4.02	1281.71	202.21	-20.09	1339.209838	1	0	0	0	0
573065	86961.687500	304.07	9.926360	0.234631	-0.363918	-5.913898	0.048954	0.073431	302.57	4.02	1283.46	201.74	-20.06	1341.451904	1	0	0	0	0
573075	86945.281250	304.09	9.950302	0.138863	0.861912	-5.904321	0.045761	0.067046	302.54	4.02	1285.17	201.24	-20.03	1343.083618	1	0	0	0	0
573085	86922.750000	304.07	9.993397	0.129286	0.746990	-5.893678	0.029798	0.065981	302.60	4.02	1287.01	200.88	-20.01	1345.324951	1	0	0	0	0
573095	86903.281250	304.07	9.969455	0.464475	0.095768	-5.890486	0.059596	0.064917	302.57	4.02	1288.87	200.54	-19.98	1347.261962	1	0	0	0	0
573105	86867.406250	304.09	9.950302	0.651222	-0.014365	-5.870265	0.071303	0.065981	302.60	4.02	1291.15	200.61	-19.96	1350.832275	1	0	0	0	0
573115	86867.406250	304.09	9.864110	0.799663	-0.670376	-5.864944	0.077688	0.067046	302.57	4.02	1292.87	200.14	-19.93	1350.832275	1	0	0	0	0
573125	86864.343750	304.07	9.801861	0.732625	-1.340752	-5.853238	0.079816	0.071303	302.55	4.02	1294.23	199.32	-19.90	1351.137084	1	0	0	0	0
573135	86828.468750	304.09	9.672574	0.560243	-1.216254	-5.841532	0.084073	0.069174	302.58	4.02	1296.14	199.04	-19.86	1354.708740	1	0	0	0	0
573145	86808.984375	304.09	9.672574	1.000776	-1.470039	-5.828761	0.077688	0.083009	302.58	4.02	1298.05	198.77	-19.82	1356.649047	1	0	0	0	0
573155	86786.453125	304.07	9.840168	1.264138	-0.900219	-5.818119	0.067046	0.084073	302.60	4.02	1300.04	198.58	-19.80	1358.893188	1	0	0	0	0
573165	86747.515625	304.07	9.801861	1.063025	-0.871489	-5.824504	0.065981	0.091523	302.60	4.01	1302.50	198.84	-19.79	1362.772583	1	0	0	0	0
573175	86708.578125	304.07	9.744400	0.603338	-0.387860	-5.823440	0.072367	0.096844	302.51	4.02	1305.32	199.45	-19.77	1366.653442	1	0	0	0	0
573185	86711.640625	304.09	9.749189	0.478840	-0.057460	-5.820247	0.068110	0.101101	302.60	4.02	1307.36	199.30	-19.75	1366.348144	1	0	0	0	0
573195	86711.640625	304.09	9.615114	0.359130	0.905008	-5.821311	0.067046	0.105358	302.61	4.02	1308.90	198.66	-19.71	1366.348144	1	0	0	0	0
573205	86669.640625	304.07	9.806650	0.071826	1.316810	-5.807476	0.046825	0.103229	302.52	4.02	1311.09	198.67	-19.70	1370.535644	1	0	0	0	0
573215	86633.750000	304.09	9.782708	0.248996	-0.062249	-5.809605	0.028734	0.107486	302.61	4.00	1313.62	199.00	-19.70	1374.115356	1	0	0	0	0
573225	86633.750000	304.09	9.519346	0.545877	-1.618480	-5.796834	0.043633	0.107486	302.60	3.98	1315.53	198.73	-19.66	1374.115356	1	0	0	0	0
573235	86633.750000	304.09	9.720458	0.114921	-0.277727	-5.794706	0.055339	0.102165	302.58	4.00	1316.96	198.00	-19.64	1374.115356	1	0	0	0	0
573245	86614.281250	304.09	9.452307	0.000000	-0.507570	-5.787256	0.038312	0.100037	302.58	4.00	1318.51	197.39	-19.61	1376.057617	1	0	0	0	0
573255	86575.343750	304.09	9.552865	0.038307	-0.478840	-5.779806	0.030862	0.101101	302.58	4.00	1320.64	197.34	-19.58	1379.943237	1	0	0	0	0
573265	86555.875000	304.09	9.481039	0.248996	0.186747	-5.774486	0.031926	0.091523	302.58	4.00	1322.72	197.26	-19.55	1381.886596	1	0	0	0	0
573275	86555.875000	304.09	9.452307	0.210689	0.272938	-5.772357	0.030862	0.088330	302.60	4.00	1324.29	196.67	-19.52	1381.886596	1	0	0	0	0
573285	86516.937500	304.09	9.476249	0.143652	-0.339976	-5.772357	0.028734	0.085138	302.57	4.00	1326.42	196.64	-19.50	1385.774291	1	0	0	0	0
573295	86513.875000	304.07	9.380481	0.114921	-0.545877	-5.755329	0.034055	0.077688	302.54	4.00	1328.10	196.17	-19.47	1386.080200	1	0	0	0	0
573305	86477.984375	304.09	9.356539	0.383072	-0.517147	-5.751072	0.027669	0.079816	302.52	4.00	1330.26	196.17	-19.44	1389.665039	1	0	0	0	0
573315	86458.515625	304.09	9.409212	0.517147	0.057460	-5.752137	0.030862	0.077688	302.54	3.98	1332.36	196.11	-19.42	1391.610107	1	0	0	0	0
573325	86458.515625	304.09	9.375693	0.368707	0.359130	-5.746816	0.037247	0.074495	302.57	3.98	1333.93	195.54	-19.40	1391.610107	1	0	0	0	0
573335	86439.046875	304.09	9.390058	0.287304	0.191536	-5.754265	0.029798	0.072367	302.54	3.98	1335.60	195.07	-19.37	1393.555664	1	0	0	0	0
573345	86400.109375	304.09	9.346962	0.608127	-0.071826	-5.751072	0.032990	0.071303	302.52	4.00	1337.81	195.14	-19.35	1397.447631	1	0	0	0	0
573355	86380.640625	304.09	9.284713	0.248996	-0.153228	-5.756393	0.028734	0.063853	302.52	3.98	1339.96	195.14	-19.33	1399.394165	1	0	0	0	0
573365	86361.156250	304.09	9.179368	0.162805	-1.206677	-5.750008	0.020220	0.063853	302.54	3.98	1342.06	195.09	-19.30	1401.342651	1	0	0	0	0
573375	86341.687500	304.09	9.155426	0.378283	-1.029506	-5.742558	0.035119	0.067046	302.60	4.00	1344.12	195.01	-19.27	1403.289916	1	0	0	0	0
573385	86319.171875	304.07	9.212887	0.842759	-0.287304	-5.735109	0.042569	0.069174	302.55	4.00	1346.23	194.97	-19.24	1405.542358	1	0	0	0	0
573395	86299.703125	304.07	9.289502	0.603338	-0.043095	-5.726595	0.026605	0.068110	302.57	4.00	1348.30	194.90	-19.23	1407.490356	1	0	0	0	0
573405	86302.750000	304.09	9.428365	0.225054	-0.675164	-5.718081	0.038312	0.068110	302.54	3.98	1349.77	194.25	-19.23	1407.185424	1	0	0	0	0
573415	86280.234375	304.07	9.232041	0.124498	-0.359130	-5.709568	0.039376	0.065981	302.57	4.02	1351.44	193.79	-19.21	1409.438720	1	0	0	0	0
573425	86241.296875	304.07	9.232041	0.474051	-0.890643	-5.697861	0.035119	0.069174	302.60	4.02	1353.66	193.87	-19.19	1413.336547	1	0	0	0	0
573435	86241.296875	304.07	9.145850	0.751779	-1.163581	-5.682962	0.031926	0.073431	302.54	4.02	1355.32	193.42	-19.17	1413.336547	1	0	0	0	0
573445	86205.390625	304.09	9.117119	0.718260	-0.670376	-5.679769	0.041504	0.070238	302.57	4.02	1357.47	193.43	-19.14	1416.932128	1	0	0	0	0
573455	86202.359375	304.07	9.088389	0.565031	-1.039083	-5.673384	0.046825	0.072367	302.60	4.02	1359.15	193.00	-19.12	1417.235717	1	0	0	0	0
573465	86182.890625	304.07	8.954314	0.378283	-0.723048	-5.663806	0.072367	0.071303	302.52	4.02	1360.90	192.63	-19.08	1419.185913	1	0	0	0	0
573475	86146.984375	304.09	8.963891	0.627280	-0.426167	-5.655292	0.073431	0.080881	302.54	4.02	1363.10	192.72	-19.05	1422.783569	1	0	0	0	0
573485	86146.984375	304.09	9.064447	0.689530	-0.512359	-5.646778	0.074495	0.081945	302.57	4.02	1364.76	192.27	-19.04	1422.783569	1	0	0	0	0
573495	86105.000000	304.07	9.107542	0.545877	-0.316034	-5.639329	0.079816	0.081945	302.55	4.02	1367.05	192.44	-19.03	1426.991699	1	0	0	0	0
573505	86088.578125	304.09	9.006986	0.416591	0.933738	-5.641457	0.072367	0.087266	302.57	4.02	1369.18	192.45	-19.01	1428.638061	1	0	0	0	0
573515	86085.531250	304.07	9.045293	0.354341	0.445321	-5.635072	0.051082	0.090459	302.58	4.03	1370.86	192.02	-18.99	1428.943603	1	0	0	0	0
573525	86066.062500	304.07	9.011775	0.397437	0.057460	-5.629751	0.044697	0.092587	302.55	4.02	1372.60	191.66	-18.97	1430.895874	1	0	0	0	0
573535	86030.156250	304.09	8.916007	0.445321	-0.263362	-5.628686	0.058532	0.091523	302.57	4.02	1374.80	191.75	-18.95	1434.497436	1	0	0	0	0
573545	86007.656250	304.07	8.911218	0.359130	0.287304	-5.628686	0.069174	0.090459	302.54	4.02	1377.02	191.85	-18.93	1436.754882	1	0	0	0	0
573555	85988.187500	304.07	8.911218	0.263362	1.005564	-5.630815	0.057468	0.093651	302.51	4.02	1379.17	191.89	-18.91	1438.708618	1	0	0	0	0
573565	85971.750000	304.09	8.872911	0.617704	0.761356	-5.630815	0.045761	0.094716	302.58	4.01	1381.20	191.81	-18.89	1440.358520	1	0	0	0	0
573575	85968.718750	304.07	8.887276	0.617704	-0.253785	-5.622301	0.043633	0.095780	302.58	4.03	1382.79	191.31	-18.87	1440.662719	1	0	0	0	0
573585	85929.781250	304.07	8.954314	0.062249	0.158017	-5.624430	0.053211	0.091523	302.60	4.02	1384.96	191.37	-18.86	1444.572021	1	0	0	0	0
573595	85910.312500	304.07	8.829815	-0.105344	0.919373	-5.610594	0.031926	0.088330	302.55	4.02	1387.08	191.39	-18.84	1446.527099	1	0	0	0	0
573605	85910.312500	304.07	8.714894	0.196324	0.081402	-5.614852	0.025541	0.086202	302.57	4.02	1388.67	190.89	-18.80	1446.527099	1	0	0	0	0
573615	85893.859375	304.09	8.772355	0.363918	-0.363918	-5.606338	0.018091	0.080881	302.54	4.00	1390.27	190.40	-18.78	1448.179687	1	0	0	0	0
573625	85854.921875	304.09	8.762778	0.373495	-1.034295	-5.596760	0.026605	0.076624	302.60	4.00	1392.44	190.48	-18.76	1452.091796	1	0	0	0	0
573635	85835.453125	304.09	8.686163	0.306457	-0.411802	-5.594632	0.034055	0.075559	302.57	4.00	1394.56	190.50	-18.74	1454.048339	1	0	0	0	0
573645	85835.453125	304.09	8.743624	-0.038307	0.225054	-5.592503	0.039376	0.071303	302.55	4.00	1396.16	190.01	-18.72	1454.048339	1	0	0	0	0
573655	85796.515625	304.09	8.705317	0.450109	-0.062249	-5.579732	0.027669	0.072367	302.57	4.00	1398.32	190.09	-18.70	1457.962402	1	0	0	0	0
573665	85796.515625	304.09	8.652645	0.579396	-0.167594	-5.576539	0.019156	0.069174	302.55	4.00	1399.95	189.64	-18.67	1457.962402	1	0	0	0	0
573675	85777.046875	304.09	8.609549	0.430956	-0.158017	-5.578668	0.025541	0.069174	302.55	4.00	1401.66	189.27	-18.65	1459.920043	1	0	0	0	0
573685	85757.562500	304.09	8.614337	0.354341	-0.608127	-5.568026	0.031926	0.069174	302.51	3.98	1403.42	188.96	-18.63	1461.879638	1	0	0	0	0
573695	85738.093750	304.09	8.604761	0.545877	-0.847547	-5.559512	0.039376	0.071303	302.54	4.00	1405.24	188.70	-18.60	1463.838012	1	0	0	0	0
573705	85696.140625	304.07	8.427589	0.914585	-0.502782	-5.554191	0.039376	0.074495	302.58	4.00	1407.65	189.03	-18.57	1468.059204	1	0	0	0	0
573715	85718.625000	304.09	8.532935	0.588973	-0.579396	-5.545677	0.025541	0.073431	302.58	4.00	1408.89	188.22	-18.55	1465.796630	1	0	0	0	0
573725	85679.687500	304.09	8.508993	0.474051	-0.560243	-5.545677	0.027669	0.077688	302.57	4.00	1410.80	188.07	-18.52	1469.715087	1	0	0	0	0
573735	85660.218750	304.09	8.590395	0.459686	-0.402225	-5.544612	0.045761	0.078752	302.52	4.00	1412.72	187.92	-18.51	1471.674926	1	0	0	0	0
573745	85657.187500	304.07	8.585607	0.296881	0.043095	-5.535035	0.039376	0.075559	302.58	4.00	1414.24	187.39	-18.50	1471.980102	1	0	0	0	0
573755	85621.281250	304.09	8.384493	0.244208	0.114921	-5.530778	0.053211	0.078752	302.54	4.00	1416.27	187.36	-18.47	1475.595581	1	0	0	0	0
573765	85621.281250	304.09	8.341398	0.727837	-0.043095	-5.522264	0.055339	0.078752	302.51	4.00	1417.80	186.84	-18.44	1475.595581	1	0	0	0	0
573775	85598.781250	304.07	8.485051	0.488417	0.158017	-5.525457	0.029798	0.077688	302.58	4.00	1419.51	186.51	-18.42	1477.861816	1	0	0	0	0
573785	85582.328125	304.09	8.489839	0.143652	-0.861912	-5.520135	0.020220	0.078752	302.54	4.00	1421.20	186.16	-18.41	1479.519287	1	0	0	0	0
573795	85562.859375	304.09	8.346186	0.474051	-0.746990	-5.511622	0.037247	0.079816	302.55	4.00	1422.96	185.87	-18.38	1481.480834	1	0	0	0	0
573805	85543.390625	304.09	8.418012	0.732625	0.062249	-5.502043	0.025541	0.083009	302.54	3.98	1424.77	185.64	-18.37	1483.442749	1	0	0	0	0
573815	85543.390625	304.09	8.269572	0.814028	-0.277727	-5.494594	0.018091	0.085138	302.57	4.02	1426.12	184.97	-18.34	1483.442749	1	0	0	0	0
573825	85504.453125	304.09	8.245630	0.421379	-0.272938	-5.490337	0.015963	0.083009	302.55	4.02	1428.11	184.93	-18.31	1487.367797	1	0	0	0	0
573835	85501.437500	304.07	8.293514	0.632069	0.071826	-5.492465	0.022348	0.085138	302.61	4.02	1429.68	184.48	-18.29	1487.671752	1	0	0	0	0
573845	85462.500000	304.07	8.446743	0.842759	-0.081402	-5.482888	0.010642	0.088330	302.58	4.03	1431.83	184.59	-18.29	1491.598388	1	0	0	0	0
573855	85443.031250	304.07	8.250418	1.015141	0.047884	-5.472245	-0.001064	0.089394	302.55	4.02	1433.94	184.67	-18.27	1493.562133	1	0	0	0	0
573865	85423.546875	304.07	8.159439	0.689530	-0.363918	-5.464796	0.009578	0.090459	302.52	4.02	1436.01	184.71	-18.24	1495.527954	1	0	0	0	0
573875	85423.546875	304.07	8.355763	0.656011	0.268150	-5.454154	0.012770	0.094716	302.54	4.02	1437.57	184.24	-18.23	1495.527954	1	0	0	0	0
573885	85387.625000	304.09	8.475473	1.005564	0.593762	-5.446704	0.028734	0.089394	302.58	4.02	1439.64	184.28	-18.23	1499.152954	1	0	0	0	0
573895	85384.609375	304.07	8.303091	1.436521	0.593762	-5.470117	0.023412	0.105358	302.61	4.02	1441.27	183.89	-18.22	1499.457397	1	0	0	0	0
573905	85384.609375	304.07	8.216899	1.608903	-0.162805	-5.478631	0.017027	0.114936	302.54	4.02	1442.49	183.11	-18.20	1499.457397	1	0	0	0	0
573915	85326.203125	304.07	8.121131	1.752555	-1.321599	-5.480759	0.011706	0.121321	302.58	4.02	1444.87	183.47	-18.18	1505.354248	1	0	0	0	0
573925	85326.203125	304.07	8.135497	1.288080	-2.059013	-5.470117	0.009578	0.126642	302.60	4.02	1446.66	183.24	-18.15	1505.354248	1	0	0	0	0
573935	85309.750000	304.09	8.135497	0.861912	-1.326387	-5.467988	0.010642	0.133028	302.63	4.02	1448.41	182.99	-18.13	1507.015991	1	0	0	0	0
573945	85309.750000	304.09	8.140285	0.852335	-0.536301	-5.467988	0.010642	0.138349	302.57	4.02	1449.73	182.31	-18.11	1507.015991	1	0	0	0	0
573955	85270.796875	304.09	8.130708	1.182735	-1.340752	-5.457346	0.008513	0.144734	302.60	4.03	1451.69	182.27	-18.10	1510.951293	1	0	0	0	0
573965	85248.328125	304.07	8.135497	1.632845	-1.398213	-5.455218	0.018091	0.147927	302.54	4.03	1453.73	182.30	-18.08	1513.221801	1	0	0	0	0
573975	85248.328125	304.07	8.049305	1.216254	-1.043871	-5.445640	0.018091	0.152184	302.57	4.02	1455.26	181.84	-18.06	1513.221801	1	0	0	0	0
573985	85231.859375	304.09	8.025363	0.746990	-0.732625	-5.441383	0.020220	0.152184	302.55	4.02	1456.82	181.42	-18.03	1514.886352	1	0	0	0	0
573995	85209.390625	304.07	7.943961	0.703895	-0.450109	-5.422227	0.029798	0.156441	302.57	4.02	1458.56	181.16	-18.01	1517.157836	1	0	0	0	0
574005	85189.906250	304.07	8.044517	0.531512	-0.488417	-5.412649	0.025541	0.157505	302.54	4.02	1460.35	180.96	-17.99	1519.127929	1	0	0	0	0
574015	85173.453125	304.09	8.087613	0.402225	-0.919373	-5.386043	0.032990	0.157505	302.57	3.98	1462.11	180.74	-17.98	1520.791870	1	0	0	0	0
574025	85153.984375	304.09	8.087613	0.330399	-1.063025	-5.375401	0.035119	0.158569	302.57	4.00	1463.92	180.56	-17.97	1522.760986	1	0	0	0	0
574035	85153.984375	304.09	7.958326	0.124498	-0.349553	-5.362630	0.038312	0.156441	302.54	4.00	1465.28	179.95	-17.95	1522.760986	1	0	0	0	0
574045	85134.500000	304.09	7.900865	0.167594	-1.154005	-5.355181	0.042569	0.153248	302.60	3.98	1466.78	179.49	-17.93	1524.732177	1	0	0	0	0
574055	85115.031250	304.09	7.852981	0.287304	-1.637633	-5.336025	0.040440	0.151119	302.57	3.98	1468.40	179.14	-17.90	1526.702148	1	0	0	0	0
574065	85115.031250	304.09	7.833827	0.531512	-1.666364	-5.334960	0.053211	0.147927	302.55	4.00	1469.61	178.40	-17.87	1526.702148	1	0	0	0	0
574075	85076.093750	304.09	7.876923	0.445321	-1.158793	-5.325382	0.055339	0.147927	302.54	4.00	1471.50	178.32	-17.85	1530.643066	1	0	0	0	0
574085	85056.625000	304.09	7.862558	0.339976	-0.924161	-5.321125	0.058532	0.145798	302.51	3.98	1473.41	178.27	-17.84	1532.614135	1	0	0	0	0
574095	85034.156250	304.07	7.991845	0.287304	-0.799663	-5.306226	0.064917	0.145798	302.52	4.00	1475.40	178.30	-17.83	1534.889404	1	0	0	0	0
574105	85014.687500	304.07	7.934384	0.014365	-0.995987	-5.293456	0.061725	0.143670	302.57	3.98	1477.40	178.32	-17.83	1536.861206	1	0	0	0	0
574115	84998.203125	304.09	7.728482	-0.177170	-1.173158	-5.276428	0.071303	0.139413	302.60	4.00	1479.31	178.27	-17.80	1538.531005	1	0	0	0	0
574125	84978.734375	304.09	7.805097	-0.205901	-1.642422	-5.256207	0.089394	0.136220	302.55	3.98	1481.23	178.24	-17.78	1540.503540	1	0	0	0	0
574135	84956.265625	304.07	7.714117	-0.114921	-1.283292	-5.240244	0.091523	0.134092	302.58	4.00	1483.25	178.29	-17.76	1542.780395	1	0	0	0	0
574145	84959.265625	304.09	7.608772	0.110133	-1.254561	-5.224281	0.097908	0.131963	302.51	4.00	1484.68	177.78	-17.72	1542.476318	1	0	0	0	0
574155	84936.796875	304.07	7.790732	-0.225054	-0.268150	-5.214703	0.100037	0.129835	302.60	4.00	1486.33	177.47	-17.71	1544.753662	1	0	0	0	0
574165	84917.328125	304.07	7.824251	-0.201112	0.090979	-5.214703	0.095780	0.126642	302.57	4.00	1488.05	177.24	-17.70	1546.727294	1	0	0	0	0
574175	84897.859375	304.07	7.690175	-0.081402	-0.196324	-5.198740	0.088330	0.122385	302.54	4.00	1489.83	177.08	-17.68	1548.701416	1	0	0	0	0
574185	84861.921875	304.09	7.656656	-0.287304	-0.330399	-5.192354	0.095780	0.120257	302.54	3.98	1492.08	177.37	-17.66	1552.346191	1	0	0	0	0
574195	84861.921875	304.09	7.690175	-0.258573	-0.809240	-5.188097	0.101101	0.117064	302.57	3.98	1493.77	177.11	-17.65	1552.346191	1	0	0	0	0
574205	84822.968750	304.09	7.661445	-0.330399	-0.612915	-5.188097	0.102165	0.110679	302.58	3.98	1496.02	177.40	-17.63	1556.298217	1	0	0	0	0
574215	84800.515625	304.07	7.637503	-0.416591	-0.359130	-5.177455	0.108550	0.104294	302.63	4.02	1498.28	177.70	-17.61	1558.576904	1	0	0	0	0
574225	84800.515625	304.07	7.536946	-0.450109	0.292092	-5.174262	0.092587	0.102165	302.58	4.03	1499.98	177.45	-17.59	1558.576904	1	0	0	0	0
574235	84761.578125	304.07	7.647079	-0.550666	0.555454	-5.168941	0.075559	0.095780	302.58	4.02	1502.24	177.75	-17.58	1562.529785	1	0	0	0	0
574245	84764.562500	304.09	7.556100	-0.541089	0.746990	-5.171070	0.059596	0.088330	302.58	4.02	1503.86	177.42	-17.55	1562.226684	1	0	0	0	0
574255	84722.625000	304.07	7.560888	-0.756567	0.330399	-5.160428	0.053211	0.081945	302.61	4.02	1506.14	177.74	-17.54	1566.485595	1	0	0	0	0
574265	84722.625000	304.07	7.498639	-0.756567	0.162805	-5.156171	0.057468	0.070238	302.60	4.02	1507.85	177.50	-17.52	1566.485595	1	0	0	0	0
574275	84722.625000	304.07	7.474697	-0.459686	0.004788	-5.151914	0.048954	0.065981	302.58	4.02	1509.13	176.85	-17.49	1566.485595	1	0	0	0	0
574285	84686.671875	304.09	7.489062	-0.311246	-0.416591	-5.140207	0.059596	0.058532	302.55	4.02	1511.00	176.78	-17.47	1570.138183	1	0	0	0	0
574295	84664.218750	304.07	7.541735	-0.574608	0.114921	-5.131693	0.070238	0.046825	302.51	4.02	1512.97	176.80	-17.46	1572.419799	1	0	0	0	0
574305	84644.750000	304.07	7.580042	-0.407014	0.799663	-5.139143	0.062789	0.042569	302.60	4.02	1514.94	176.83	-17.45	1574.398559	1	0	0	0	0
574315	84628.265625	304.09	7.498639	-0.196324	0.799663	-5.139143	0.048954	0.037247	302.52	4.02	1516.84	176.78	-17.44	1576.074340	1	0	0	0	0
574325	84608.796875	304.09	7.441178	-0.181959	0.943315	-5.139143	0.038312	0.031926	302.52	4.02	1518.76	176.76	-17.42	1578.053833	1	0	0	0	0
574335	84586.343750	304.07	7.422025	-0.177170	0.517147	-5.131693	0.029798	0.027669	302.58	4.02	1520.77	176.82	-17.40	1580.337158	1	0	0	0	0
574345	84566.875000	304.07	7.311892	-0.153228	-0.038307	-5.124244	0.043633	0.021284	302.55	4.03	1522.78	176.88	-17.38	1582.317504	1	0	0	0	0
574355	84566.875000	304.07	7.302315	0.014365	0.833182	-5.130629	0.038312	0.015963	302.60	4.01	1524.28	176.45	-17.35	1582.317504	1	0	0	0	0
574365	84547.406250	304.07	7.287950	0.086191	0.790086	-5.132757	0.025541	0.012770	302.57	4.02	1525.90	176.14	-17.32	1584.298095	1	0	0	0	0
574375	84547.406250	304.07	7.354987	0.014365	0.071826	-5.122115	0.027669	0.012770	302.57	4.02	1527.11	175.44	-17.31	1584.298095	1	0	0	0	0
574385	84511.437500	304.09	7.402871	0.086191	0.445321	-5.135951	0.040440	0.011706	302.58	4.02	1528.93	175.33	-17.30	1587.958374	1	0	0	0	0
574395	84508.453125	304.07	7.187393	0.258573	0.067037	-5.128500	0.036183	0.010642	302.49	4.02	1530.37	174.85	-17.27	1588.262084	1	0	0	0	0
