,timestamp_s,timestamp_ms,imu1_accel_x,imu1_accel_y,imu1_accel_z,imu1_gyro_x,imu1_gyro_y,imu1_gyro_z,imu1_mag_x,imu1_mag_y,imu1_mag_z,imu2_accel_x,imu2_accel_y,imu2_accel_z,imu2_gyro_x,imu2_gyro_y,imu2_gyro_z,imu2_mag_x,imu2_mag_y,imu2_mag_z,high_g_accel_x,high_g_accel_y,high_g_accel_z,baro1_temp,baro1_pres,baro2_temp,baro2_pres,gps_lat,gps_long,gps_alt,battery_voltage,pyro_cont,heading,vtg,pos_x,pos_y,pos_z,vel_x,vel_y,vel_z,q_x,q_y,q_z,q_w,state,baro_pres_avg,gps_lat_mod,gps_long_mod,imu1_accel_x_real,imu1_accel_y_real,imu1_accel_z_real,imu2_accel_x_real,imu2_accel_y_real,imu2_accel_z_real,imu1_gyro_x_real,imu1_gyro_y_real,imu1_gyro_z_real,imu2_gyro_x_real,imu2_gyro_y_real,imu2_gyro_z_real,imu1_mag_x_real,imu1_mag_y_real,imu1_mag_z_real,imu2_mag_x_real,imu2_mag_y_real,imu2_mag_z_real,imu_accel_x_avg,imu_accel_y_avg,imu_accel_z_avg,imu_gyro_x_avg,imu_gyro_y_avg,imu_gyro_z_avg,imu_mag_x_avg,imu_mag_y_avg,imu_mag_z_avg,high_g_accel_x_real,high_g_accel_y_real,high_g_accel_z_real,baro_temp_avg,baro_height
97116,10268446,0,0,-1359,51,-14,33,72,613,452,-1696,-12,-1373,25,42,-20,-8,675,1826,735,336,-144,336,24.99,0.9942857142857144,25.01,1.0039674315321985,3904.7119140625,-7552.45556640625,14.899999618530272,12.8416748046875,0,0.0,0.0,0.0,0.0,17.18827204702137,0.0,0.0,-17.537111440110113,0.0,0.0,0.0,0.0,13,0.9991265729089565,39.078531901041664,-75.87425944010417,0.0,-9.755537740200001,0.36610185780000004,-0.0861416136,-9.8560362894,0.179461695,-0.017104172225000002,0.0403169773875,0.0879643143,0.051312516675,-0.024434531750000002,-0.0097738127,0.35554,0.26216,-0.98368,0.3915,1.05908,0.4263,-0.0430708068,-9.8057870148,0.2727817764,0.017104172225,0.00794122281875,0.0390952508,0.37352,0.66062,-0.27869,9.88512,-4.23648,9.88512,25.0,-55.38805043207367
97117,10268552,0,4,-1356,46,-6,98,102,615,469,-1739,-3,-1370,28,47,45,30,700,1812,702,384,-160,368,24.99,0.9937922526523564,25.01,1.0034937083641746,3904.7119140625,-7552.45556640625,14.899999618530272,12.859399795532228,0,0.0,0.0,0.0,0.0,18.01562455892749,0.0,0.0,-17.06895040543799,0.0,0.0,0.0,0.0,13,0.9986429805082655,39.078531901041664,-75.87425944010417,0.0287138712,-9.7340023368,0.3302095188,-0.0215354034,-9.834500886,0.20099709840000002,-0.007330359525,0.11972920557500001,0.12461611192500001,0.0574211496125,0.0549776964375,0.036651797625,0.3567,0.27202,-1.00862,0.406,1.0509600000000001,0.40716,0.0035892339000000006,-9.7842516114,0.26560330860000003,0.02504539504375,0.08735345100625,0.080633954775,0.38135,0.66149,-0.30073000000000005,11.29728,-4.7072,10.82656,25.0,-51.16989074125763
97118,10268657,0,1,-1359,60,2,51,91,615,469,-1739,-6,-1375,44,53,-14,6,700,1812,702,448,-96,400,24.99,0.9939698988403652,25.01,1.003878608438194,3904.7119140625,-7552.45556640625,14.899999618530272,12.877124786376951,0,0.0,0.0,0.0,0.0,18.05611079474822,0.0,0.0,-17.073013602675125,0.0,0.0,0.0,0.0,13,0.9989242536392797,39.078531901041664,-75.87425944010417,0.0071784678,-9.755537740200001,0.430708068,-0.0430708068,-9.870393225,0.31585258320000004,0.002443453175,0.062308055962500004,0.1111771194625,0.0647515091375,-0.017104172225000002,0.007330359525,0.3567,0.27202,-1.00862,0.406,1.0509600000000001,0.40716,-0.0179461695,-9.812965482600001,0.3732803256,0.03359748115625,0.022601941868750003,0.05925373949375,0.38135,0.66149,-0.30073000000000005,13.18016,-2.82432,11.768,25.0,-53.62360588150487
97119,10268763,0,8,-1350,60,14,107,95,586,444,-1736,-4,-1380,35,66,35,3,690,1835,730,368,-224,320,24.99,0.994019245003701,25.01,1.0036516160868492,3904.7119140625,-7552.45556640625,14.899999618530272,12.877124786376951,0,0.0,0.0,0.0,0.0,17.799696734369736,0.0,0.0,-17.23409525502019,0.0,0.0,0.0,0.0,13,0.9988354305452751,39.078531901041664,-75.87425944010417,0.0574277424,-9.69093153,0.430708068,-0.0287138712,-9.906285564000001,0.251246373,0.017104172225000002,0.13072474486250002,0.1160640258125,0.080633954775,0.0427604305625,0.0036651797625,0.33988,0.25752,-1.00688,0.4002,1.0643,0.4234,0.0143569356,-9.798608547,0.3409772205,0.048869063500000004,0.08674258771250001,0.0598646027875,0.37004000000000004,0.66091,-0.29174,10.82656,-6.59008,9.4144,25.0,-52.84883732005591
97120,10268868,0,8,-1358,47,0,75,76,586,444,-1736,2,-1374,28,61,10,-17,690,1835,730,384,-160,352,24.97,0.994029114236368,25.01,1.0039279546015298,3904.7119140625,-7552.45556640625,14.899999618530272,12.877124786376951,0,0.0,0.0,0.0,0.0,17.58090177010833,0.0,0.0,-17.363415063219424,0.0,0.0,0.0,0.0,13,0.9989785344189489,39.078531901041664,-75.87425944010417,0.0574277424,-9.7483592724,0.3373879866,0.0143569356,-9.8632147572,0.20099709840000002,0.0,0.09162949406250001,0.09285122065000001,0.0745253218375,0.012217265875000001,-0.0207693519875,0.33988,0.25752,-1.00688,0.4002,1.0643,0.4234,0.035892339,-9.8057870148,0.2691925425,0.03726266091875,0.05192337996875,0.03604093433125,0.37004000000000004,0.66091,-0.29174,11.29728,-4.7072,10.35584,24.990000000000002,-54.0920645722189
97121,10268973,0,-12,-1357,36,18,72,82,610,460,-1696,-25,-1378,24,58,4,-12,722,1827,734,416,-128,368,24.98,0.9939402911423636,25.01,1.0034443622008389,3904.7119140625,-7552.45556640625,14.899999618530272,12.859399795532228,0,0.0,0.0,0.0,0.0,18.115888195695412,0.0,0.0,-17.067273040299526,0.0,0.0,0.0,0.0,13,0.9986923266716012,39.078531901041664,-75.87425944010417,-0.0861416136,-9.7411808046,0.2584248408,-0.179461695,-9.8919286284,0.1722832272,0.021991078575,0.0879643143,0.100181580175,0.07086014207500001,0.00488690635,-0.01466071905,0.3538,0.2668,-0.98368,0.41876,1.05966,0.42572,-0.13280165430000002,-9.8165547165,0.215354034,0.046425610325000005,0.046425610325,0.04276043056250001,0.38628,0.66323,-0.27898,12.23872,-3.76576,10.82656,24.995,-51.59802500456658
97122,10269079,0,3,-1358,46,-11,46,80,610,460,-1696,-4,-1376,25,35,-4,-7,722,1827,734,432,-160,448,24.99,0.994019245003701,25.01,1.003829262274858,3904.7119140625,-7552.45556640625,14.899999618530272,12.8416748046875,0,0.0,0.0,0.0,0.0,17.987034192229615,0.0,0.0,-17.161139354997154,0.0,0.0,0.0,0.0,13,0.9989242536392795,39.078531901041664,-75.87425944010417,0.0215354034,-9.7483592724,0.3302095188,-0.0287138712,-9.8775716928,0.179461695,-0.0134389924625,0.056199423025,0.09773812700000001,0.0427604305625,-0.00488690635,-0.008552086112500001,0.3538,0.2668,-0.98368,0.41876,1.05966,0.42572,-0.0035892339000000006,-9.8129654826,0.2548356069,0.01466071905,0.0256562583375,0.044593020443750006,0.38628,0.66323,-0.27898,12.70944,-4.7072,13.18016,25.0,-53.623605881499785
97123,10269184,0,20,-1356,45,-14,63,128,585,471,-1713,13,-1380,21,40,4,54,717,1817,734,384,-48,416,24.99,0.9939501603750308,25.02,1.0034641006661733,3904.7119140625,-7552.45556640625,14.899999618530272,12.89484977722168,0,0.0,0.0,0.0,0.0,18.446418441391533,0.0,0.0,-16.921982431247194,0.0,0.0,0.0,0.0,13,0.9987071305206021,39.078531901041664,-75.87425944010417,0.143569356,-9.7340023368,0.323031051,0.0933200814,-9.906285564000001,0.1507478238,-0.017104172225000002,0.0769687750125,0.1563810032,0.048869063500000004,0.00488690635,0.06597323572500001,0.3393,0.27318,-0.99354,0.41586,1.05386,0.42572,0.1184447187,-9.8201439504,0.2368894374,0.0158824456375,0.04092784068125,0.1111771194625,0.37758,0.66352,-0.28391,11.29728,-1.41216,12.23872,25.005,-51.72958238788969
97124,10269290,0,5,-1355,51,-8,43,94,585,471,-1713,-10,-1374,35,40,-11,14,717,1817,734,416,-240,336,25.0,0.9940488527017024,25.01,1.0036812237848507,3904.7119140625,-7552.45556640625,14.899999618530272,12.89484977722168,0,0.0,0.0,0.0,0.0,17.678825899451667,0.0,0.0,-17.370154688077314,0.0,0.0,0.0,0.0,13,0.9988650382432765,39.078531901041664,-75.87425944010417,0.035892339,-9.726823869,0.36610185780000004,-0.071784678,-9.8632147572,0.251246373,-0.0097738127,0.0525342432625,0.114842299225,0.048869063500000004,-0.0134389924625,0.017104172225000002,0.3393,0.27318,-0.99354,0.41586,1.05386,0.42572,-0.0179461695,-9.7950193131,0.3086741154,0.0195476254,0.0195476254,0.065973235725,0.37758,0.66352,-0.28391,12.23872,-7.0608,9.88512,25.005000000000003,-53.10955472515509
97125,10269395,0,12,-1353,35,13,103,83,597,485,-1717,6,-1376,15,63,48,-1,726,1838,753,384,-128,336,25.0,0.994147545028374,25.0,1.00413520848754,3904.7119140625,-7552.45556640625,14.899999618530272,12.859399795532228,0,0.0,0.0,0.0,0.0,16.630430021363743,0.0,0.0,-17.950572687795326,0.0,0.0,0.0,0.0,13,0.9991413767579569,39.078531901041664,-75.87425944010417,0.0861416136,-9.7124669334,0.251246373,0.0430708068,-9.8775716928,0.107677017,0.0158824456375,0.1258378385125,0.1014033067625,0.0769687750125,0.0586428762,-0.0012217265875,0.34626,0.2813,-0.99586,0.42108,1.06604,0.43674,0.0646062102,-9.7950193131,0.179461695,0.046425610325000005,0.09224035735625,0.0500907900875,0.38367,0.67367,-0.27956,11.29728,-3.76576,9.88512,25.0,-55.519672375674546
97126,10269500,0,4,-1356,47,19,81,67,588,472,-1691,-1,-1379,23,72,15,-18,726,1838,753,352,-144,336,24.98,0.994088329632371,25.01,1.003770046878855,3904.7119140625,-7552.45556640625,14.899999618530272,12.859399795532228,0,0.0,0.0,0.0,0.0,16.602163243477346,0.0,0.0,-17.93071652879847,0.0,0.0,0.0,0.0,13,0.998929188255613,39.078531901041664,-75.87425944010417,0.0287138712,-9.7340023368,0.3373879866,-0.0071784678,-9.8991070962,0.1651047594,0.023212805162500003,0.09895985358750001,0.0818556813625,0.0879643143,0.0183258988125,-0.021991078575,0.34104,0.27376,-0.98078,0.42108,1.06604,0.43674,0.0107677017,-9.8165547165,0.251246373,0.05558855973125,0.058642876200000006,0.02993230139375,0.38106,0.6699,-0.27202,10.35584,-4.23648,9.88512,24.995,-53.664175300761414
97127,10269606,0,2,-1362,37,29,98,71,588,472,-1691,-3,-1378,18,80,47,-8,706,1814,736,416,-80,352,24.98,0.9941376757957068,25.0,1.0039180853688623,3904.7119140625,-7552.45556640625,14.899999618530272,12.859399795532228,0,0.0,0.0,0.0,0.0,16.56795518926917,0.0,0.0,-17.916961735885128,0.0,0.0,0.0,0.0,13,0.9990278805822845,39.078531901041664,-75.87425944010417,0.0143569356,-9.777073143600001,0.26560330860000003,-0.0215354034,-9.8919286284,0.1292124204,0.035430071037500004,0.11972920557500001,0.0867425877125,0.09773812700000001,0.0574211496125,-0.0097738127,0.34104,0.27376,-0.98078,0.40948,1.05212,0.42688,-0.0035892338999999997,-9.834500886,0.19740786450000003,0.06658409901875001,0.08857517759375,0.03848438750625,0.37526000000000004,0.66294,-0.27695000000000003,12.23872,-2.3536,10.35584,24.990000000000002,-54.52489916081849
97128,10269711,0,5,-1358,46,-14,48,108,608,489,-1649,2,-1379,25,29,0,19,706,1814,736,416,-128,336,24.99,0.9941278065630396,25.0,1.0039082161361954,3904.7119140625,-7552.45556640625,14.899999618530272,12.859399795532228,0,0.0,0.0,0.0,0.0,16.537379044658977,0.0,0.0,-17.900834240588612,0.0,0.0,0.0,0.0,13,0.9990180113496174,39.078531901041664,-75.87425944010417,0.035892339,-9.7483592724,0.3302095188,0.0143569356,-9.8991070962,0.179461695,-0.017104172225000002,0.0586428762,0.13194647145000002,0.035430071037500004,0.0,0.023212805162500003,0.35264,0.28362,-0.95642,0.40948,1.05212,0.42688,0.025124637300000002,-9.8237331843,0.2548356069,0.00916294940625,0.0293214381,0.07757963830625,0.38106,0.66787,-0.26477000000000006,12.23872,-3.76576,9.88512,24.994999999999997,-54.44132818735588
97129,10269817,0,5,-1356,48,-13,46,93,608,489,-1649,-8,-1377,28,41,-11,2,716,1834,716,304,-176,368,24.99,0.994019245003701,25.0,1.0038588699728597,3904.7119140625,-7552.45556640625,14.899999618530272,12.89484977722168,0,0.0,0.0,0.0,0.0,16.842900533172376,0.0,0.0,-17.707053005606063,0.0,0.0,0.0,0.0,13,0.9989390574882804,39.078531901041664,-75.87425944010417,0.035892339,-9.7340023368,0.3445664544,-0.0574277424,-9.884750160600001,0.20099709840000002,-0.0158824456375,0.056199423025,0.1136205726375,0.0500907900875,-0.0134389924625,0.002443453175,0.35264,0.28362,-0.95642,0.41528,1.06372,0.41528,-0.0107677017,-9.809376248700001,0.2727817764,0.017104172225000002,0.02138021528125,0.05803201290625,0.38395999999999997,0.67367,-0.27057000000000003,8.94368,-5.17792,10.82656,24.994999999999997,-53.75272600297296
97130,10269922,0,1,-1352,66,-5,46,83,626,461,-1665,-10,-1378,43,44,1,-5,716,1834,716,304,-112,384,24.99,0.994019245003701,25.01,1.0039279546015298,3904.7119140625,-7552.45556640625,14.899999618530272,12.859399795532228,0,0.0,0.0,0.0,0.0,16.563703205367148,0.0,0.0,-17.836737194823158,0.0,0.0,0.0,0.0,13,0.9989735998026155,39.078531901041664,-75.87425944010417,0.0071784678,-9.7052884656,0.4737788748,-0.071784678,-9.8919286284,0.3086741154,-0.0061086329375000005,0.056199423025,0.1014033067625,0.05375596985,0.0012217265875,-0.0061086329375000005,0.36308,0.26738,-0.9657,0.41528,1.06372,0.41528,-0.0323031051,-9.798608547,0.3912264951,0.023823668456250002,0.02871057480625,0.047647336912500005,0.38917999999999997,0.66555,-0.27521,8.94368,-3.29504,11.29728,25.0,-54.05399742939552
97131,10270027,0,3,-1353,66,-2,69,105,626,461,-1665,-9,-1372,45,47,23,18,706,1828,746,368,-96,320,24.98,0.9939304219096964,25.0,1.0039773007648656,3904.7119140625,-7552.45556640625,14.899999618530272,12.859399795532228,0,0.0,0.0,0.0,0.0,16.635667528845378,0.0,0.0,-17.77085297463183,0.0,0.0,0.0,0.0,13,0.998953861337281,39.078531901041664,-75.87425944010417,0.0215354034,-9.7124669334,0.4737788748,-0.0646062102,-9.848857821600001,0.323031051,-0.002443453175,0.0842991345375,0.1282812916875,0.0574211496125,0.0280997115125,0.021991078575,0.36308,0.26738,-0.9657,0.40948,1.06024,0.43268,-0.0215354034,-9.7806623775,0.39840496290000005,0.02748884821875,0.056199423025,0.07513618513124999,0.38628,0.66381,-0.26651,10.82656,-2.82432,9.4144,24.990000000000002,-53.87936575458784
97132,10270133,0,6,-1351,64,22,65,77,616,468,-1664,0,-1373,40,58,18,-8,706,1828,746,416,-160,336,24.99,0.9942166296570442,25.0,1.0037503084135209,3904.7119140625,-7552.45556640625,14.899999618530272,12.89484977722168,0,0.0,0.0,0.0,0.0,16.526497573549133,0.0,0.0,-17.81003007863387,0.0,0.0,0.0,0.0,13,0.9989834690352826,39.078531901041664,-75.87425944010417,0.0430708068,-9.6981099978,0.4594219392,0.0,-9.8560362894,0.287138712,0.026877984925,0.0794122281875,0.09407294723750001,0.07086014207500001,0.021991078575,-0.0097738127,0.35728,0.27144,-0.96512,0.40948,1.06024,0.43268,0.0215354034,-9.7770731436,0.3732803256,0.048869063500000004,0.05070165338125,0.04214956726875001,0.38338,0.66584,-0.26622,12.23872,-4.7072,9.88512,24.994999999999997,-54.140072702386746
97133,10270238,0,-2,-1353,47,24,92,69,616,468,-1664,-12,-1378,25,70,40,-19,707,1810,722,336,-112,336,24.99,0.9941771527263756,24.99,1.0038983469035283,3904.7119140625,-7552.45556640625,14.899999618530272,12.859399795532228,0,0.0,0.0,0.0,0.0,16.257294932349957,0.0,0.0,-17.932458453857702,0.0,0.0,0.0,0.0,13,0.999037749814952,39.078531901041664,-75.87425944010417,-0.0143569356,-9.7124669334,0.3373879866,-0.0861416136,-9.8919286284,0.179461695,0.0293214381,0.11239884605,0.0842991345375,0.085520861125,0.048869063500000004,-0.023212805162500003,0.35728,0.27144,-0.96512,0.41006,1.0498,0.41876,-0.0502492746,-9.8021977809,0.2584248408,0.0574211496125,0.080633954775,0.0305431646875,0.38366999999999996,0.66062,-0.27318,9.88512,-3.29504,9.88512,24.99,-54.61346861233926
97134,10270343,0,5,-1355,34,-3,62,96,603,478,-1677,-4,-1370,15,49,14,15,707,1810,722,480,-144,336,24.99,0.9940685911670368,24.98,1.0039180853688623,3904.7119140625,-7552.45556640625,14.899999618530272,12.89484977722168,0,0.0,0.0,0.0,0.0,16.37419401966818,0.0,0.0,-17.839538672675495,0.0,0.0,0.0,0.0,13,0.9989933382679496,39.078531901041664,-75.87425944010417,0.035892339,-9.726823869,0.24406790520000002,-0.0287138712,-9.834500886,0.107677017,-0.0036651797625,0.075747048425,0.1172857524,0.059864602787500006,0.017104172225000002,0.0183258988125,0.34974,0.27724,-0.97266,0.41006,1.0498,0.41876,0.0035892339000000006,-9.7806623775,0.17587246110000002,0.028099711512500004,0.046425610325000005,0.06780582560625,0.3799,0.66352,-0.27695,14.1216,-4.23648,9.88512,24.985,-54.22614696323018
97135,10270449,0,0,-1353,38,-14,52,83,603,478,-1677,-4,-1375,30,34,1,0,688,1835,721,400,-112,320,24.98,0.9941672834937084,24.97,1.00406612385887,3904.7119140625,-7552.45556640625,14.899999618530272,12.859399795532228,0,0.0,0.0,0.0,0.0,16.420306007832966,0.0,0.0,-17.79202257188047,0.0,0.0,0.0,0.0,13,0.9991167036762891,39.078531901041664,-75.87425944010417,0.0,-9.7124669334,0.2727817764,-0.0287138712,-9.870393225,0.215354034,-0.017104172225000002,0.06352978255,0.1014033067625,0.041538703975,0.0012217265875,0.0,0.34974,0.27724,-0.97266,0.39904,1.0643,0.41818,-0.0143569356,-9.791430079200001,0.2440679052,0.012217265875,0.03237575456875,0.05070165338125,0.37439,0.67077,-0.27724,11.768,-3.29504,9.4144,24.975,-55.29946410720501
97136,10270554,0,5,-1356,57,-28,37,105,605,481,-1719,-3,-1377,37,25,-6,20,688,1835,721,352,-112,352,24.97,0.9939698988403652,24.98,1.0040167776955342,3904.7119140625,-7552.45556640625,14.899999618530272,12.89484977722168,0,0.0,0.0,0.0,0.0,16.49252805731818,0.0,0.0,-17.73434829030851,0.0,0.0,0.0,0.0,13,0.9989933382679497,39.078531901041664,-75.87425944010417,0.035892339,-9.7340023368,0.4091726646,-0.0215354034,-9.884750160600001,0.26560330860000003,-0.034208344450000004,0.0452038837375,0.1282812916875,0.030543164687500002,-0.007330359525,0.024434531750000002,0.3509,0.27898,-0.99702,0.39904,1.0643,0.41818,0.007178467800000001,-9.809376248700001,0.3373879866,-0.0018325898812500008,0.018936762106249998,0.07635791171875,0.37497,0.67164,-0.28942,10.35584,-3.29504,10.35584,24.975,-54.22116768188833
97137,10270660,0,3,-1356,74,-5,35,113,605,481,-1719,-9,-1383,50,37,-17,26,713,1823,743,416,-112,288,25.0,0.994078460399704,24.97,1.0038687392055268,3904.7119140625,-7552.45556640625,14.899999618530272,12.859399795532228,0,0.0,0.0,0.0,0.0,16.313668617074594,0.0,0.0,-17.81174746842601,0.0,0.0,0.0,0.0,13,0.9989735998026155,39.078531901041664,-75.87425944010417,0.0215354034,-9.7340023368,0.5312066172000001,-0.0646062102,-9.9278209674,0.35892339,-0.0061086329375000005,0.0427604305625,0.13805510438750002,0.0452038837375,-0.0207693519875,0.031764891275,0.3509,0.27898,-0.99702,0.41354,1.05734,0.43094,-0.0215354034,-9.8309116521,0.4450650036,0.019547625399999997,0.0109955392875,0.08490999783125,0.38222,0.66816,-0.28304,12.23872,-3.29504,8.47296,24.985,-54.05648129594914
97138,10270765,0,7,-1351,38,19,90,85,615,481,-1719,3,-1371,23,79,45,-5,713,1823,743,400,-128,416,24.99,0.9940093757710338,24.97,1.0042339008142116,3904.7119140625,-7552.45556640625,15.100000381469728,12.859399795532228,0,0.0,0.0,0.0,0.0,15.929320909859236,0.0,0.0,-17.99948806908381,0.0,0.0,0.0,0.0,13,0.9991216382926227,39.078531901041664,-75.87425944010417,0.050249274600000005,-9.6981099978,0.2727817764,0.0215354034,-9.8416793538,0.1651047594,0.023212805162500003,0.109955392875,0.1038467599375,0.09651640041250001,0.0549776964375,-0.0061086329375000005,0.3567,0.27898,-0.99702,0.41354,1.05734,0.43094,0.035892339,-9.7698946758,0.21894326790000002,0.059864602787500006,0.08246654465625,0.048869063500000004,0.38512,0.66816,-0.28304,11.768,-3.76576,12.23872,24.979999999999997,-55.3450202590291
97139,10270870,0,10,-1359,46,-15,62,91,615,481,-1719,4,-1376,20,60,6,2,707,1820,745,416,-96,416,24.98,0.9940389834690352,24.98,1.0038588699728597,3904.7119140625,-7552.45556640625,15.100000381469728,12.89484977722168,0,0.0,0.0,0.0,0.0,16.012149968912055,0.0,0.0,-17.91945323615528,0.0,0.0,0.0,0.0,13,0.9989489267209475,39.078531901041664,-75.87425944010417,0.071784678,-9.755537740200001,0.3302095188,0.0287138712,-9.8775716928,0.143569356,-0.0183258988125,0.075747048425,0.1111771194625,0.07330359525,0.007330359525,0.002443453175,0.3567,0.27898,-0.99702,0.41006,1.0556,0.4321,0.050249274600000005,-9.8165547165,0.2368894374,0.02748884821875,0.041538703975,0.05681028631875,0.38338,0.66729,-0.28246000000000004,12.23872,-2.82432,12.23872,24.98,-53.83632816992579
97140,10270976,0,1,-1352,42,6,94,88,583,469,-1738,-5,-1378,15,60,43,8,707,1820,745,400,-96,384,24.98,0.9941376757957068,25.0,1.004026646928201,3904.7119140625,-7552.45556640625,15.100000381469728,12.859399795532228,0,0.0,0.0,0.0,0.0,15.71685587761628,0.0,0.0,-18.04784305770936,0.0,0.0,0.0,0.0,13,0.9990821613619539,39.078531901041664,-75.87425944010417,0.0071784678,-9.7052884656,0.3014956476,-0.035892339,-9.8919286284,0.107677017,0.007330359525,0.114842299225,0.1075119397,0.07330359525,0.0525342432625,0.0097738127,0.33814,0.27202,-1.00804,0.41006,1.0556,0.4321,-0.0143569356,-9.798608547,0.2045863323,0.0403169773875,0.08368827124375,0.0586428762,0.3741,0.66381,-0.28797000000000006,11.768,-2.82432,11.29728,24.990000000000002,-54.9982541454314
97141,10271081,0,5,-1357,49,-4,41,90,583,469,-1738,1,-1377,29,29,-10,3,710,1823,718,384,-128,272,24.98,0.9939797680730325,24.97,1.0039575622995311,3904.7119140625,-7552.45556640625,15.100000381469728,12.859399795532228,0,0.0,0.0,0.0,0.0,16.445762374573228,0.0,0.0,-17.610380339811428,0.0,0.0,0.0,0.0,13,0.9989686651862818,39.078531901041664,-75.87425944010417,0.035892339,-9.7411808046,0.35174492220000003,0.0071784678,-9.884750160600001,0.2081755662,-0.00488690635,0.0500907900875,0.109955392875,0.035430071037500004,-0.012217265875000001,0.0036651797625,0.33814,0.27202,-1.00804,0.4118,1.05734,0.41644,0.0215354034,-9.812965482600001,0.2799602442,0.015271582343750001,0.01893676210625,0.05681028631875,0.37497,0.6646799999999999,-0.29580000000000006,11.29728,-3.76576,8.00224,24.975,-54.00847699033446
97142,10271187,0,16,-1360,56,-11,81,104,599,457,-1645,6,-1383,37,36,24,22,710,1823,718,352,-176,368,25.02,0.994019245003701,24.99,1.003829262274858,3904.7119140625,-7552.45556640625,15.100000381469728,12.859399795532228,0,0.0,0.0,0.0,0.0,16.493500250769678,0.0,0.0,-17.57018603050326,0.0,0.0,0.0,0.0,13,0.9989242536392795,39.078531901041664,-75.87425944010417,0.1148554848,-9.762716208,0.40199419680000004,0.0430708068,-9.9278209674,0.26560330860000003,-0.0134389924625,0.09895985358750001,0.1270595651,0.04398215715,0.0293214381,0.026877984925,0.34742,0.26506,-0.9541000000000001,0.4118,1.05734,0.41644,0.0789631458,-9.845268587700001,0.33379875270000003,0.01527158234375,0.06414064584375001,0.07696877501249999,0.37961,0.6612,-0.26883,10.35584,-5.17792,10.82656,25.005,-53.631014173498315
97143,10271292,0,0,-1354,59,-9,86,100,607,443,-1736,-11,-1378,36,52,4,8,711,1829,701,384,-48,368,24.98,0.9940389834690352,25.0,1.00413520848754,3904.7119140625,-7552.45556640625,15.100000381469728,12.89484977722168,0,0.0,0.0,0.0,0.0,16.109800506951792,0.0,0.0,-17.768184583539533,0.0,0.0,0.0,0.0,13,0.9990870959782876,39.078531901041664,-75.87425944010417,0.0,-9.719645401200001,0.4235296002,-0.07896314580000001,-9.8919286284,0.2584248408,-0.0109955392875,0.105068486525,0.12217265875000001,0.06352978255,0.00488690635,0.0097738127,0.35206,0.25694,-1.00688,0.41238,1.06082,0.40658,-0.039481572900000005,-9.8057870148,0.3409772205,0.026267121631249998,0.0549776964375,0.06597323572500001,0.38222,0.65888,-0.30015000000000003,11.29728,-1.41216,10.82656,24.990000000000002,-55.04128489886617
97144,10271397,0,5,-1358,64,18,99,88,607,443,-1736,3,-1377,41,69,45,8,707,1826,737,336,-192,304,24.98,0.9942462373550456,24.99,1.0041648161855417,3904.7119140625,-7552.45556640625,15.100000381469728,12.859399795532228,0,0.0,0.0,0.0,0.0,15.915757351398446,0.0,0.0,-17.85551475402258,0.0,0.0,0.0,0.0,13,0.9992055267702936,39.078531901041664,-75.87425944010417,0.035892339,-9.7483592724,0.4594219392,0.0215354034,-9.884750160600001,0.2943171798,0.021991078575,0.12095093216250001,0.1075119397,0.0842991345375,0.0549776964375,0.0097738127,0.35206,0.25694,-1.00688,0.41006,1.05908,0.42746,0.0287138712,-9.8165547165,0.3768695595,0.05314510655625,0.08796431430000001,0.0586428762,0.38105999999999995,0.65801,-0.28971,9.88512,-5.64864,8.94368,24.985,-56.07394709655965
97145,10271503,0,3,-1356,42,1,58,75,595,460,-1703,-1,-1376,31,53,8,-14,707,1826,737,304,-128,368,25.0,0.9939797680730325,24.99,1.0037897853441895,3904.7119140625,-7552.45556640625,15.100000381469728,12.89484977722168,0,0.0,0.0,0.0,0.0,16.404757683694193,0.0,0.0,-17.55333700710972,0.0,0.0,0.0,0.0,13,0.998884776708611,39.078531901041664,-75.87425944010417,0.0215354034,-9.7340023368,0.3014956476,-0.0071784678,-9.8775716928,0.2225325018,0.0012217265875,0.07086014207500001,0.09162949406250001,0.0647515091375,0.0097738127,-0.017104172225000002,0.3451,0.2668,-0.98774,0.41006,1.05908,0.42746,0.007178467799999999,-9.8057870148,0.26201407470000004,0.0329866178625,0.0403169773875,0.03726266091875,0.37758,0.66294,-0.28013999999999994,8.94368,-3.76576,10.82656,24.994999999999997,-53.28173230369191
97146,10271608,0,-6,-1355,57,-17,68,101,595,460,-1703,-15,-1377,30,39,9,12,703,1823,738,368,-144,352,24.98,0.9941376757957068,25.0,1.003760177646188,3904.7119140625,-7552.45556640625,15.100000381469728,12.877124786376951,0,0.0,0.0,0.0,0.0,16.81453721751372,0.0,0.0,-17.318946324061336,0.0,0.0,0.0,0.0,13,0.9989489267209474,39.078531901041664,-75.87425944010417,-0.0430708068,-9.726823869,0.4091726646,-0.107677017,-9.884750160600001,0.215354034,-0.0207693519875,0.08307740795,0.12339438533750001,0.047647336912500005,0.0109955392875,0.01466071905,0.3451,0.2668,-0.98774,0.40774,1.05734,0.42804,-0.0753739119,-9.8057870148,0.3122633493,0.013438992462500002,0.04703647361875,0.06902755219375001,0.37642,0.6620699999999999,-0.27985,10.82656,-4.23648,10.35584,24.990000000000002,-53.836328169920705
97147,10271714,0,4,-1361,51,-20,42,87,583,448,-1668,-3,-1380,30,27,-8,-3,703,1823,738,416,-144,304,24.98,0.9942758450530472,24.98,1.0039773007648656,3904.7119140625,-7552.45556640625,15.100000381469728,12.877124786376951,0,0.0,0.0,0.0,0.0,16.384794344924757,0.0,0.0,-17.5666624772589,0.0,0.0,0.0,0.0,13,0.9991265729089565,39.078531901041664,-75.87425944010417,0.0287138712,-9.7698946758,0.36610185780000004,-0.0215354034,-9.906285564000001,0.215354034,-0.024434531750000002,0.051312516675,0.1062902131125,0.032986617862500005,-0.0097738127,-0.0036651797625,0.33814,0.25984,-0.96744,0.40774,1.05734,0.42804,0.0035892339000000006,-9.8380901199,0.2907279459,0.004276043056250001,0.0207693519875,0.051312516675,0.37294,0.65859,-0.2697,12.23872,-4.23648,8.94368,24.98,-55.38552181966233
97148,10271819,0,5,-1354,69,-14,130,130,583,448,-1668,0,-1372,50,47,67,41,708,1838,731,416,-96,432,24.99,0.9939205526770294,25.0,1.004184554650876,3904.7119140625,-7552.45556640625,15.100000381469728,12.859399795532228,0,0.0,0.0,0.0,0.0,16.671505874303435,0.0,0.0,-17.404933885597288,0.0,0.0,0.0,0.0,13,0.9990525536639527,39.078531901041664,-75.87425944010417,0.035892339,-9.719645401200001,0.4953142782,0.0,-9.848857821600001,0.35892339,-0.017104172225000002,0.158824456375,0.158824456375,0.0574211496125,0.0818556813625,0.0500907900875,0.33814,0.25984,-0.96744,0.41064,1.06604,0.42398,0.0179461695,-9.784251611400002,0.4271188341,0.020158488693749997,0.12034006886875001,0.10445762323125,0.37439,0.6629400000000001,-0.27172999999999997,12.23872,-2.82432,12.70944,24.994999999999997,-54.74257127449634
97149,10271924,0,6,-1355,64,10,60,68,578,452,-1696,4,-1379,49,59,2,-13,708,1838,731,352,-80,336,24.98,0.9941968911917098,25.0,1.00406612385887,3904.7119140625,-7552.45556640625,15.100000381469728,12.877124786376951,0,0.0,0.0,0.0,0.0,16.546511212143024,0.0,0.0,-17.47978187683167,0.0,0.0,0.0,0.0,13,0.9991315075252899,39.078531901041664,-75.87425944010417,0.0430708068,-9.726823869,0.4594219392,0.0287138712,-9.8991070962,0.35174492220000003,0.012217265875000001,0.07330359525,0.08307740795,0.0720818686625,0.002443453175,-0.0158824456375,0.33524,0.26216,-0.98368,0.41064,1.06604,0.42398,0.035892339,-9.8129654826,0.4055834307,0.04214956726875001,0.0378735242125,0.03359748115625,0.37294,0.6641,-0.27985,10.35584,-2.3536,9.88512,24.990000000000002,-55.42855029646097
97150,10272030,0,19,-1358,46,21,105,69,578,452,-1696,10,-1380,14,75,50,-25,723,1844,710,352,-144,304,25.0,0.994078460399704,25.0,1.003819393042191,3904.7119140625,-7552.45556640625,15.100000381469728,12.89484977722168,0,0.0,0.0,0.0,0.0,16.60573072212795,0.0,0.0,-17.44067459505842,0.0,0.0,0.0,0.0,13,0.9989489267209475,39.078531901041664,-75.87425944010417,0.1363908882,-9.7483592724,0.3302095188,0.071784678,-9.906285564000001,0.10049854920000001,0.0256562583375,0.1282812916875,0.0842991345375,0.09162949406250001,0.061086329375000005,-0.030543164687500002,0.33524,0.26216,-0.98368,0.41934,1.06952,0.4118,0.1040877831,-9.827322418200001,0.215354034,0.058642876200000006,0.09468381053125,0.026877984925,0.37729,0.66584,-0.28593999999999997,10.35584,-4.23648,8.94368,25.0,-53.841281467357774
97151,10272135,0,2,-1364,45,-10,44,73,596,451,-1701,-8,-1372,32,53,-14,-19,723,1844,710,400,-16,336,24.98,0.9942264988897114,25.0,1.00413520848754,3904.7119140625,-7552.45556640625,15.100000381469728,12.859399795532228,0,0.0,0.0,0.0,0.0,16.64252531286905,0.0,0.0,-17.425788069149405,0.0,0.0,0.0,0.0,13,0.9991808536886256,39.078531901041664,-75.87425944010417,0.0143569356,-9.7914300792,0.323031051,-0.0574277424,-9.848857821600001,0.2297109696,-0.012217265875000001,0.05375596985,0.0891860408875,0.0647515091375,-0.017104172225000002,-0.023212805162500003,0.34568,0.26158,-0.98658,0.41934,1.06952,0.4118,-0.0215354034,-9.8201439504,0.2763710103,0.026267121631249998,0.018325898812499998,0.0329866178625,0.38251,0.66555,-0.28739000000000003,11.768,-0.47072,9.88512,24.990000000000002,-55.85882115292992
97152,10272240,0,-6,-1355,63,-8,86,111,596,451,-1701,-10,-1380,40,45,22,20,696,1839,758,416,-160,416,25.0,0.994078460399704,24.99,1.0036910930175178,3904.7119140625,-7552.45556640625,15.100000381469728,12.877124786376951,0,0.0,0.0,0.0,0.0,16.97464601964059,0.0,0.0,-17.238862197943632,0.0,0.0,0.0,0.0,13,0.9988847767086109,39.078531901041664,-75.87425944010417,-0.0430708068,-9.726823869,0.45224347140000004,-0.071784678,-9.906285564000001,0.287138712,-0.0097738127,0.105068486525,0.13561165121250002,0.0549776964375,0.026877984925,0.024434531750000002,0.34568,0.26158,-0.98658,0.40368,1.06662,0.43964,-0.0574277424,-9.8165547165,0.36969109170000003,0.02260194186875,0.065973235725,0.08002309148125,0.37468,0.6640999999999999,-0.27347,12.23872,-4.7072,12.23872,24.994999999999997,-53.28173230369191
97153,10272345,0,20,-1352,46,-29,69,119,592,431,-1675,10,-1377,28,29,20,36,696,1839,758,400,-144,368,24.99,0.9939205526770294,25.0,1.004026646928201,3904.7119140625,-7552.45556640625,15.100000381469728,12.877124786376951,0,0.0,0.0,0.0,0.0,17.24620200053124,0.0,0.0,-17.10219068039118,0.0,0.0,0.0,0.0,13,0.9989735998026152,39.078531901041664,-75.87425944010417,0.143569356,-9.7052884656,0.3302095188,0.071784678,-9.884750160600001,0.20099709840000002,-0.035430071037500004,0.0842991345375,0.1453854639125,0.035430071037500004,0.024434531750000002,0.04398215715,0.34336,0.24998,-0.9715,0.40368,1.06662,0.43964,0.10767701700000001,-9.795019313100001,0.26560330860000003,0.0,0.05436683314375,0.09468381053125001,0.37351999999999996,0.6583,-0.26593,11.768,-4.23648,10.82656,24.994999999999997,-54.053997429390435
97154,10272450,0,-1,-1356,67,3,43,83,592,431,-1675,-3,-1376,44,49,-10,4,711,1838,770,448,-48,400,24.99,0.9938613372810264,25.0,1.0039575622995311,3904.7119140625,-7552.45556640625,15.100000381469728,12.859399795532228,0,0.0,0.0,0.0,0.0,16.862162034194398,0.0,0.0,-17.32420640297741,0.0,0.0,0.0,0.0,13,0.9989094497902788,39.078531901041664,-75.87425944010417,-0.0071784678,-9.7340023368,0.4809573426,-0.0215354034,-9.8775716928,0.31585258320000004,0.0036651797625,0.0525342432625,0.1014033067625,0.059864602787500006,-0.012217265875000001,0.00488690635,0.34336,0.24998,-0.9715,0.41238,1.06604,0.4466,-0.0143569356,-9.8057870148,0.39840496290000005,0.031764891275000005,0.02015848869375,0.05314510655625,0.37787000000000004,0.6580100000000001,-0.26245,13.18016,-1.41216,11.768,24.994999999999997,-53.49448348241276
97155,10272556,0,4,-1361,37,-3,24,41,584,455,-1702,-3,-1381,20,58,-17,-47,711,1838,770,432,-96,368,24.99,0.9941080680977054,25.0,1.003819393042191,3904.7119140625,-7552.45556640625,15.100000381469728,12.877124786376951,0,0.0,0.0,0.0,0.0,16.857851031201204,0.0,0.0,-17.330283341537477,0.0,0.0,0.0,0.0,13,0.9989637305699481,39.078531901041664,-75.87425944010417,0.0287138712,-9.7698946758,0.26560330860000003,-0.0215354034,-9.9134640318,0.143569356,-0.0036651797625,0.0293214381,0.0500907900875,0.07086014207500001,-0.0207693519875,-0.0574211496125,0.33872,0.2639,-0.98716,0.41238,1.06604,0.4466,0.0035892339000000006,-9.8416793538,0.2045863323,0.033597481156250004,0.00427604305625,-0.0036651797624999982,0.37555000000000005,0.6649700000000001,-0.27028,12.70944,-2.82432,10.82656,24.994999999999997,-53.96792114423617
97156,10272661,0,-26,-1358,59,0,84,117,584,455,-1702,-31,-1382,39,46,36,41,714,1805,734,416,-176,352,24.98,0.9939995065383668,24.98,1.0040365161608684,3904.7119140625,-7552.45556640625,15.100000381469728,12.859399795532228,0,0.0,0.0,0.0,0.0,16.794001304877348,0.0,0.0,-17.370885517160737,0.0,0.0,0.0,0.0,13,0.9990180113496177,39.078531901041664,-75.87425944010417,-0.1866401628,-9.7483592724,0.4235296002,-0.2225325018,-9.9206424996,0.2799602442,0.0,0.10262503335,0.1429420107375,0.056199423025,0.04398215715,0.0500907900875,0.33872,0.2639,-0.98716,0.41412,1.0469,0.42572,-0.2045863323,-9.834500886,0.3517449222,0.0280997115125,0.07330359525,0.09651640041250001,0.37642,0.6554,-0.28072,12.23872,-5.17792,10.35584,24.98,-54.43883132923435
97157,10272766,0,-4,-1359,48,-13,46,115,582,447,-1708,-11,-1378,29,38,-11,21,714,1805,734,336,-96,368,24.98,0.9940389834690352,24.99,1.0040562546262028,3904.7119140625,-7552.45556640625,15.100000381469728,12.859399795532228,0,0.0,0.0,0.0,0.0,16.461060327761807,0.0,0.0,-17.56057469204654,0.0,0.0,0.0,0.0,13,0.999047619047619,39.078531901041664,-75.87425944010417,-0.0287138712,-9.755537740200001,0.3445664544,-0.07896314580000001,-9.8919286284,0.2081755662,-0.0158824456375,0.056199423025,0.14049855756250001,0.046425610325000005,-0.0134389924625,0.0256562583375,0.33756,0.25926,-0.99064,0.41412,1.0469,0.42572,-0.05383850850000001,-9.8237331843,0.2763710103,0.015271582343750003,0.02138021528125,0.08307740795000002,0.37584,0.65308,-0.28246,9.88512,-2.82432,10.82656,24.985,-54.69703178798649
97158,10272872,0,3,-1354,40,8,147,104,582,447,-1708,-8,-1368,26,60,78,18,712,1835,733,368,-192,320,24.97,0.9939698988403652,24.99,1.0041648161855417,3904.7119140625,-7552.45556640625,15.100000381469728,12.859399795532228,0,0.0,0.0,0.0,0.0,16.506630577497248,0.0,0.0,-17.53471312614715,0.0,0.0,0.0,0.0,13,0.9990673575129534,39.078531901041664,-75.87425944010417,0.0215354034,-9.719645401200001,0.287138712,-0.0574277424,-9.8201439504,0.1866401628,0.0097738127,0.1795938083625,0.1270595651,0.07330359525,0.09529467382500001,0.021991078575,0.33756,0.25926,-0.99064,0.41296,1.0643,0.42514,-0.0179461695,-9.7698946758,0.2368894374,0.041538703975,0.13744424109375,0.07452532183749999,0.37526000000000004,0.66178,-0.28274999999999995,10.82656,-5.64864,9.4144,24.979999999999997,-54.86664907487307
97159,10272977,0,-5,-1356,39,11,29,35,603,426,-1715,-17,-1374,25,60,-21,-61,712,1835,733,384,-112,384,24.96,0.9941574142610412,24.97,1.0039082161361954,3904.7119140625,-7552.45556640625,15.100000381469728,12.89484977722168,0,0.0,0.0,0.0,0.0,16.3177330678679,0.0,0.0,-17.6326430762275,0.0,0.0,0.0,0.0,13,0.9990328151986183,39.078531901041664,-75.87425944010417,-0.035892339,-9.7340023368,0.2799602442,-0.12203395260000001,-9.8632147572,0.179461695,0.0134389924625,0.035430071037500004,0.0427604305625,0.07330359525,-0.0256562583375,-0.0745253218375,0.34974,0.24708,-0.9947,0.41296,1.0643,0.42514,-0.07896314580000001,-9.798608547,0.22971096959999998,0.04337129385625001,0.004886906350000001,-0.015882445637500003,0.38134999999999997,0.65569,-0.28478000000000003,11.29728,-3.29504,11.29728,24.965,-54.56293032011537
97160,10273083,0,0,-1360,31,12,137,99,600,444,-1676,-5,-1378,8,53,85,10,705,1832,738,432,-176,336,24.98,0.9942758450530472,25.0,1.0039773007648656,3904.7119140625,-7552.45556640625,15.100000381469728,12.8416748046875,0,0.0,0.0,0.0,0.0,16.115025180462954,0.0,0.0,-17.733467455862694,0.0,0.0,0.0,0.0,13,0.9991265729089565,39.078531901041664,-75.87425944010417,0.0,-9.762716208,0.2225325018,-0.035892339,-9.8919286284,0.0574277424,0.01466071905,0.1673765424875,0.12095093216250001,0.0647515091375,0.1038467599375,0.012217265875000001,0.348,0.25752,-0.97208,0.4089,1.06256,0.42804,-0.0179461695,-9.827322418200001,0.1399801221,0.039706114093749995,0.13561165121250002,0.06658409901875001,0.37844999999999995,0.66004,-0.27202000000000004,12.70944,-5.17792,9.88512,24.990000000000002,-55.38552181966233
97161,10273188,0,2,-1360,37,-36,78,139,600,444,-1676,-4,-1378,14,-3,19,45,705,1832,738,368,-96,272,24.98,0.9942462373550456,24.99,1.0041648161855417,3904.7119140625,-7552.45556640625,15.100000381469728,12.859399795532228,0,0.0,0.0,0.0,0.0,16.275463051706634,0.0,0.0,-17.629779042061458,0.0,0.0,0.0,0.0,13,0.9992055267702936,39.078531901041664,-75.87425944010417,0.0143569356,-9.762716208,0.26560330860000003,-0.0287138712,-9.8919286284,0.10049854920000001,-0.04398215715,0.09529467382500001,0.1698199956625,-0.0036651797625,0.023212805162500003,0.0549776964375,0.348,0.25752,-0.97208,0.4089,1.06256,0.42804,-0.0071784678,-9.827322418200001,0.18305092890000002,-0.02382366845625,0.059253739493750006,0.11239884605,0.37844999999999995,0.66004,-0.27202000000000004,10.82656,-2.82432,8.00224,24.985,-56.07394709655965
97162,10273293,0,20,-1355,32,3,158,125,603,435,-1724,10,-1374,23,43,89,33,705,1805,717,368,-80,304,24.97,0.9942363681223784,24.99,1.003987169997533,3904.7119140625,-7552.45556640625,15.100000381469728,12.859399795532228,0,0.0,0.0,0.0,0.0,15.932545159232305,0.0,0.0,-17.802801176411435,0.0,0.0,0.0,0.0,13,0.9991117690599556,39.078531901041664,-75.87425944010417,0.143569356,-9.726823869,0.2297109696,0.071784678,-9.8632147572,0.1651047594,0.0036651797625,0.19303280082500002,0.1527158234375,0.0525342432625,0.1087336662875,0.0403169773875,0.34974,0.2523,-0.99992,0.4089,1.0469,0.41586,0.10767701700000001,-9.7950193131,0.1974078645,0.0280997115125,0.15088323355625,0.09651640041250001,0.37932,0.6496,-0.29203,10.82656,-2.3536,8.94368,24.979999999999997,-55.25391058902797
97163,10273399,0,21,-1355,57,-16,89,88,603,435,-1724,12,-1372,38,28,15,7,705,1805,717,432,-128,352,24.97,0.994078460399704,24.98,1.003878608438194,3904.7119140625,-7552.45556640625,15.100000381469728,12.89484977722168,0,0.0,0.0,0.0,0.0,16.165813263964292,0.0,0.0,-17.649611446542398,0.0,0.0,0.0,0.0,13,0.998978534418949,39.078531901041664,-75.87425944010417,0.1507478238,-9.726823869,0.4091726646,0.0861416136,-9.848857821600001,0.2727817764,-0.0195476254,0.1087336662875,0.1075119397,0.034208344450000004,0.0183258988125,0.008552086112500001,0.34974,0.2523,-0.99992,0.4089,1.0469,0.41586,0.1184447187,-9.7878408453,0.3409772205,0.007330359525000002,0.06352978255,0.05803201290625,0.37932,0.6496,-0.29203,12.70944,-3.76576,10.35584,24.975,-54.0920645722189
97164,10273504,0,10,-1355,41,53,135,38,600,449,-1740,5,-1377,17,89,75,-48,743,1817,718,336,-192,352,24.99,0.9941080680977054,24.98,1.0038391315075252,3904.7119140625,-7552.45556640625,15.100000381469728,12.877124786376951,0,0.0,0.0,0.0,0.0,15.900497232959014,0.0,0.0,-17.782123999638806,0.0,0.0,0.0,0.0,13,0.9989735998026152,39.078531901041664,-75.87425944010417,0.071784678,-9.726823869,0.2943171798,0.035892339,-9.884750160600001,0.12203395260000001,0.0647515091375,0.1649330893125,0.046425610325000005,0.1087336662875,0.09162949406250001,-0.0586428762,0.348,0.26042,-1.0092,0.43094,1.05386,0.41644,0.05383850850000001,-9.8057870148,0.2081755662,0.0867425877125,0.12828129168750002,-0.006108632937499997,0.38947,0.6571400000000001,-0.2963800000000001,9.88512,-5.64864,10.35584,24.985,-54.053997429390435
97165,10273610,0,-1,-1359,36,43,41,34,600,449,-1740,-10,-1386,21,82,-10,-49,743,1817,718,368,-128,352,24.97,0.9943547989143844,24.98,1.004075993091537,3904.7119140625,-7552.45556640625,15.100000381469728,12.859399795532228,0,0.0,0.0,0.0,0.0,15.692754700863173,0.0,0.0,-17.8749298467131,0.0,0.0,0.0,0.0,13,0.9992153960029607,39.078531901041664,-75.87425944010417,-0.0071784678,-9.755537740200001,0.2584248408,-0.071784678,-9.9493563708,0.1507478238,0.0525342432625,0.0500907900875,0.041538703975,0.100181580175,-0.012217265875000001,-0.059864602787500006,0.348,0.26042,-1.0092,0.43094,1.05386,0.41644,-0.039481572900000005,-9.8524470555,0.2045863323,0.07635791171875,0.01893676210625,-0.009162949406250002,0.38947,0.6571400000000001,-0.2963800000000001,10.82656,-3.76576,10.35584,24.975,-56.15744111352363
97166,10273715,0,2,-1361,33,13,115,142,601,439,-1677,-11,-1376,10,64,57,49,693,1829,700,384,-176,416,24.99,0.9940685911670368,24.99,1.003937823834197,3904.7119140625,-7552.45556640625,15.300000190734863,12.859399795532228,0,0.0,0.0,0.0,0.0,15.799817621930568,0.0,0.0,-17.785963220638003,0.0,0.0,0.0,0.0,13,0.9990032075006169,39.078531901041664,-75.87425944010417,0.0143569356,-9.7698946758,0.2368894374,-0.07896314580000001,-9.8775716928,0.071784678,0.0158824456375,0.14049855756250001,0.173485175425,0.0781905016,0.06963841548750001,0.059864602787500006,0.34858,0.25462,-0.97266,0.40194,1.06082,0.406,-0.03230310510000001,-9.8237331843,0.1543370577,0.047036473618750005,0.105068486525,0.11667488910625,0.37526000000000004,0.6577200000000001,-0.28332999999999997,11.29728,-5.17792,12.23872,24.99,-54.3122202119564
97167,10273820,0,8,-1348,26,-37,6,89,601,439,-1677,5,-1367,7,12,-54,8,693,1829,700,384,-112,256,24.96,0.9943153219837156,25.0,1.0039180853688623,3904.7119140625,-7552.45556640625,15.300000190734863,12.859399795532228,0,0.0,0.0,0.0,0.0,15.844005474958095,0.0,0.0,-17.73889399613261,0.0,0.0,0.0,0.0,13,0.9991167036762889,39.078531901041664,-75.87425944010417,0.0574277424,-9.6765745944,0.1866401628,0.035892339,-9.812965482600001,0.050249274600000005,-0.0452038837375,0.007330359525,0.1087336662875,0.01466071905,-0.06597323572500001,0.0097738127,0.34858,0.25462,-0.97266,0.40194,1.06082,0.406,0.0466600407,-9.7447700385,0.1184447187,-0.01527158234375,-0.029321438100000007,0.05925373949375,0.37526000000000004,0.6577200000000001,-0.28332999999999997,11.29728,-3.29504,7.53152,24.98,-55.29441265554411
97168,10273926,0,22,-1360,35,-15,99,96,602,456,-1684,6,-1376,39,43,32,15,713,1817,716,288,-160,416,24.96,0.9943153219837156,24.99,1.0041056007895386,3904.7119140625,-7552.45556640625,15.300000190734863,12.859399795532228,0,0.0,0.0,0.0,0.0,15.783532531185438,0.0,0.0,-17.759831978014578,0.0,0.0,0.0,0.0,13,0.9992104613866271,39.078531901041664,-75.87425944010417,0.15792629160000002,-9.762716208,0.251246373,0.0430708068,-9.8775716928,0.2799602442,-0.0183258988125,0.12095093216250001,0.1172857524,0.0525342432625,0.0390952508,0.0183258988125,0.34916,0.26448,-0.97672,0.41354,1.05386,0.41528,0.10049854920000001,-9.8201439504,0.26560330860000003,0.017104172225,0.08002309148125,0.06780582560625,0.38135,0.65917,-0.28072,8.47296,-4.7072,12.23872,24.975,-56.111865232556895
97169,10274031,0,-14,-1356,60,5,-9,65,602,456,-1684,-23,-1375,37,32,-51,-26,713,1817,716,416,-160,336,24.98,0.9941179373303726,25.0,1.003819393042191,3904.7119140625,-7552.45556640625,15.300000190734863,12.89484977722168,0,0.0,0.0,0.0,0.0,16.24475206120276,0.0,0.0,-17.489273454821284,0.0,0.0,0.0,0.0,13,0.9989686651862818,39.078531901041664,-75.87425944010417,-0.10049854920000001,-9.7340023368,0.430708068,-0.1651047594,-9.870393225,0.26560330860000003,0.0061086329375000005,-0.0109955392875,0.0794122281875,0.0390952508,-0.062308055962500004,-0.031764891275,0.34916,0.26448,-0.97672,0.41354,1.05386,0.41528,-0.13280165430000002,-9.8021977809,0.3481556883,0.022601941868750003,-0.036651797625,0.023823668456250002,0.38135,0.65917,-0.28072,12.23872,-4.7072,9.88512,24.990000000000002,-54.00847699033446
97170,10274137,0,3,-1356,50,30,162,118,617,465,-1684,-5,-1377,38,85,97,35,718,1827,730,352,-112,288,24.96,0.994019245003701,24.99,1.0037305699481864,3904.7119140625,-7552.45556640625,15.300000190734863,12.89484977722168,0,0.0,0.0,0.0,0.0,16.603913357664982,0.0,0.0,-17.28347966538005,0.0,0.0,0.0,0.0,13,0.9988749074759438,39.078531901041664,-75.87425944010417,0.0215354034,-9.7340023368,0.35892339,-0.035892339,-9.884750160600001,0.2727817764,0.036651797625,0.19791970717500001,0.144163737325,0.1038467599375,0.11850747898750001,0.0427604305625,0.35786,0.2697,-0.97672,0.41644,1.05966,0.4234,-0.007178467800000001,-9.809376248700001,0.3158525832,0.07024927878125001,0.15821359308125002,0.09346208394375001,0.38715,0.66468,-0.27666,10.35584,-3.29504,8.47296,24.975,-53.1858240449118
97171,10274242,0,3,-1361,37,-22,32,88,617,465,-1684,-6,-1372,11,20,-22,-7,718,1827,730,336,-160,336,24.98,0.9939106834443622,24.98,1.00413520848754,3904.7119140625,-7552.45556640625,15.300000190734863,12.859399795532228,0,0.0,0.0,0.0,0.0,16.79463817856854,0.0,0.0,-17.18702216872117,0.0,0.0,0.0,0.0,13,0.999022945965951,39.078531901041664,-75.87425944010417,0.0215354034,-9.7698946758,0.26560330860000003,-0.0430708068,-9.848857821600001,0.07896314580000001,-0.026877984925,0.0390952508,0.1075119397,0.024434531750000002,-0.026877984925,-0.008552086112500001,0.35786,0.2697,-0.97672,0.41644,1.05966,0.4234,-0.0107677017,-9.809376248700001,0.17228322720000003,-0.0012217265874999994,0.0061086329375000005,0.049479926793750004,0.38715,0.66468,-0.27666,9.88512,-4.7072,9.88512,24.98,-54.48186537152601
97172,10274347,0,16,-1358,43,13,124,100,599,448,-1681,12,-1373,20,51,73,5,712,1812,707,384,-128,400,24.97,0.9940389834690352,25.0,1.0039773007648656,3904.7119140625,-7552.45556640625,15.300000190734863,12.859399795532228,0,0.0,0.0,0.0,0.0,17.110059434157886,0.0,0.0,-17.02848443613456,0.0,0.0,0.0,0.0,13,0.9990081421169503,39.078531901041664,-75.87425944010417,0.1148554848,-9.7483592724,0.3086741154,0.0861416136,-9.8560362894,0.143569356,0.0158824456375,0.15149409685,0.12217265875000001,0.062308055962500004,0.0891860408875,0.0061086329375000005,0.34742,0.25984,-0.97498,0.41296,1.0509600000000001,0.41006,0.10049854920000001,-9.8021977809,0.2261217357,0.0390952508,0.12034006886875001,0.06414064584375001,0.38019000000000003,0.6554000000000001,-0.28246,11.29728,-3.76576,11.768,24.985,-54.35026851443786
97173,10274453,0,6,-1359,47,-38,-3,86,599,448,-1681,-1,-1377,26,7,-73,-7,712,1812,707,480,-128,368,24.97,0.9941278065630396,24.99,1.0041056007895386,3904.7119140625,-7552.45556640625,15.300000190734863,12.859399795532228,0,0.0,0.0,0.0,0.0,16.459722480056435,0.0,0.0,-17.406974162492233,0.0,0.0,0.0,0.0,13,0.9991167036762891,39.078531901041664,-75.87425944010417,0.0430708068,-9.755537740200001,0.3373879866,-0.0071784678,-9.884750160600001,0.1866401628,-0.046425610325000005,-0.0036651797625,0.105068486525,0.008552086112500001,-0.0891860408875,-0.008552086112500001,0.34742,0.25984,-0.97498,0.41296,1.0509600000000001,0.41006,0.0179461695,-9.820143950400002,0.26201407470000004,-0.01893676210625,-0.046425610325,0.048258200206250004,0.38019000000000003,0.6554000000000001,-0.28246,14.1216,-3.76576,10.82656,24.979999999999997,-55.2969383813771
97174,10274558,0,0,-1356,72,-1,161,124,595,463,-1712,-7,-1382,52,55,102,43,699,1794,723,352,-112,432,24.96,0.9941080680977054,24.99,1.003947693066864,3904.7119140625,-7552.45556640625,15.300000190734863,12.859399795532228,0,0.0,0.0,0.0,0.0,16.415560722369342,0.0,0.0,-17.430248340370945,0.0,0.0,0.0,0.0,13,0.9990278805822848,39.078531901041664,-75.87425944010417,0.0,-9.7340023368,0.5168496816,-0.050249274600000005,-9.9206424996,0.3732803256,-0.0012217265875,0.19669798058750002,0.15149409685,0.06719496231250001,0.12461611192500001,0.0525342432625,0.3451,0.26854,-0.99296,0.40542,1.0405200000000001,0.41934,-0.025124637300000002,-9.8273224182,0.4450650036,0.032986617862500005,0.16065704625625002,0.10201417005625,0.37526000000000004,0.6545300000000001,-0.28681,10.35584,-3.29504,12.70944,24.975,-54.51989967072457
97175,10274663,0,22,-1362,54,1,59,71,595,463,-1712,5,-1377,33,47,-19,-18,699,1794,723,384,-80,368,24.97,0.9941870219590428,24.99,1.0041450777202072,3904.7119140625,-7552.45556640625,15.300000190734863,12.859399795532228,0,0.0,0.0,0.0,0.0,16.371262840935103,0.0,0.0,-17.456562868522457,0.0,0.0,0.0,0.0,13,0.9991660498396251,39.078531901041664,-75.87425944010417,0.15792629160000002,-9.777073143600001,0.3876372612,0.035892339,-9.884750160600001,0.2368894374,0.0012217265875,0.0720818686625,0.0867425877125,0.0574211496125,-0.023212805162500003,-0.021991078575,0.3451,0.26854,-0.99296,0.40542,1.0405200000000001,0.41934,0.0969093153,-9.830911652100001,0.3122633493,0.0293214381,0.024434531750000002,0.03237575456875,0.37526000000000004,0.6545300000000001,-0.28681,11.29728,-2.3536,10.82656,24.979999999999997,-55.72720239334916
97176,10274769,0,-17,-1352,62,34,110,100,603,464,-1683,-17,-1381,44,78,52,13,715,1831,748,352,-128,400,24.98,0.9939995065383668,24.98,1.0038095238095237,3904.7119140625,-7552.45556640625,15.300000190734863,12.89484977722168,0,0.0,0.0,0.0,0.0,16.45258132672586,0.0,0.0,-17.4084660466045,0.0,0.0,0.0,0.0,13,0.9989045151739453,39.078531901041664,-75.87425944010417,-0.12203395260000001,-9.7052884656,0.4450650036,-0.12203395260000001,-9.9134640318,0.31585258320000004,0.041538703975,0.13438992462500002,0.12217265875000001,0.09529467382500001,0.06352978255,0.0158824456375,0.34974,0.26912,-0.97614,0.4147,1.06198,0.43384,-0.12203395260000001,-9.809376248700001,0.3804587934,0.06841668890000001,0.09895985358750001,0.06902755219375001,0.38222,0.66555,-0.27115,10.35584,-3.76576,11.768,24.98,-53.44897852049414
97177,10274874,0,3,-1355,30,16,33,30,604,468,-1713,-4,-1367,12,55,-33,-52,715,1831,748,352,-96,368,24.97,0.994029114236368,25.0,1.0039082161361954,3904.7119140625,-7552.45556640625,15.300000190734863,12.8416748046875,0,0.0,0.0,0.0,0.0,16.696962488704667,0.0,0.0,-17.27437479106839,0.0,0.0,0.0,0.0,13,0.9989686651862817,39.078531901041664,-75.87425944010417,0.0215354034,-9.726823869,0.215354034,-0.0287138712,-9.812965482600001,0.0861416136,0.0195476254,0.0403169773875,0.036651797625,0.06719496231250001,-0.0403169773875,-0.06352978255,0.35032,0.27144,-0.99354,0.4147,1.06198,0.43384,-0.0035892339000000006,-9.7698946758,0.1507478238,0.04337129385625001,0.0,-0.013438992462499997,0.38251,0.6667099999999999,-0.27985,10.35584,-2.82432,10.82656,24.985,-54.0059945673314
97178,10274980,0,-41,-1360,53,3,68,114,604,468,-1713,-51,-1378,24,54,8,23,718,1821,696,336,-176,368,24.99,0.9941278065630396,25.0,1.0037503084135209,3904.7119140625,-7552.45556640625,15.300000190734863,12.859399795532228,0,0.0,0.0,0.0,0.0,16.588696728812323,0.0,0.0,-17.337342450904583,0.0,0.0,0.0,0.0,13,0.9989390574882802,39.078531901041664,-75.87425944010417,-0.2943171798,-9.762716208,0.3804587934,-0.36610185780000004,-9.8919286284,0.1722832272,0.0036651797625,0.08307740795,0.13927683097500002,0.06597323572500001,0.0097738127,0.0280997115125,0.35032,0.27144,-0.99354,0.41644,1.05618,0.40368,-0.33020951880000005,-9.827322418200001,0.2763710103,0.034819207743750004,0.046425610325,0.08368827124375,0.38338,0.66381,-0.29493,9.88512,-5.17792,10.82656,24.994999999999997,-53.75272600296786
97179,10275085,0,-12,-1351,45,-40,80,107,635,459,-1670,-20,-1371,26,7,15,22,718,1821,696,400,-160,320,24.97,0.9941278065630396,24.98,1.0040365161608684,3904.7119140625,-7552.45556640625,15.300000190734863,12.859399795532228,0,0.0,0.0,0.0,0.0,16.169645574201066,0.0,0.0,-17.570127500846677,0.0,0.0,0.0,0.0,13,0.999082161361954,39.078531901041664,-75.87425944010417,-0.0861416136,-9.6981099978,0.323031051,-0.143569356,-9.8416793538,0.1866401628,-0.048869063500000004,0.09773812700000001,0.13072474486250002,0.008552086112500001,0.0183258988125,0.026877984925,0.3683,0.26622,-0.9686,0.41644,1.05618,0.40368,-0.1148554848,-9.7698946758,0.2548356069,-0.02015848869375,0.058032012906250006,0.07880136489375,0.39237,0.6612,-0.28246000000000004,11.768,-4.7072,9.4144,24.975,-54.995738522912845
97180,10275190,0,1,-1355,67,-6,111,148,635,459,-1670,-12,-1375,39,44,52,63,703,1835,751,336,-128,400,24.98,0.9941574142610412,24.97,1.0039180853688623,3904.7119140625,-7552.45556640625,15.300000190734863,12.859399795532228,0,0.0,0.0,0.0,0.0,16.158525236668893,0.0,0.0,-17.562335829278386,0.0,0.0,0.0,0.0,13,0.9990377498149517,39.078531901041664,-75.87425944010417,0.0071784678,-9.726823869,0.4809573426,-0.0861416136,-9.870393225,0.2799602442,-0.007330359525,0.13561165121250002,0.18081553495,0.05375596985,0.06352978255,0.0769687750125,0.3683,0.26622,-0.9686,0.40774,1.0643,0.43558,-0.0394815729,-9.798608547,0.3804587934,0.023212805162500003,0.09957071688125001,0.12889215498125,0.38802000000000003,0.66526,-0.26651,9.88512,-3.76576,11.768,24.975,-54.61096598039575
97181,10275296,0,-7,-1357,70,-17,20,73,613,479,-1660,-20,-1374,56,28,-41,-17,703,1835,751,400,-96,320,24.97,0.9941870219590428,24.99,1.0037897853441895,3904.7119140625,-7552.45556640625,15.300000190734863,12.89484977722168,0,0.0,0.0,0.0,0.0,16.040613677756014,0.0,0.0,-17.615200141871448,0.0,0.0,0.0,0.0,13,0.9989884036516161,39.078531901041664,-75.87425944010417,-0.050249274600000005,-9.7411808046,0.502492746,-0.143569356,-9.8632147572,0.40199419680000004,-0.0207693519875,0.024434531750000002,0.0891860408875,0.034208344450000004,-0.0500907900875,-0.0207693519875,0.35554,0.27782,-0.9628,0.40774,1.0643,0.43558,-0.0969093153,-9.8021977809,0.45224347140000004,0.006719496231250002,-0.01282812916875,0.03420834445,0.38164,0.67106,-0.26361,11.768,-2.82432,9.4144,24.979999999999997,-54.17813356501637
97182,10275401,0,4,-1353,58,46,124,58,613,479,-1660,-4,-1374,36,91,70,-30,719,1854,698,336,-144,384,24.98,0.9941574142610412,24.99,1.0040463853935355,3904.7119140625,-7552.45556640625,15.300000190734863,12.877124786376951,0,0.0,0.0,0.0,0.0,15.769661730267805,0.0,0.0,-17.75501030933608,0.0,0.0,0.0,0.0,13,0.9991018998272884,39.078531901041664,-75.87425944010417,0.0287138712,-9.7124669334,0.4163511324,-0.0287138712,-9.8632147572,0.2584248408,0.056199423025,0.15149409685,0.07086014207500001,0.1111771194625,0.085520861125,-0.036651797625,0.35554,0.27782,-0.9628,0.41702,1.07532,0.40484,0.0,-9.7878408453,0.3373879866,0.08368827124375,0.1185074789875,0.017104172225000002,0.38628,0.67657,-0.27898,9.88512,-4.23648,11.29728,24.985,-55.17037564136383
97183,10275507,0,-18,-1358,39,41,9,51,624,458,-1644,-21,-1377,15,82,-30,-38,719,1854,698,464,-160,336,24.98,0.9939402911423636,24.98,1.003947693066864,3904.7119140625,-7552.45556640625,15.300000190734863,12.859399795532228,0,0.0,0.0,0.0,0.0,15.979112603083353,0.0,0.0,-17.61461775837951,0.0,0.0,0.0,0.0,13,0.9989439921046138,39.078531901041664,-75.87425944010417,-0.1292124204,-9.7483592724,0.2799602442,-0.1507478238,-9.884750160600001,0.107677017,0.0500907900875,0.0109955392875,0.062308055962500004,0.100181580175,-0.036651797625,-0.046425610325000005,0.36192,0.26564,-0.95352,0.41702,1.07532,0.40484,-0.1399801221,-9.8165547165,0.19381863059999999,0.07513618513125,-0.01282812916875,0.00794122281875,0.38947,0.67048,-0.27434000000000003,13.65088,-4.7072,9.88512,24.98,-53.79329033220857
97184,10275612,0,4,-1361,25,17,125,115,624,458,-1644,-3,-1380,12,61,64,24,713,1822,728,368,-112,384,24.98,0.9940981988650384,24.98,1.0039180853688623,3904.7119140625,-7552.45556640625,15.300000190734863,12.877124786376951,0,0.0,0.0,0.0,0.0,16.20211114742807,0.0,0.0,-17.479481778326004,0.0,0.0,0.0,0.0,13,0.9990081421169503,39.078531901041664,-75.87425944010417,0.0287138712,-9.7698946758,0.179461695,-0.0215354034,-9.906285564000001,0.0861416136,0.0207693519875,0.1527158234375,0.14049855756250001,0.0745253218375,0.0781905016,0.0293214381,0.36192,0.26564,-0.95352,0.41354,1.05676,0.42224,0.0035892339000000006,-9.8380901199,0.13280165430000002,0.047647336912500005,0.11545316251875001,0.08490999783125,0.38773,0.6612,-0.26564,10.82656,-3.29504,11.29728,24.98,-54.35276248560767
97185,10275717,0,3,-1357,28,-41,29,120,602,439,-1698,-2,-1377,5,-3,-32,33,723,1835,706,368,-80,352,24.97,0.994029114236368,24.96,1.0041056007895386,3904.7119140625,-7552.45556640625,15.300000190734863,12.859399795532228,0,0.0,0.0,0.0,0.0,16.291219490344375,0.0,0.0,-17.429733358544546,0.0,0.0,0.0,0.0,13,0.9990673575129533,39.078531901041664,-75.87425944010417,0.0215354034,-9.7411808046,0.20099709840000002,-0.0143569356,-9.884750160600001,0.035892339,-0.0500907900875,0.035430071037500004,0.1466071905,-0.0036651797625,-0.0390952508,0.0403169773875,0.34916,0.25462,-0.98484,0.41934,1.0643,0.40948,0.0035892338999999997,-9.812965482600001,0.1184447187,-0.026877984925,-0.0018325898812499991,0.09346208394375001,0.38425,0.65946,-0.28768000000000005,10.82656,-2.3536,10.35584,24.965,-54.86664907487307
97186,10275823,0,1,-1353,63,-21,77,122,602,439,-1698,-6,-1376,41,16,20,25,723,1835,706,336,-160,336,24.95,0.994029114236368,24.97,1.004075993091537,3904.7119140625,-7552.45556640625,15.300000190734863,12.8416748046875,0,0.0,0.0,0.0,0.0,15.83839138140002,0.0,0.0,-17.67332224118097,0.0,0.0,0.0,0.0,13,0.9990525536639525,39.078531901041664,-75.87425944010417,0.0071784678,-9.7124669334,0.45224347140000004,-0.0430708068,-9.8775716928,0.2943171798,-0.0256562583375,0.09407294723750001,0.149050643675,0.0195476254,0.024434531750000002,0.030543164687500002,0.34916,0.25462,-0.98484,0.41934,1.0643,0.40948,-0.0179461695,-9.7950193131,0.3732803256,-0.0030543164687500002,0.059253739493750006,0.08979690418125001,0.38425,0.65946,-0.28768000000000005,9.88512,-4.7072,9.88512,24.96,-54.73254342566365
97187,10275928,0,18,-1353,55,3,66,62,627,435,-1663,8,-1375,31,52,8,-22,710,1822,716,256,-64,448,24.97,0.994147545028374,24.96,1.004194423883543,3904.7119140625,-7552.45556640625,15.300000190734863,12.823949813842772,0,0.0,0.0,0.0,0.0,15.624674451222266,0.0,0.0,-17.777124358861847,0.0,0.0,0.0,0.0,13,0.9991709844559584,39.078531901041664,-75.87425944010417,0.1292124204,-9.7124669334,0.394815729,0.0574277424,-9.870393225,0.2225325018,0.0036651797625,0.080633954775,0.075747048425,0.06352978255,0.0097738127,-0.026877984925,0.36366,0.2523,-0.96454,0.4118,1.05676,0.41528,0.0933200814,-9.791430079200001,0.3086741154,0.03359748115625,0.0452038837375,0.024434531750000002,0.38773,0.65453,-0.27463,7.53152,-1.88288,13.18016,24.965,-55.77022740345248
97188,10276034,0,0,-1356,72,46,124,72,627,435,-1663,-18,-1381,52,91,51,-28,710,1822,716,432,-112,320,24.97,0.9942363681223784,24.97,1.0042240315815445,3904.7119140625,-7552.45556640625,15.300000190734863,12.877124786376951,0,0.0,0.0,0.0,0.0,15.673303723519265,0.0,0.0,-17.730683712630945,0.0,0.0,0.0,0.0,13,0.9992301998519615,39.078531901041664,-75.87425944010417,0.0,-9.7340023368,0.5168496816,-0.1292124204,-9.9134640318,0.3732803256,0.056199423025,0.15149409685,0.0879643143,0.1111771194625,0.062308055962500004,-0.034208344450000004,0.36366,0.2523,-0.96454,0.4118,1.05676,0.41528,-0.0646062102,-9.8237331843,0.4450650036,0.08368827124375,0.10690107640625,0.026877984924999997,0.38773,0.65453,-0.27463,12.70944,-3.29504,9.4144,24.97,-56.286507798089104
97189,10276139,0,7,-1365,30,38,102,81,607,476,-1713,2,-1375,8,83,45,-7,707,1841,752,416,-32,336,24.97,0.994078460399704,24.96,1.0040365161608684,3904.7119140625,-7552.45556640625,15.300000190734863,12.859399795532228,0,0.0,0.0,0.0,0.0,15.892948990850543,0.0,0.0,-17.59081732704818,0.0,0.0,0.0,0.0,13,0.9990574882802863,39.078531901041664,-75.87425944010417,0.050249274600000005,-9.798608547,0.215354034,0.0143569356,-9.870393225,0.0574277424,0.046425610325000005,0.12461611192500001,0.09895985358750001,0.1014033067625,0.0549776964375,-0.008552086112500001,0.35206,0.27608,-0.99354,0.41006,1.06778,0.43616,0.0323031051,-9.834500886,0.1363908882,0.07391445854375,0.08979690418125,0.045203883737500006,0.38105999999999995,0.6719299999999999,-0.27869,12.23872,-0.94144,9.88512,24.965,-54.78058817799153
97190,10276244,0,1,-1355,55,8,30,95,607,476,-1713,-10,-1386,35,52,-5,11,707,1841,752,400,-112,352,24.95,0.9941376757957068,24.97,1.004006908462867,3904.7119140625,-7552.45556640625,15.300000190734863,12.859399795532228,0,0.0,0.0,0.0,0.0,16.349407310587107,0.0,0.0,-17.33320246070876,0.0,0.0,0.0,0.0,13,0.9990722921292869,39.078531901041664,-75.87425944010417,0.0071784678,-9.726823869,0.394815729,-0.071784678,-9.9493563708,0.251246373,0.0097738127,0.036651797625,0.1160640258125,0.06352978255,-0.0061086329375000005,0.0134389924625,0.35206,0.27608,-0.99354,0.41006,1.06778,0.43616,-0.0323031051,-9.8380901199,0.323031051,0.036651797624999996,0.015271582343750001,0.0647515091375,0.38105999999999995,0.6719299999999999,-0.27869,11.768,-3.29504,10.35584,24.96,-54.904653672293605
97191,10276350,0,14,-1358,40,-60,54,135,585,459,-1731,8,-1374,16,-15,-1,45,700,1838,705,368,-160,400,24.97,0.9940389834690352,24.98,1.0041056007895386,3904.71240234375,-7552.45556640625,15.600000381469728,12.859399795532228,0,0.0,0.0,0.0,0.0,16.111142860173057,0.0,0.0,-17.469186807577636,0.0,0.0,0.0,0.0,13,0.9990722921292869,39.0785400390625,-75.87425944010417,0.10049854920000001,-9.7483592724,0.287138712,0.0574277424,-9.8632147572,0.1148554848,-0.07330359525,0.06597323572500001,0.1649330893125,-0.0183258988125,-0.0012217265875,0.0549776964375,0.3393,0.26622,-1.00398,0.406,1.06604,0.4089,0.07896314580000001,-9.8057870148,0.20099709840000002,-0.045814747031250005,0.032375754568750005,0.109955392875,0.37265000000000004,0.6661300000000001,-0.29754,10.82656,-4.7072,11.768,24.975,-54.90967914385834
97192,10276455,0,7,-1353,88,-18,43,84,608,466,-1661,-1,-1373,70,37,-11,-9,700,1838,705,400,-96,368,24.98,0.993960029607698,24.97,1.00406612385887,3904.71240234375,-7552.45556640625,15.600000381469728,12.859399795532228,0,0.0,0.0,0.0,0.0,15.935157569473208,0.0,0.0,-17.559850287916927,0.0,0.0,0.0,0.0,13,0.999013076733284,39.0785400390625,-75.87425944010417,0.050249274600000005,-9.7124669334,0.6317051664000001,-0.0071784678,-9.8560362894,0.502492746,-0.021991078575,0.0525342432625,0.10262503335,0.0452038837375,-0.0134389924625,-0.0109955392875,0.35264,0.27028,-0.96338,0.406,1.06604,0.4089,0.021535403400000003,-9.7842516114,0.5670989562000001,0.01160640258125,0.0195476254,0.045814747031250005,0.37932,0.6681600000000001,-0.27724000000000004,11.768,-2.82432,10.82656,24.975,-54.395797033923145
97193,10276561,0,18,-1356,67,38,108,93,608,466,-1661,6,-1379,46,86,57,7,704,1835,694,400,-96,320,24.98,0.9941968911917098,24.97,1.0038687392055268,3904.71240234375,-7552.45556640625,15.600000381469728,12.877124786376951,0,0.0,0.0,0.0,0.0,15.492210393073623,0.0,0.0,-17.790884414477272,0.0,0.0,0.0,0.0,13,0.9990328151986183,39.0785400390625,-75.87425944010417,0.1292124204,-9.7340023368,0.4809573426,0.0430708068,-9.8991070962,0.3302095188,0.046425610325000005,0.13194647145000002,0.1136205726375,0.105068486525,0.06963841548750001,0.008552086112500001,0.35264,0.27028,-0.96338,0.40832,1.0643,0.40252,0.0861416136,-9.8165547165,0.4055834307,0.075747048425,0.10079244346875002,0.061086329375,0.38048000000000004,0.66729,-0.28043,11.768,-2.82432,9.4144,24.975,-54.5679326971118
97194,10276666,0,4,-1358,72,45,124,87,576,475,-1685,-16,-1371,54,90,67,-6,704,1835,694,416,-144,368,24.98,0.9941672834937084,24.97,1.0039773007648656,3904.71240234375,-7552.45556640625,15.600000381469728,12.859399795532228,0,0.0,0.0,0.0,0.0,15.627297742345071,0.0,0.0,-17.691766415796245,0.0,0.0,0.0,0.0,13,0.9990722921292869,39.0785400390625,-75.87425944010417,0.0287138712,-9.7483592724,0.5168496816,-0.1148554848,-9.8416793538,0.3876372612,0.0549776964375,0.15149409685,0.1062902131125,0.109955392875,0.0818556813625,-0.007330359525,0.33408,0.2755,-0.9773000000000001,0.40832,1.0643,0.40252,-0.0430708068,-9.7950193131,0.4522434714,0.08246654465625,0.11667488910625001,0.049479926793750004,0.3712,0.6699,-0.28739000000000003,12.23872,-4.23648,10.82656,24.975,-54.9121918796407
97195,10276771,0,13,-1359,7,53,138,56,576,475,-1685,10,-1380,-9,103,90,-27,718,1829,711,352,-144,288,24.97,0.994078460399704,24.96,1.0041056007895386,3904.71240234375,-7552.45556640625,15.600000381469728,12.877124786376951,0,0.0,0.0,0.0,0.0,15.4456053059143,0.0,0.0,-17.772928215151314,0.0,0.0,0.0,0.0,13,0.9990920305946214,39.0785400390625,-75.87425944010417,0.0933200814,-9.755537740200001,0.050249274600000005,0.071784678,-9.906285564000001,-0.0646062102,0.0647515091375,0.168598269075,0.06841668890000001,0.1258378385125,0.109955392875,-0.032986617862500005,0.33408,0.2755,-0.9773000000000001,0.41644,1.06082,0.41238,0.08255237970000001,-9.830911652100001,-0.007178467799999998,0.095294673825,0.139276830975,0.017715035518750002,0.37526,0.6681600000000001,-0.28246000000000004,10.35584,-4.23648,8.47296,24.965,-55.08179689011662
97196,10276877,0,4,-1362,40,-14,48,61,582,483,-1647,-5,-1377,22,29,-16,-30,718,1829,711,368,-176,384,24.95,0.994029114236368,24.96,1.003878608438194,3904.71240234375,-7552.45556640625,15.600000381469728,12.8416748046875,0,0.0,0.0,0.0,0.0,16.072731518179168,0.0,0.0,-17.404613273695222,0.0,0.0,0.0,0.0,13,0.998953861337281,39.0785400390625,-75.87425944010417,0.0287138712,-9.777073143600001,0.287138712,-0.035892339,-9.884750160600001,0.15792629160000002,-0.017104172225000002,0.0586428762,0.0745253218375,0.035430071037500004,-0.0195476254,-0.036651797625,0.33756,0.28014,-0.95526,0.41644,1.06082,0.41238,-0.0035892339000000006,-9.830911652100001,0.2225325018,0.00916294940625,0.019547625399999997,0.01893676210625,0.377,0.6704800000000001,-0.27144,10.82656,-5.17792,11.29728,24.955,-53.871931477686346
97197,10276982,0,2,-1356,41,-40,32,112,582,483,-1647,-7,-1381,33,3,-26,36,706,1823,706,384,-176,336,24.97,0.9944436220083888,24.95,1.0039082161361954,3904.71240234375,-7552.45556640625,15.600000381469728,12.859399795532228,0,0.0,0.0,0.0,0.0,15.64896975018169,0.0,0.0,-17.638314669892118,0.0,0.0,0.0,0.0,13,0.9991759190722921,39.0785400390625,-75.87425944010417,0.0143569356,-9.7340023368,0.2943171798,-0.050249274600000005,-9.9134640318,0.2368894374,-0.048869063500000004,0.0390952508,0.13683337780000002,0.0036651797625,-0.031764891275,0.04398215715,0.33756,0.28014,-0.95526,0.40948,1.05734,0.40948,-0.0179461695,-9.8237331843,0.26560330860000003,-0.022601941868750003,0.0036651797625000017,0.09040776747500001,0.37352,0.66874,-0.27288999999999997,11.29728,-5.17792,9.88512,24.96,-55.8132521606415
97198,10277087,0,2,-1358,80,-26,37,113,590,459,-1697,-4,-1376,57,19,-14,28,706,1823,706,336,-144,368,24.95,0.9942955835183814,24.96,1.003937823834197,3904.71240234375,-7552.45556640625,15.600000381469728,12.89484977722168,0,0.0,0.0,0.0,0.0,15.915594172103305,0.0,0.0,-17.474601504499915,0.0,0.0,0.0,0.0,13,0.9991167036762891,39.0785400390625,-75.87425944010417,0.0143569356,-9.7483592724,0.574277424,-0.0287138712,-9.8775716928,0.4091726646,-0.031764891275,0.0452038837375,0.13805510438750002,0.023212805162500003,-0.017104172225000002,0.034208344450000004,0.3422,0.26622,-0.98426,0.40948,1.05734,0.40948,-0.0071784678,-9.8129654826,0.4917250443,-0.004276043056249998,0.014049855756249998,0.08613172441875001,0.37584,0.66178,-0.28739000000000003,9.88512,-4.23648,10.82656,24.955,-55.2918869297213
97199,10277193,0,8,-1354,54,-2,140,135,590,459,-1697,5,-1368,26,56,82,52,717,1833,722,384,-112,272,24.97,0.9940389834690352,24.96,1.0040365161608684,3904.71240234375,-7552.45556640625,15.600000381469728,12.89484977722168,0,0.0,0.0,0.0,0.0,15.867035856544804,0.0,0.0,-17.498275825823416,0.0,0.0,0.0,0.0,13,0.9990377498149519,39.0785400390625,-75.87425944010417,0.0574277424,-9.719645401200001,0.3876372612,0.035892339,-9.8201439504,0.1866401628,-0.002443453175,0.17104172225,0.1649330893125,0.06841668890000001,0.100181580175,0.06352978255,0.3422,0.26622,-0.98426,0.41586,1.06314,0.41876,0.0466600407,-9.7698946758,0.287138712,0.032986617862500005,0.13561165121250002,0.11423143593125,0.37903,0.6646799999999999,-0.28275,11.29728,-3.29504,8.00224,24.965,-54.60846334846241
97200,10277298,0,1,-1351,57,40,82,52,573,471,-1702,0,-1375,36,88,27,-29,717,1833,722,304,-48,400,24.94,0.9942857142857144,24.97,1.0038687392055268,3904.71240234375,-7552.45556640625,15.600000381469728,12.89484977722168,0,0.0,0.0,0.0,0.0,16.02136127720511,0.0,0.0,-17.40841253914859,0.0,0.0,0.0,0.0,13,0.9990772267456206,39.0785400390625,-75.87425944010417,0.0071784678,-9.6981099978,0.4091726646,0.0,-9.870393225,0.2584248408,0.048869063500000004,0.100181580175,0.06352978255,0.1075119397,0.032986617862500005,-0.035430071037500004,0.33234,0.27318,-0.98716,0.41586,1.06314,0.41876,0.0035892339,-9.7842516114,0.33379875270000003,0.0781905016,0.06658409901875001,0.014049855756249997,0.3741,0.66816,-0.2842,8.94368,-1.41216,11.768,24.955,-54.9451664224092
97201,10277404,0,5,-1357,25,55,111,28,573,471,-1702,-5,-1381,8,118,59,-57,720,1832,720,320,-160,352,24.95,0.994147545028374,24.96,1.004194423883543,3904.71240234375,-7552.45556640625,15.600000381469728,12.89484977722168,0,0.0,0.0,0.0,0.0,15.818669603103212,0.0,0.0,-17.523311490797646,0.0,0.0,0.0,0.0,13,0.9991709844559584,39.0785400390625,-75.87425944010417,0.035892339,-9.7411808046,0.179461695,-0.035892339,-9.9134640318,0.0574277424,0.06719496231250001,0.13561165121250002,0.034208344450000004,0.144163737325,0.0720818686625,-0.06963841548750001,0.33234,0.27318,-0.98716,0.4176,1.06256,0.4176,0.0,-9.827322418200001,0.1184447187,0.10567934981875002,0.1038467599375,-0.017715035518750002,0.37497,0.66787,-0.28478000000000003,9.4144,-4.7072,10.35584,24.955,-55.76514420021864
97202,10277509,0,-11,-1361,50,-10,49,73,616,465,-1689,-18,-1379,33,41,-17,3,720,1832,720,448,-16,368,24.95,0.9941376757957068,24.96,1.003987169997533,3904.71240234375,-7552.45556640625,15.600000381469728,12.89484977722168,0,0.0,0.0,0.0,0.0,15.30996414545744,0.0,0.0,-17.78981302047138,0.0,0.0,0.0,0.0,13,0.9990624228966198,39.0785400390625,-75.87425944010417,-0.07896314580000001,-9.7698946758,0.35892339,-0.1292124204,-9.8991070962,0.2368894374,-0.012217265875000001,0.059864602787500006,0.0891860408875,0.0500907900875,-0.0207693519875,0.0036651797625,0.35728,0.2697,-0.97962,0.4176,1.06256,0.4176,-0.1040877831,-9.834500886,0.29790641370000004,0.01893676210625,0.019547625400000004,0.046425610325,0.38744,0.66613,-0.28101,13.18016,-0.47072,10.82656,24.955,-54.81859905489806
97203,10277614,0,4,-1358,43,-17,85,132,616,465,-1689,-10,-1375,23,34,33,36,713,1824,707,432,-144,384,24.97,0.9941278065630396,24.96,1.0043029854428818,3904.71240234375,-7552.45556640625,15.600000381469728,12.859399795532228,0,0.0,0.0,0.0,0.0,15.03312426389226,0.0,0.0,-17.921754675417727,0.0,0.0,0.0,0.0,13,0.9992153960029606,39.0785400390625,-75.87425944010417,0.0287138712,-9.7483592724,0.3086741154,-0.071784678,-9.870393225,0.1651047594,-0.0207693519875,0.1038467599375,0.16126790955,0.041538703975,0.0403169773875,0.04398215715,0.35728,0.2697,-0.97962,0.41354,1.05792,0.41006,-0.0215354034,-9.809376248700001,0.2368894374,0.01038467599375,0.0720818686625,0.10262503335,0.38541000000000003,0.66381,-0.28478000000000003,12.70944,-4.23648,11.29728,24.965,-56.15744111352363
97204,10277720,0,5,-1357,61,-19,77,114,613,472,-1676,1,-1378,43,45,12,21,713,1824,707,384,-144,336,24.95,0.9943054527510486,24.98,1.0041549469528743,3904.71240234375,-7552.45556640625,15.600000381469728,12.8416748046875,0,0.0,0.0,0.0,0.0,14.636377921956186,0.0,0.0,-18.11207336773392,0.0,0.0,0.0,0.0,13,0.9992301998519615,39.0785400390625,-75.87425944010417,0.035892339,-9.7411808046,0.43788653580000003,0.0071784678,-9.8919286284,0.3086741154,-0.023212805162500003,0.09407294723750001,0.13927683097500002,0.0549776964375,0.01466071905,0.0256562583375,0.35554,0.27376,-0.97208,0.41354,1.05792,0.41006,0.0215354034,-9.8165547165,0.3732803256,0.0158824456375,0.05436683314375,0.08246654465625,0.38454,0.66584,-0.28101000000000004,11.29728,-4.23648,9.88512,24.965,-56.281389959111635
97205,10277825,0,11,-1350,41,4,97,93,613,472,-1676,5,-1372,25,60,40,18,717,1843,727,336,-112,256,24.96,0.9942264988897114,24.96,1.0044115470022206,3904.71240234375,-7552.45556640625,15.600000381469728,12.877124786376951,0,0.0,0.0,0.0,0.0,14.379295513442298,0.0,0.0,-18.21555570886153,0.0,0.0,0.0,0.0,13,0.999319022945966,39.0785400390625,-75.87425944010417,0.07896314580000001,-9.69093153,0.2943171798,0.035892339,-9.848857821600001,0.179461695,0.00488690635,0.11850747898750001,0.1136205726375,0.07330359525,0.048869063500000004,0.021991078575,0.35554,0.27376,-0.97208,0.41586,1.06894,0.42166,0.05742774240000001,-9.7698946758,0.2368894374,0.0390952508,0.08368827124375,0.06780582560625,0.38570000000000004,0.67135,-0.27521000000000007,9.88512,-3.29504,7.53152,24.96,-57.058275219266534
97206,10277931,0,2,-1361,55,-2,66,56,609,459,-1659,-4,-1378,34,53,12,-28,717,1843,727,352,-128,288,24.98,0.9942264988897114,24.97,1.004026646928201,3904.71240234375,-7552.45556640625,15.600000381469728,12.877124786376951,0,0.0,0.0,0.0,0.0,15.21995944665238,0.0,0.0,-17.708382424119616,0.0,0.0,0.0,0.0,13,0.9991265729089562,39.0785400390625,-75.87425944010417,0.0143569356,-9.7698946758,0.394815729,-0.0287138712,-9.8919286284,0.24406790520000002,-0.002443453175,0.080633954775,0.06841668890000001,0.0647515091375,0.01466071905,-0.034208344450000004,0.35322,0.26622,-0.96222,0.41586,1.06894,0.42166,-0.0071784678,-9.8309116521,0.3194418171,0.03115402798125,0.047647336912500005,0.017104172225000002,0.38454,0.6675800000000001,-0.27027999999999996,10.35584,-3.76576,8.47296,24.975,-55.38552181965724
97207,10278036,0,-1,-1360,42,32,117,88,609,459,-1659,-14,-1382,27,71,58,-13,727,1829,717,416,-176,320,24.97,0.9942857142857144,24.99,1.0038490007401923,3904.71240234375,-7552.45556640625,15.600000381469728,12.89484977722168,0,0.0,0.0,0.0,0.0,15.341708111514418,0.0,0.0,-17.622868066422985,0.0,0.0,0.0,0.0,13,0.9990673575129534,39.0785400390625,-75.87425944010417,-0.0071784678,-9.762716208,0.3014956476,-0.10049854920000001,-9.9206424996,0.1938186306,0.0390952508,0.1429420107375,0.1075119397,0.0867425877125,0.07086014207500001,-0.0158824456375,0.35322,0.26622,-0.96222,0.42166,1.06082,0.41586,-0.05383850850000001,-9.8416793538,0.24765713910000003,0.06291891925625,0.10690107640625002,0.045814747031250005,0.38744,0.6635200000000001,-0.27318,12.23872,-5.17792,9.4144,24.979999999999997,-54.86664907487307
97208,10278141,0,5,-1360,46,-4,71,110,586,473,-1667,-4,-1385,25,43,20,19,727,1829,717,320,-192,320,24.95,0.9943054527510486,24.97,1.0039575622995311,3904.71240234375,-7552.45556640625,15.600000381469728,12.89484977722168,0,0.0,0.0,0.0,0.0,15.143797622936248,0.0,0.0,-17.720409322559174,0.0,0.0,0.0,0.0,13,0.9991315075252899,39.0785400390625,-75.87425944010417,0.035892339,-9.762716208,0.3302095188,-0.0287138712,-9.942177903000001,0.179461695,-0.00488690635,0.0867425877125,0.13438992462500002,0.0525342432625,0.024434531750000002,0.023212805162500003,0.33988,0.27434000000000003,-0.96686,0.42166,1.06082,0.41586,0.0035892339000000006,-9.8524470555,0.2548356069,0.023823668456250002,0.05558855973125,0.07880136489375,0.38077,0.6675800000000001,-0.2755,9.4144,-5.64864,9.4144,24.96,-55.42096012938991
97209,10278247,0,12,-1355,40,15,118,90,594,459,-1658,4,-1374,23,49,50,8,728,1823,728,384,-64,400,24.97,0.9941278065630396,24.98,1.0041746854182088,3904.71240234375,-7552.45556640625,15.600000381469728,12.859399795532228,0,0.0,0.0,0.0,0.0,15.27081888625983,0.0,0.0,-17.63185131963689,0.0,0.0,0.0,0.0,13,0.9991512459906242,39.0785400390625,-75.87425944010417,0.0861416136,-9.726823869,0.287138712,0.0287138712,-9.8632147572,0.1651047594,0.0183258988125,0.144163737325,0.109955392875,0.059864602787500006,0.061086329375000005,0.0097738127,0.34452,0.26622,-0.96164,0.42224,1.05734,0.42224,0.0574277424,-9.7950193131,0.2261217357,0.0390952508,0.10262503335,0.0598646027875,0.38338,0.66178,-0.26970000000000005,11.29728,-1.88288,11.768,24.975,-55.598125845517686
97210,10278352,0,5,-1357,42,5,56,75,594,459,-1658,1,-1378,26,41,2,-9,728,1823,728,384,-96,384,24.96,0.99426597582038,24.98,1.003878608438194,3904.71240234375,-7552.45556640625,15.600000381469728,12.89484977722168,0,0.0,0.0,0.0,0.0,15.11405971339134,0.0,0.0,-17.70622346427643,0.0,0.0,0.0,0.0,13,0.999072292129287,39.0785400390625,-75.87425944010417,0.035892339,-9.7411808046,0.3014956476,0.0071784678,-9.8919286284,0.1866401628,0.0061086329375000005,0.06841668890000001,0.09162949406250001,0.0500907900875,0.002443453175,-0.0109955392875,0.34452,0.26622,-0.96164,0.42224,1.05734,0.42224,0.0215354034,-9.8165547165,0.24406790520000002,0.0280997115125,0.035430071037500004,0.04031697738750001,0.38338,0.66178,-0.26970000000000005,11.29728,-2.82432,11.29728,24.97,-54.907166408075966
97211,10278458,0,4,-1362,47,5,83,82,586,464,-1647,-10,-1374,21,47,31,9,733,1819,731,352,-80,432,24.96,0.9942857142857144,25.0,1.0038687392055268,3904.71240234375,-7552.45556640625,15.600000381469728,12.89484977722168,0,0.0,0.0,0.0,0.0,15.217567108011158,0.0,0.0,-17.631203966332997,0.0,0.0,0.0,0.0,13,0.9990772267456206,39.0785400390625,-75.87425944010417,0.0287138712,-9.777073143600001,0.3373879866,-0.071784678,-9.8632147572,0.1507478238,0.0061086329375000005,0.1014033067625,0.100181580175,0.0574211496125,0.0378735242125,0.0109955392875,0.33988,0.26912,-0.95526,0.42514,1.05502,0.42398,-0.0215354034,-9.8201439504,0.24406790520000002,0.031764891275,0.06963841548750001,0.05558855973125,0.38251,0.66207,-0.26564,10.35584,-2.3536,12.70944,24.98,-54.95019478071859
97212,10278563,0,1,-1359,48,16,66,91,586,464,-1647,-9,-1379,35,48,7,15,733,1819,731,336,-32,368,24.97,0.9942363681223784,24.99,1.0038983469035283,3904.71240234375,-7552.45556640625,15.600000381469728,12.877124786376951,0,0.0,0.0,0.0,0.0,15.426489282052133,0.0,0.0,-17.50219144643249,0.0,0.0,0.0,0.0,13,0.9990673575129534,39.0785400390625,-75.87425944010417,0.0071784678,-9.755537740200001,0.3445664544,-0.0646062102,-9.8991070962,0.251246373,0.0195476254,0.080633954775,0.1111771194625,0.0586428762,0.008552086112500001,0.0183258988125,0.33988,0.26912,-0.95526,0.42514,1.05502,0.42398,-0.0287138712,-9.827322418200001,0.29790641370000004,0.0390952508,0.04459302044375,0.0647515091375,0.38251,0.66207,-0.26564,9.88512,-0.94144,10.82656,24.979999999999997,-54.86664907487307
97213,10278668,0,6,-1359,42,-6,108,118,594,459,-1678,3,-1375,30,39,44,30,690,1823,712,448,-80,320,24.97,0.9941870219590428,24.99,1.0038884776708612,3904.71240234375,-7552.45556640625,15.600000381469728,12.89484977722168,0,0.0,0.0,0.0,0.0,16.11741519981486,0.0,0.0,-17.120475856946666,0.0,0.0,0.0,0.0,13,0.9990377498149521,39.0785400390625,-75.87425944010417,0.0430708068,-9.755537740200001,0.3014956476,0.0215354034,-9.870393225,0.215354034,-0.007330359525,0.13194647145000002,0.144163737325,0.047647336912500005,0.05375596985,0.036651797625,0.34452,0.26622,-0.97324,0.4002,1.05734,0.41296,0.0323031051,-9.812965482600001,0.2584248408,0.020158488693750004,0.09285122065000001,0.09040776747500001,0.37236,0.66178,-0.28014,13.18016,-2.3536,9.4144,24.979999999999997,-54.60846334846241
97214,10278774,0,6,-1356,41,1,94,67,594,459,-1678,2,-1373,25,45,21,-14,690,1823,712,336,-96,272,24.97,0.9941968911917098,24.99,1.0038983469035283,3904.71240234375,-7552.45556640625,15.600000381469728,12.89484977722168,0,0.0,0.0,0.0,0.0,15.927179203723446,0.0,0.0,-17.235342504676364,0.0,0.0,0.0,0.0,13,0.9990476190476191,39.0785400390625,-75.87425944010417,0.0430708068,-9.7340023368,0.2943171798,0.0143569356,-9.8560362894,0.179461695,0.0012217265875,0.114842299225,0.0818556813625,0.0549776964375,0.0256562583375,-0.017104172225000002,0.34452,0.26622,-0.97324,0.4002,1.05734,0.41296,0.0287138712,-9.7950193131,0.2368894374,0.0280997115125,0.07024927878125001,0.03237575456875,0.37236,0.66178,-0.28014,9.88512,-2.82432,8.00224,24.979999999999997,-54.69452626919308
97215,10278879,0,2,-1360,44,14,81,69,583,463,-1694,-7,-1379,29,62,22,-24,703,1816,774,352,-160,384,24.96,0.9942264988897114,24.99,1.0038884776708612,3904.71240234375,-7552.45556640625,15.600000381469728,12.877124786376951,0,0.0,0.0,0.0,0.0,15.650129194905666,0.0,0.0,-17.39333906584905,0.0,0.0,0.0,0.0,13,0.9990574882802863,39.0785400390625,-75.87425944010417,0.0143569356,-9.762716208,0.31585258320000004,-0.050249274600000005,-9.8991070962,0.2081755662,0.017104172225000002,0.09895985358750001,0.0842991345375,0.075747048425,0.026877984925,-0.0293214381,0.33814,0.26854,-0.9825200000000001,0.40774,1.05328,0.44892,-0.0179461695,-9.8309116521,0.26201407470000004,0.046425610325000005,0.06291891925625001,0.02748884821875,0.37294,0.66091,-0.26680000000000004,10.35584,-4.7072,11.29728,24.975,-54.77807977237707
97216,10278984,0,-4,-1356,49,6,63,98,583,463,-1694,-6,-1374,29,47,15,11,703,1816,774,352,-128,320,24.98,0.9941179373303726,25.01,1.003829262274858,3904.71240234375,-7552.45556640625,15.600000381469728,12.877124786376951,0,0.0,0.0,0.0,0.0,15.862050500653638,0.0,0.0,-17.27750689176509,0.0,0.0,0.0,0.0,13,0.9989735998026152,39.0785400390625,-75.87425944010417,-0.0287138712,-9.7340023368,0.35174492220000003,-0.0430708068,-9.8632147572,0.2081755662,0.007330359525,0.0769687750125,0.11972920557500001,0.0574211496125,0.0183258988125,0.0134389924625,0.33814,0.26854,-0.9825200000000001,0.40774,1.05328,0.44892,-0.035892339,-9.798608547,0.2799602442,0.03237575456875,0.047647336912500005,0.06658409901875001,0.37294,0.66091,-0.26680000000000004,10.35584,-3.76576,9.4144,24.995,-54.05151356283683
97217,10279089,0,3,-1354,42,-3,76,101,608,482,-1624,-5,-1379,18,46,27,11,721,1826,729,400,-144,320,24.97,0.9943054527510486,25.0,1.003819393042191,3904.71240234375,-7552.45556640625,15.600000381469728,12.89484977722168,0,0.0,0.0,0.0,0.0,15.58587806910379,0.0,0.0,-17.434218279057497,0.0,0.0,0.0,0.0,13,0.9990624228966198,39.0785400390625,-75.87425944010417,0.0215354034,-9.719645401200001,0.3014956476,-0.035892339,-9.8991070962,0.1292124204,-0.0036651797625,0.09285122065000001,0.12339438533750001,0.056199423025,0.032986617862500005,0.0134389924625,0.35264,0.27956,-0.94192,0.41818,1.05908,0.42282000000000003,-0.007178467800000001,-9.809376248700001,0.21535403400000003,0.02626712163125,0.06291891925625001,0.06841668890000001,0.38541000000000003,0.66932,-0.25954999999999995,11.768,-4.23648,9.4144,24.985,-54.823618752922556
97218,10279194,0,8,-1353,43,-2,75,94,608,482,-1624,3,-1377,23,49,23,6,721,1826,729,400,-96,368,24.97,0.9941870219590428,25.0,1.0040167776955342,3904.71240234375,-7552.45556640625,16.100000381469727,12.877124786376951,0,0.0,0.0,0.0,0.0,15.41288900883191,0.0,0.0,-17.528536740810054,0.0,0.0,0.0,0.0,13,0.9991018998272885,39.0785400390625,-75.87425944010417,0.0574277424,-9.7124669334,0.3086741154,0.0215354034,-9.884750160600001,0.1651047594,-0.002443453175,0.09162949406250001,0.114842299225,0.059864602787500006,0.0280997115125,0.007330359525,0.35264,0.27956,-0.94192,0.41818,1.05908,0.42282000000000003,0.0394815729,-9.798608547,0.2368894374,0.028710574806250003,0.059864602787500006,0.061086329375,0.38541000000000003,0.66932,-0.25954999999999995,11.768,-2.82432,10.82656,24.985,-55.167854245479845
97219,10279300,0,4,-1358,38,1,71,80,595,457,-1678,-2,-1374,26,48,18,-8,721,1836,732,416,-160,256,24.95,0.9943646681470516,25.0,1.0039180853688623,3904.71240234375,-7552.45556640625,16.100000381469727,12.89484977722168,0,0.0,0.0,0.0,0.0,15.666167566315105,0.0,0.0,-17.39078911204503,0.0,0.0,0.0,0.0,13,0.9991413767579569,39.0785400390625,-75.87425944010417,0.0287138712,-9.7483592724,0.2727817764,-0.0143569356,-9.8632147572,0.1866401628,0.0012217265875,0.0867425877125,0.09773812700000001,0.0586428762,0.021991078575,-0.0097738127,0.3451,0.26506,-0.97324,0.41818,1.06488,0.42456,0.0071784678,-9.8057870148,0.2297109696,0.02993230139375,0.05436683314375,0.043982157150000006,0.38164,0.6649700000000001,-0.27434000000000003,12.23872,-4.7072,7.53152,24.975,-55.507007664560064
97220,10279405,0,1,-1356,48,3,70,90,595,457,-1678,-16,-1373,30,48,22,8,721,1836,732,400,-48,336,24.95,0.9942955835183814,25.0,1.004026646928201,3904.71240234375,-7552.45556640625,16.100000381469727,12.859399795532228,0,0.0,0.0,0.0,0.0,15.625479986976435,0.0,0.0,-17.419101205028266,0.0,0.0,0.0,0.0,13,0.9991611152232913,39.0785400390625,-75.87425944010417,0.0071784678,-9.7340023368,0.3445664544,-0.1148554848,-9.8560362894,0.215354034,0.0036651797625,0.085520861125,0.109955392875,0.0586428762,0.026877984925,0.0097738127,0.3451,0.26506,-0.97324,0.41818,1.06488,0.42456,-0.0538385085,-9.7950193131,0.2799602442,0.03115402798125,0.056199423025,0.0598646027875,0.38164,0.6649700000000001,-0.27434000000000003,11.768,-1.41216,9.88512,24.975,-55.679099699954065
97221,10279510,0,4,-1353,43,-18,76,96,619,459,-1634,-3,-1374,26,47,21,11,738,1857,719,352,-160,272,24.97,0.9941968911917098,25.01,1.003829262274858,3904.71240234375,-7552.45556640625,16.100000381469727,12.8416748046875,0,0.0,0.0,0.0,0.0,15.776531268401282,0.0,0.0,-17.336035905811922,0.0,0.0,0.0,0.0,13,0.9990130767332839,39.0785400390625,-75.87425944010417,0.0287138712,-9.7124669334,0.3086741154,-0.0215354034,-9.8632147572,0.1866401628,-0.021991078575,0.09285122065000001,0.1172857524,0.0574211496125,0.0256562583375,0.0134389924625,0.35902,0.26622,-0.94772,0.42804,1.07706,0.41702,0.0035892339000000006,-9.7878408453,0.2476571391,0.01771503551875,0.059253739493750006,0.06536237243125,0.39353,0.67164,-0.26535,10.35584,-4.7072,8.00224,24.990000000000002,-54.39330161927067
97222,10279616,0,5,-1364,38,-5,78,105,619,459,-1634,4,-1379,18,41,18,20,738,1857,719,336,-112,320,24.97,0.9943449296817172,25.0,1.004026646928201,3904.71240234375,-7552.45556640625,16.100000381469727,12.859399795532228,0,0.0,0.0,0.0,0.0,15.697395649080384,0.0,0.0,-17.38771970925334,0.0,0.0,0.0,0.0,13,0.9991857883049591,39.0785400390625,-75.87425944010417,0.035892339,-9.7914300792,0.2727817764,0.0287138712,-9.8991070962,0.1292124204,-0.0061086329375000005,0.09529467382500001,0.1282812916875,0.0500907900875,0.021991078575,0.024434531750000002,0.35902,0.26622,-0.94772,0.42804,1.07706,0.41702,0.0323031051,-9.8452685877,0.20099709840000002,0.021991078575000003,0.058642876200000006,0.07635791171875,0.39353,0.67164,-0.26535,9.88512,-3.29504,9.4144,24.985,-55.89930091628169
97223,10279721,0,2,-1355,50,-21,45,81,608,465,-1670,-2,-1372,23,20,-14,-1,720,1818,722,336,-192,336,24.98,0.9941672834937084,25.01,1.0037897853441895,3904.71240234375,-7552.45556640625,16.100000381469727,12.89484977722168,0,0.0,0.0,0.0,0.0,15.614082103536129,0.0,0.0,-17.4325019405538,0.0,0.0,0.0,0.0,13,0.998978534418949,39.0785400390625,-75.87425944010417,0.0143569356,-9.726823869,0.35892339,-0.0143569356,-9.848857821600001,0.1651047594,-0.0256562583375,0.0549776964375,0.09895985358750001,0.024434531750000002,-0.017104172225000002,-0.0012217265875,0.35264,0.2697,-0.9686,0.4176,1.05444,0.41876,0.0,-9.7878408453,0.2620140747,-0.0006108632937499997,0.018936762106249998,0.048869063500000004,0.38512,0.66207,-0.27492,9.88512,-5.64864,9.88512,24.995,-54.09454988231458
97224,10279827,0,3,-1363,56,-11,55,101,608,465,-1670,-2,-1377,34,37,-1,17,720,1818,722,416,-80,368,24.96,0.9941574142610412,25.0,1.003819393042191,3904.71240234375,-7552.45556640625,16.100000381469727,12.859399795532228,0,0.0,0.0,0.0,0.0,15.968728259274265,0.0,0.0,-17.231360854491264,0.0,0.0,0.0,0.0,13,0.9989884036516161,39.0785400390625,-75.87425944010417,0.0215354034,-9.7842516114,0.40199419680000004,-0.0143569356,-9.884750160600001,0.24406790520000002,-0.0134389924625,0.06719496231250001,0.12339438533750001,0.0452038837375,-0.0012217265875,0.0207693519875,0.35264,0.2697,-0.9686,0.4176,1.05444,0.41876,0.0035892338999999997,-9.834500886,0.323031051,0.0158824456375,0.032986617862500005,0.0720818686625,0.38512,0.66207,-0.27492,12.23872,-2.3536,10.82656,24.98,-54.17564536786202
97225,10279932,0,0,-1355,59,-7,78,112,610,455,-1721,-6,-1379,36,46,18,26,739,1859,721,448,-112,416,24.95,0.9942758450530472,25.01,1.003878608438194,3904.71240234375,-7552.45556640625,16.100000381469727,12.89484977722168,0,0.0,0.0,0.0,0.0,15.967240970392906,0.0,0.0,-17.239818836915337,0.0,0.0,0.0,0.0,13,0.9990772267456207,39.0785400390625,-75.87425944010417,0.0,-9.726823869,0.4235296002,-0.0430708068,-9.8991070962,0.2584248408,-0.008552086112500001,0.09529467382500001,0.13683337780000002,0.056199423025,0.021991078575,0.031764891275,0.3538,0.2639,-0.99818,0.42862,1.07822,0.41818,-0.0215354034,-9.8129654826,0.3409772205,0.02382366845625,0.058642876200000006,0.08429913453750001,0.39121,0.67106,-0.29,13.18016,-3.29504,12.23872,24.98,-54.9476806015639
97226,10280037,0,8,-1357,37,-7,97,113,612,470,-1681,3,-1378,21,45,56,25,733,1840,731,384,-208,352,24.98,0.9939995065383668,25.0,1.004026646928201,3904.71240234375,-7552.45556640625,16.100000381469727,12.859399795532228,0,0.0,0.0,0.0,0.0,15.7121696648579,0.0,0.0,-17.39159488251599,0.0,0.0,0.0,0.0,13,0.9990130767332839,39.0785400390625,-75.87425944010417,0.0574277424,-9.7411808046,0.26560330860000003,0.0215354034,-9.8919286284,0.1507478238,-0.008552086112500001,0.11850747898750001,0.13805510438750002,0.0549776964375,0.06841668890000001,0.030543164687500002,0.35496,0.2726,-0.97498,0.42514,1.0672,0.42398,0.0394815729,-9.8165547165,0.20817556620000002,0.0232128051625,0.09346208394375001,0.08429913453750001,0.39005,0.6698999999999999,-0.27549999999999997,11.29728,-6.11936,10.35584,24.990000000000002,-54.395797033923145
97227,10280143,0,4,-1356,43,-3,66,76,612,470,-1681,4,-1372,28,45,21,-14,733,1840,731,384,-64,304,24.97,0.9941278065630396,25.0,1.0038687392055268,3904.71240234375,-7552.45556640625,16.100000381469727,12.877124786376951,0,0.0,0.0,0.0,0.0,16.451734244276373,0.0,0.0,-16.984466418719308,0.0,0.0,0.0,0.0,13,0.9989982728842832,39.0785400390625,-75.87425944010417,0.0287138712,-9.7340023368,0.3086741154,0.0287138712,-9.848857821600001,0.20099709840000002,-0.0036651797625,0.080633954775,0.09285122065000001,0.0549776964375,0.0256562583375,-0.017104172225000002,0.35496,0.2726,-0.97498,0.42514,1.0672,0.42398,0.0287138712,-9.791430079200001,0.2548356069,0.0256562583375,0.05314510655625,0.0378735242125,0.39005,0.6698999999999999,-0.27549999999999997,11.29728,-1.88288,8.94368,24.985,-54.26420154574923
97228,10280248,0,-8,-1356,52,-2,49,57,615,461,-1701,-22,-1374,30,55,-13,-36,721,1839,744,432,-176,336,24.96,0.9943153219837156,25.01,1.0039970392301998,3904.71240234375,-7552.45556640625,16.100000381469727,12.859399795532228,0,0.0,0.0,0.0,0.0,16.08788339517892,0.0,0.0,-17.208383221862064,0.0,0.0,0.0,0.0,13,0.9991561806069578,39.0785400390625,-75.87425944010417,-0.0574277424,-9.7340023368,0.3732803256,-0.15792629160000002,-9.8632147572,0.215354034,-0.002443453175,0.059864602787500006,0.06963841548750001,0.06719496231250001,-0.0158824456375,-0.04398215715,0.3567,0.26738,-0.98658,0.41818,1.06662,0.43152,-0.10767701700000001,-9.798608547,0.2943171798,0.032375754568750005,0.021991078575000003,0.012828129168750004,0.38744,0.6669999999999999,-0.27753,12.70944,-5.17792,9.88512,24.985,-55.63861434242621
97229,10280354,0,1,-1357,54,12,107,97,615,461,-1701,-7,-1380,33,60,43,16,721,1839,744,352,-80,352,24.95,0.9942955835183814,25.02,1.0038490007401923,3904.71240234375,-7552.45556640625,16.100000381469727,12.89484977722168,0,0.0,0.0,0.0,0.0,15.728326295195847,0.0,0.0,-17.4177253236679,0.0,0.0,0.0,0.0,13,0.9990722921292869,39.0785400390625,-75.87425944010417,0.0071784678,-9.7411808046,0.3876372612,-0.050249274600000005,-9.906285564000001,0.2368894374,0.01466071905,0.13072474486250002,0.11850747898750001,0.07330359525,0.0525342432625,0.0195476254,0.3567,0.26738,-0.98658,0.41818,1.06662,0.43152,-0.021535403400000003,-9.8237331843,0.3122633493,0.043982157150000006,0.09162949406250001,0.06902755219375001,0.38744,0.6669999999999999,-0.27753,10.35584,-2.3536,10.35584,24.985,-54.904653672293605
97230,10280459,0,13,-1354,43,-7,99,122,606,452,-1664,5,-1372,23,57,52,35,718,1834,728,352,-128,352,24.98,0.9941376757957068,25.02,1.0038983469035283,3904.71240234375,-7552.45556640625,16.100000381469727,12.8416748046875,0,0.0,0.0,0.0,0.0,15.92110945676402,0.0,0.0,-17.31141018514643,0.0,0.0,0.0,0.0,13,0.9990180113496175,39.0785400390625,-75.87425944010417,0.0933200814,-9.719645401200001,0.3086741154,0.035892339,-9.848857821600001,0.1651047594,-0.008552086112500001,0.12095093216250001,0.149050643675,0.06963841548750001,0.06352978255,0.0427604305625,0.35148,0.26216,-0.96512,0.41644,1.06372,0.42224,0.0646062102,-9.784251611400002,0.2368894374,0.030543164687500002,0.09224035735625,0.09590553711875001,0.38395999999999997,0.66294,-0.27144,10.35584,-3.76576,10.35584,25.0,-54.43883132923435
97231,10280564,0,6,-1358,45,-3,68,83,606,452,-1664,-3,-1378,22,37,18,-6,718,1834,728,304,-96,400,24.96,0.9942166296570442,25.01,1.0040365161608684,3904.71240234375,-7552.45556640625,16.100000381469727,12.877124786376951,0,0.0,0.0,0.0,0.0,16.022851398609294,0.0,0.0,-17.26355562741046,0.0,0.0,0.0,0.0,13,0.9991265729089562,39.0785400390625,-75.87425944010417,0.0430708068,-9.7483592724,0.323031051,-0.0215354034,-9.8919286284,0.15792629160000002,-0.0036651797625,0.08307740795,0.1014033067625,0.0452038837375,0.021991078575,-0.007330359525,0.35148,0.26216,-0.96512,0.41644,1.06372,0.42224,0.0107677017,-9.8201439504,0.2404786713,0.0207693519875,0.0525342432625,0.047036473618750005,0.38395999999999997,0.66294,-0.27144,8.94368,-2.82432,11.768,24.985,-55.38046459483452
97232,10280670,0,5,-1362,39,-16,40,64,591,486,-1706,-4,-1383,17,28,-6,-26,693,1836,687,432,-160,272,24.97,0.9943449296817172,25.01,1.0041549469528743,3904.71240234375,-7552.45556640625,16.100000381469727,12.877124786376951,0,0.0,0.0,0.0,0.0,15.869504615519231,0.0,0.0,-17.35847228130481,0.0,0.0,0.0,0.0,13,0.9992499383172957,39.0785400390625,-75.87425944010417,0.035892339,-9.777073143600001,0.2799602442,-0.0287138712,-9.9278209674,0.12203395260000001,-0.0195476254,0.048869063500000004,0.0781905016,0.034208344450000004,-0.007330359525,-0.031764891275,0.34278000000000003,0.28188,-0.98948,0.40194,1.06488,0.39846,0.0035892339000000006,-9.8524470555,0.2009970984,0.007330359525000002,0.020769351987500004,0.023212805162500003,0.37236,0.6733800000000001,-0.29551000000000005,12.70944,-4.7072,8.00224,24.990000000000002,-56.45859317049593
97233,10280775,0,4,-1356,63,-13,62,93,591,486,-1706,3,-1375,35,33,9,11,693,1836,687,352,-64,352,24.97,0.9941278065630396,25.0,1.003760177646188,3904.71240234375,-7552.45556640625,16.100000381469727,12.877124786376951,0,0.0,0.0,0.0,0.0,16.45512401349052,0.0,0.0,-17.036197054840613,0.0,0.0,0.0,0.0,13,0.9989439921046137,39.0785400390625,-75.87425944010417,0.0287138712,-9.7340023368,0.45224347140000004,0.0215354034,-9.870393225,0.251246373,-0.0158824456375,0.075747048425,0.1136205726375,0.0403169773875,0.0109955392875,0.0134389924625,0.34278000000000003,0.28188,-0.98948,0.40194,1.06488,0.39846,0.025124637300000002,-9.8021977809,0.35174492220000003,0.012217265875000001,0.04337129385625,0.06352978255,0.37236,0.6733800000000001,-0.29551000000000005,10.35584,-1.88288,10.35584,24.985,-53.790815127085565
97234,10280881,0,7,-1355,71,-12,87,114,623,460,-1699,-3,-1384,42,39,32,36,727,1836,744,464,-96,416,24.97,0.9941278065630396,25.0,1.0036121391561803,3904.71240234375,-7552.45556640625,16.100000381469727,12.877124786376951,0,0.0,0.0,0.0,0.0,17.122477640481822,0.0,0.0,-16.69450540779495,0.0,0.0,0.0,0.0,13,0.99886997285961,39.0785400390625,-75.87425944010417,0.050249274600000005,-9.726823869,0.5096712138,-0.0215354034,-9.9349994352,0.3014956476,-0.01466071905,0.1062902131125,0.13927683097500002,0.047647336912500005,0.0390952508,0.04398215715,0.36134,0.2668,-0.98542,0.42166,1.06488,0.43152,0.014356935600000002,-9.8309116521,0.4055834307,0.016493308931250002,0.07269273195625,0.09162949406250001,0.39149999999999996,0.66584,-0.27695,13.65088,-2.82432,12.23872,24.985,-53.14523884881838
97235,10280986,0,5,-1356,48,31,100,99,623,460,-1699,-2,-1371,30,57,46,16,727,1836,744,400,-160,288,24.97,0.9940981988650384,25.0,1.0037996545768566,3904.71240234375,-7552.45556640625,16.100000381469727,12.877124786376951,0,0.0,0.0,0.0,0.0,17.217584317610616,0.0,0.0,-16.683103144814392,0.0,0.0,0.0,0.0,13,0.9989489267209475,39.0785400390625,-75.87425944010417,0.035892339,-9.7340023368,0.3445664544,-0.0143569356,-9.8416793538,0.215354034,0.0378735242125,0.12217265875000001,0.12095093216250001,0.06963841548750001,0.056199423025,0.0195476254,0.36134,0.2668,-0.98542,0.42166,1.06488,0.43152,0.0107677017,-9.7878408453,0.2799602442,0.05375596985,0.08918604088750001,0.07024927878125001,0.39149999999999996,0.66584,-0.27695,11.768,-4.7072,8.47296,24.985,-53.83385152120981
97236,10281091,0,12,-1356,35,11,77,71,618,464,-1707,4,-1379,19,61,23,-17,712,1867,730,464,-96,336,24.96,0.9943153219837156,25.01,1.0036812237848507,3904.71240234375,-7552.45556640625,16.100000381469727,12.859399795532228,0,0.0,0.0,0.0,0.0,16.999596700580057,0.0,0.0,-16.847680881922454,0.0,0.0,0.0,0.0,13,0.9989982728842832,39.0785400390625,-75.87425944010417,0.0861416136,-9.7340023368,0.251246373,0.0287138712,-9.8991070962,0.1363908882,0.0134389924625,0.09407294723750001,0.0867425877125,0.0745253218375,0.0280997115125,-0.0207693519875,0.35844,0.26912,-0.99006,0.41296,1.08286,0.4234,0.0574277424,-9.8165547165,0.1938186306,0.043982157150000006,0.061086329375000005,0.0329866178625,0.3857,0.67599,-0.28333,13.65088,-2.82432,9.88512,24.985,-54.261710461570175
97237,10281197,0,1,-1358,54,6,51,66,618,464,-1707,-6,-1375,34,49,-1,-19,712,1867,730,336,-160,416,24.96,0.9941278065630396,25.0,1.00406612385887,3904.71240234375,-7552.45556640625,16.100000381469727,12.859399795532228,0,0.0,0.0,0.0,0.0,16.601655354254206,0.0,0.0,-17.09905343827247,0.0,0.0,0.0,0.0,13,0.9990969652109547,39.0785400390625,-75.87425944010417,0.0071784678,-9.7483592724,0.3876372612,-0.0430708068,-9.870393225,0.24406790520000002,0.007330359525,0.062308055962500004,0.080633954775,0.059864602787500006,-0.0012217265875,-0.023212805162500003,0.35844,0.26912,-0.99006,0.41296,1.08286,0.4234,-0.0179461695,-9.809376248700001,0.31585258320000004,0.033597481156250004,0.030543164687500002,0.02871057480625,0.3857,0.67599,-0.28333,9.88512,-4.7072,12.23872,24.98,-55.12230574171147
97238,10281302,0,-6,-1361,65,-9,51,86,594,447,-1689,-19,-1378,35,41,7,12,707,1839,759,368,-112,352,24.96,0.9941574142610412,25.0,1.0040167776955342,3904.71240234375,-7552.45556640625,16.100000381469727,12.859399795532228,0,0.0,0.0,0.0,0.0,16.415041934497037,0.0,0.0,-17.216423600610266,0.0,0.0,0.0,0.0,13,0.9990870959782877,39.0785400390625,-75.87425944010417,-0.0430708068,-9.7698946758,0.466600407,-0.1363908882,-9.8919286284,0.251246373,-0.0109955392875,0.062308055962500004,0.105068486525,0.0500907900875,0.008552086112500001,0.01466071905,0.34452,0.25926,-0.97962,0.41006,1.06662,0.44022,-0.0897308475,-9.8309116521,0.35892339,0.0195476254,0.035430071037500004,0.0598646027875,0.37729,0.66294,-0.26970000000000005,10.82656,-3.29504,10.35584,24.98,-55.036250767123434
97239,10281407,0,5,-1362,47,-2,94,113,594,447,-1689,-5,-1378,37,48,31,29,707,1839,759,400,-80,336,24.97,0.9941968911917098,25.0,1.003760177646188,3904.71240234375,-7552.45556640625,16.100000381469727,12.859399795532228,0,0.0,0.0,0.0,0.0,16.265471730794896,0.0,0.0,-17.306615309877106,0.0,0.0,0.0,0.0,13,0.9989785344189489,39.0785400390625,-75.87425944010417,0.035892339,-9.777073143600001,0.3373879866,-0.035892339,-9.8919286284,0.26560330860000003,-0.002443453175,0.114842299225,0.13805510438750002,0.0586428762,0.0378735242125,0.035430071037500004,0.34452,0.25926,-0.97962,0.41006,1.06662,0.44022,0.0,-9.834500886,0.3014956476,0.0280997115125,0.07635791171875,0.08674258771250001,0.37729,0.66294,-0.26970000000000005,11.768,-2.3536,9.88512,24.985,-54.0920645722189
97240,10281513,0,7,-1351,39,1,78,94,599,453,-1680,5,-1374,22,44,16,6,715,1809,704,448,-96,336,24.96,0.9942264988897114,25.01,1.003829262274858,3904.71240234375,-7552.45556640625,16.100000381469727,12.859399795532228,0,0.0,0.0,0.0,0.0,16.18857983219305,0.0,0.0,-17.354227104881154,0.0,0.0,0.0,0.0,13,0.9990278805822846,39.0785400390625,-75.87425944010417,0.050249274600000005,-9.6981099978,0.2799602442,0.035892339,-9.8632147572,0.15792629160000002,0.0012217265875,0.09529467382500001,0.114842299225,0.05375596985,0.0195476254,0.007330359525,0.34742,0.26274000000000003,-0.9744,0.4147,1.04922,0.40832,0.0430708068,-9.7806623775,0.21894326790000002,0.02748884821875,0.05742114961250001,0.061086329375,0.38106,0.65598,-0.28304,13.18016,-2.82432,9.88512,24.985,-54.51989967071948
97241,10281618,0,-4,-1354,52,-12,70,71,599,453,-1680,-4,-1369,36,38,20,-13,715,1809,704,384,-208,352,24.96,0.9940685911670368,25.01,1.003760177646188,3904.71240234375,-7552.45556640625,16.100000381469727,12.877124786376951,0,0.0,0.0,0.0,0.0,16.705979207999018,0.0,0.0,-17.075184952354785,0.0,0.0,0.0,0.0,13,0.9989143844066124,39.0785400390625,-75.87425944010417,-0.0287138712,-9.719645401200001,0.3732803256,-0.0287138712,-9.8273224182,0.2584248408,-0.01466071905,0.085520861125,0.0867425877125,0.046425610325000005,0.024434531750000002,-0.0158824456375,0.34742,0.26274000000000003,-0.9744,0.4147,1.04922,0.40832,-0.0287138712,-9.773483909700001,0.3158525832,0.015882445637500003,0.0549776964375,0.0354300710375,0.38106,0.65598,-0.28304,11.29728,-6.11936,10.35584,24.985,-53.530124905023484
97242,10281724,0,-12,-1358,53,-7,78,82,578,469,-1694,-13,-1378,30,54,23,-3,702,1811,715,304,-80,448,24.98,0.9939995065383668,24.99,1.0037799161115224,3904.71240234375,-7552.45556640625,16.100000381469727,12.89484977722168,0,0.0,0.0,0.0,0.0,16.65032737641215,0.0,0.0,-17.117438469503625,0.0,0.0,0.0,0.0,13,0.9988897113249446,39.0785400390625,-75.87425944010417,-0.0861416136,-9.7483592724,0.3804587934,-0.0933200814,-9.8919286284,0.215354034,-0.008552086112500001,0.09529467382500001,0.100181580175,0.06597323572500001,0.0280997115125,-0.0036651797625,0.33524,0.27202,-0.9825200000000001,0.40716,1.05038,0.4147,-0.0897308475,-9.8201439504,0.2979064137,0.028710574806250003,0.061697192668750005,0.048258200206250004,0.3712,0.6612,-0.28391,8.94368,-2.3536,13.18016,24.985,-53.319857415493274
97243,10281829,0,5,-1357,55,-3,100,126,583,470,-1650,-2,-1381,38,60,38,41,702,1811,715,320,-128,384,24.95,0.9942067604243772,25.01,1.0039674315321985,3904.71240234375,-7552.45556640625,16.100000381469727,12.89484977722168,0,0.0,0.0,0.0,0.0,15.953884793546315,0.0,0.0,-17.522138686580426,0.0,0.0,0.0,0.0,13,0.9990870959782878,39.0785400390625,-75.87425944010417,0.035892339,-9.7411808046,0.394815729,-0.0143569356,-9.9134640318,0.2727817764,-0.0036651797625,0.12217265875000001,0.153937550025,0.07330359525,0.046425610325000005,0.0500907900875,0.33814,0.2726,-0.957,0.40716,1.05038,0.4147,0.0107677017,-9.827322418200001,0.33379875270000003,0.034819207743750004,0.08429913453750001,0.10201417005625,0.37265000000000004,0.66149,-0.27115,9.4144,-3.76576,11.29728,24.98,-55.03373370124952
97244,10281934,0,4,-1358,48,22,78,106,583,470,-1650,1,-1377,31,64,31,21,707,1836,729,432,-80,416,24.97,0.9941870219590428,25.0,1.0039180853688623,3904.71240234375,-7552.45556640625,16.100000381469727,12.859399795532228,0,0.0,0.0,0.0,0.0,15.773552795807475,0.0,0.0,-17.609859197302587,0.0,0.0,0.0,0.0,13,0.9990525536639525,39.0785400390625,-75.87425944010417,0.0287138712,-9.7483592724,0.3445664544,0.0071784678,-9.884750160600001,0.2225325018,0.026877984925,0.09529467382500001,0.129503018275,0.0781905016,0.0378735242125,0.0256562583375,0.33814,0.2726,-0.957,0.41006,1.06488,0.42282000000000003,0.0179461695,-9.8165547165,0.2835494781,0.0525342432625,0.06658409901875001,0.07757963830625,0.3741,0.66874,-0.26708999999999994,12.70944,-2.3536,12.23872,24.985,-54.73755735008001
97245,10282040,0,9,-1355,34,0,73,59,596,477,-1682,4,-1369,10,56,26,-29,707,1836,729,304,-96,336,24.96,0.9941278065630396,24.98,1.0039674315321985,3904.71240234375,-7552.45556640625,16.299999237060547,12.8416748046875,0,0.0,0.0,0.0,0.0,16.170990033648497,0.0,0.0,-17.379389950235627,0.0,0.0,0.0,0.0,13,0.999047619047619,39.0785400390625,-75.87425944010417,0.0646062102,-9.726823869,0.24406790520000002,0.0287138712,-9.8273224182,0.071784678,0.0,0.0891860408875,0.0720818686625,0.06841668890000001,0.031764891275,-0.035430071037500004,0.34568,0.27666,-0.97556,0.41006,1.06488,0.42282000000000003,0.0466600407,-9.7770731436,0.15792629160000002,0.034208344450000004,0.06047546608125,0.0183258988125,0.37787,0.6707700000000001,-0.27637,8.94368,-2.82432,9.88512,24.97,-54.69202075039965
97246,10282145,0,1,-1356,51,-2,51,60,596,477,-1682,-11,-1377,32,48,12,-28,715,1846,723,400,-112,432,24.97,0.9942857142857144,24.99,1.0038490007401923,3904.71240234375,-7552.45556640625,16.299999237060547,12.877124786376951,0,0.0,0.0,0.0,0.0,15.672768095165049,0.0,0.0,-17.65253602168224,0.0,0.0,0.0,0.0,13,0.9990673575129534,39.0785400390625,-75.87425944010417,0.0071784678,-9.7340023368,0.36610185780000004,-0.07896314580000001,-9.884750160600001,0.2297109696,-0.002443453175,0.062308055962500004,0.07330359525,0.0586428762,0.01466071905,-0.034208344450000004,0.34568,0.27666,-0.97556,0.4147,1.07068,0.41934,-0.035892339,-9.809376248700001,0.29790641370000004,0.0280997115125,0.03848438750625,0.0195476254,0.38019000000000003,0.67367,-0.27810999999999997,11.768,-3.29504,12.70944,24.979999999999997,-54.86664907487307
97247,10282251,0,-1,-1353,47,-3,119,105,598,469,-1691,-11,-1376,25,55,64,23,715,1846,723,368,-80,416,24.96,0.99433506044905,24.97,1.0037996545768566,3904.71240234375,-7552.45556640625,16.299999237060547,12.89484977722168,0,0.0,0.0,0.0,0.0,15.6531084917832,0.0,0.0,-17.64614906906506,0.0,0.0,0.0,0.0,13,0.9990673575129533,39.0785400390625,-75.87425944010417,-0.0071784678,-9.7124669334,0.3373879866,-0.07896314580000001,-9.8775716928,0.179461695,-0.0036651797625,0.1453854639125,0.1282812916875,0.06719496231250001,0.0781905016,0.0280997115125,0.34684,0.27202,-0.98078,0.4147,1.07068,0.41934,-0.04307080680000001,-9.7950193131,0.2584248408,0.031764891275000005,0.11178798275625002,0.07819050159999999,0.38077,0.67135,-0.28071999999999997,10.82656,-2.3536,12.23872,24.965,-54.8641377824715
97248,10282356,0,4,-1354,36,-5,94,114,598,469,-1691,1,-1374,16,48,32,32,733,1814,741,416,-80,320,24.96,0.99433506044905,24.98,1.004075993091537,3904.71240234375,-7552.45556640625,16.299999237060547,12.859399795532228,0,0.0,0.0,0.0,0.0,15.296085667787176,0.0,0.0,-17.828252377939542,0.0,0.0,0.0,0.0,13,0.9992055267702935,39.0785400390625,-75.87425944010417,0.0287138712,-9.719645401200001,0.2584248408,0.0071784678,-9.8632147572,0.1148554848,-0.0061086329375000005,0.114842299225,0.13927683097500002,0.0586428762,0.0390952508,0.0390952508,0.34684,0.27202,-0.98078,0.42514,1.05212,0.42978,0.0179461695,-9.791430079200001,0.1866401628,0.02626712163125,0.0769687750125,0.08918604088750001,0.38599,0.6620699999999999,-0.27549999999999997,12.23872,-2.3536,9.4144,24.97,-56.06884368884512
97249,10282461,0,2,-1358,38,8,75,76,591,469,-1683,-6,-1381,12,67,33,-15,733,1814,741,384,-48,432,24.95,0.9944041450777202,24.98,1.0041056007895386,3904.71240234375,-7552.45556640625,16.299999237060547,12.859399795532228,0,0.0,0.0,0.0,0.0,15.082407745868933,0.0,0.0,-17.92230974549583,0.0,0.0,0.0,0.0,13,0.9992548729336295,39.0785400390625,-75.87425944010417,0.0143569356,-9.7483592724,0.2727817764,-0.0430708068,-9.9134640318,0.0861416136,0.0097738127,0.09162949406250001,0.09285122065000001,0.0818556813625,0.0403169773875,-0.0183258988125,0.34278000000000003,0.27202,-0.97614,0.42514,1.05212,0.42978,-0.014356935599999999,-9.8309116521,0.179461695,0.04581474703125,0.06597323572500001,0.03726266091875,0.38396,0.6620699999999999,-0.27318,11.29728,-1.41216,12.70944,24.965,-56.49648161159615
97250,10282567,0,5,-1356,31,-24,67,81,591,469,-1683,3,-1375,12,35,7,0,731,1827,719,320,-96,256,24.96,0.99426597582038,24.97,1.0039773007648656,3904.71240234375,-7552.45556640625,16.299999237060547,12.89484977722168,0,0.0,0.0,0.0,0.0,15.317048518047532,0.0,0.0,-17.764713542996695,0.0,0.0,0.0,0.0,13,0.9991216382926228,39.0785400390625,-75.87425944010417,0.035892339,-9.7340023368,0.2225325018,0.0215354034,-9.870393225,0.0861416136,-0.0293214381,0.0818556813625,0.09895985358750001,0.0427604305625,0.008552086112500001,0.0,0.34278000000000003,0.27202,-0.97614,0.42398,1.05966,0.41702,0.0287138712,-9.8021977809,0.1543370577,0.00671949623125,0.0452038837375,0.049479926793750004,0.38338000000000005,0.66584,-0.27956000000000003,9.4144,-2.82432,7.53152,24.965,-55.33743875166259
97251,10282672,0,-4,-1357,63,-15,34,88,587,475,-1711,-14,-1375,39,35,-18,-4,731,1827,719,368,-144,416,24.97,0.9942857142857144,24.96,1.0040365161608684,3904.71240234375,-7552.45556640625,16.299999237060547,12.877124786376951,0,0.0,0.0,0.0,0.0,15.135130400528393,0.0,0.0,-17.84569414297612,0.0,0.0,0.0,0.0,13,0.9991611152232914,39.0785400390625,-75.87425944010417,-0.0287138712,-9.7411808046,0.45224347140000004,-0.10049854920000001,-9.870393225,0.2799602442,-0.0183258988125,0.041538703975,0.1075119397,0.0427604305625,-0.021991078575,-0.00488690635,0.34046,0.2755,-0.99238,0.42398,1.05966,0.41702,-0.0646062102,-9.8057870148,0.36610185780000004,0.012217265875,0.0097738127,0.051312516675,0.38222,0.6675800000000001,-0.28768000000000005,10.82656,-4.23648,12.23872,24.965,-55.68417713032643
97252,10282778,0,4,-1352,54,-9,78,111,587,475,-1711,-5,-1376,30,50,23,22,719,1830,720,288,-48,352,24.97,0.9941870219590428,24.95,1.0042240315815445,3904.71240234375,-7552.45556640625,16.299999237060547,12.8416748046875,0,0.0,0.0,0.0,0.0,15.009588786363205,0.0,0.0,-17.890483813193104,0.0,0.0,0.0,0.0,13,0.9992055267702937,39.0785400390625,-75.87425944010417,0.0287138712,-9.7052884656,0.3876372612,-0.035892339,-9.8775716928,0.215354034,-0.0109955392875,0.09529467382500001,0.13561165121250002,0.061086329375000005,0.0280997115125,0.026877984925,0.34046,0.2755,-0.99238,0.41702,1.0614,0.4176,-0.0035892339000000006,-9.791430079200001,0.3014956476,0.02504539504375,0.061697192668750005,0.08124481806875,0.37873999999999997,0.66845,-0.28739000000000003,8.47296,-1.41216,10.35584,24.96,-56.071395392702385
97253,10282883,0,6,-1352,51,4,67,94,596,463,-1697,3,-1370,26,57,24,8,719,1830,720,288,-144,256,24.95,0.994088329632371,24.96,1.0041450777202072,3904.71240234375,-7552.45556640625,16.299999237060547,12.859399795532228,0,0.0,0.0,0.0,0.0,15.087332617601668,0.0,0.0,-17.81873876213812,0.0,0.0,0.0,0.0,13,0.9991167036762891,39.0785400390625,-75.87425944010417,0.0430708068,-9.7052884656,0.36610185780000004,0.0215354034,-9.834500886,0.1866401628,0.00488690635,0.0818556813625,0.114842299225,0.06963841548750001,0.0293214381,0.0097738127,0.34568,0.26854,-0.98426,0.41702,1.0614,0.4176,0.0323031051,-9.7698946758,0.2763710103,0.03726266091875,0.05558855973125,0.0623080559625,0.38134999999999997,0.66497,-0.28332999999999997,8.47296,-4.23648,7.53152,24.955,-55.2918869297213
97254,10282988,0,1,-1357,32,11,89,70,596,463,-1697,-3,-1378,11,66,33,-15,713,1829,732,384,-16,272,24.95,0.9942955835183814,24.96,1.0040957315568717,3904.71240234375,-7552.45556640625,16.299999237060547,12.89484977722168,0,0.0,0.0,0.0,0.0,14.64580735232899,0.0,0.0,-18.03547792905234,0.0,0.0,0.0,0.0,13,0.9991956575376266,39.0785400390625,-75.87425944010417,0.0071784678,-9.7411808046,0.2297109696,-0.0215354034,-9.8919286284,0.07896314580000001,0.0134389924625,0.1087336662875,0.085520861125,0.080633954775,0.0403169773875,-0.0183258988125,0.34568,0.26854,-0.98426,0.41354,1.06082,0.42456,-0.007178467799999999,-9.8165547165,0.1543370577,0.047036473618750005,0.0745253218375,0.03359748115625,0.37961,0.66468,-0.27985000000000004,11.29728,-0.47072,8.00224,24.955,-55.98025102520461
97255,10283094,0,1,-1355,46,-15,62,79,610,446,-1664,-7,-1371,31,38,12,0,713,1829,732,464,-32,352,24.95,0.9943646681470516,24.95,1.0043128546755489,3904.71240234375,-7552.45556640625,16.299999237060547,12.877124786376951,0,0.0,0.0,0.0,0.0,14.284671305861286,0.0,0.0,-18.20029700019284,0.0,0.0,0.0,0.0,13,0.9993387614113003,39.0785400390625,-75.87425944010417,0.0071784678,-9.726823869,0.3302095188,-0.050249274600000005,-9.8416793538,0.2225325018,-0.0183258988125,0.075747048425,0.09651640041250001,0.046425610325000005,0.01466071905,0.0,0.3538,0.25868,-0.96512,0.41354,1.06082,0.42456,-0.021535403400000003,-9.7842516114,0.2763710103,0.014049855756250002,0.045203883737500006,0.048258200206250004,0.38367,0.6597500000000001,-0.27027999999999996,13.65088,-0.94144,10.35584,24.95,-57.22774594881891
97256,10283199,0,5,-1360,52,-10,65,104,610,446,-1664,-8,-1380,27,44,2,17,727,1811,704,416,-112,432,24.98,0.9943153219837156,24.94,1.0039674315321985,3904.71240234375,-7552.45556640625,16.299999237060547,12.877124786376951,0,0.0,0.0,0.0,0.0,14.760179554491527,0.0,0.0,-17.893924873208135,0.0,0.0,0.0,0.0,13,0.9991413767579571,39.0785400390625,-75.87425944010417,0.035892339,-9.762716208,0.3732803256,-0.0574277424,-9.906285564000001,0.1938186306,-0.012217265875000001,0.0794122281875,0.1270595651,0.05375596985,0.002443453175,0.0207693519875,0.3538,0.25868,-0.96512,0.42166,1.05038,0.40832,-0.0107677017,-9.834500886,0.28354947810000003,0.0207693519875,0.04092784068125,0.07391445854374999,0.38773,0.6545300000000001,-0.2784,12.23872,-3.29504,12.70944,24.96,-55.51460649123386
97257,10283305,0,11,-1361,53,-4,61,101,600,454,-1679,1,-1378,35,43,8,6,727,1811,704,384,-176,304,24.97,0.9941968911917098,24.95,1.0043622008388848,3904.71240234375,-7552.45556640625,16.299999237060547,12.8416748046875,0,0.0,0.0,0.0,0.0,15.006875266073417,0.0,0.0,-17.731560326502287,0.0,0.0,0.0,0.0,13,0.9992795460152973,39.0785400390625,-75.87425944010417,0.07896314580000001,-9.7698946758,0.3804587934,0.0071784678,-9.8919286284,0.251246373,-0.00488690635,0.0745253218375,0.12339438533750001,0.0525342432625,0.0097738127,0.007330359525,0.348,0.26332,-0.97382,0.42166,1.05038,0.40832,0.04307080680000001,-9.8309116521,0.3158525832,0.023823668456250002,0.04214956726875,0.06536237243125001,0.38483,0.65685,-0.28275,11.29728,-5.17792,8.94368,24.96,-56.716713643018636
97258,10283410,0,6,-1353,52,4,87,93,600,454,-1679,3,-1374,32,49,29,8,709,1834,692,320,-128,304,24.95,0.9942955835183814,24.95,1.0044115470022206,3904.71240234375,-7552.45556640625,16.299999237060547,12.89484977722168,0,0.0,0.0,0.0,0.0,14.380693407374686,0.0,0.0,-18.058313588361813,0.0,0.0,0.0,0.0,13,0.999353565260301,39.0785400390625,-75.87425944010417,0.0430708068,-9.7124669334,0.3732803256,0.0215354034,-9.8632147572,0.2297109696,0.00488690635,0.1062902131125,0.1136205726375,0.059864602787500006,0.035430071037500004,0.0097738127,0.348,0.26332,-0.97382,0.41122000000000003,1.06372,0.40136,0.0323031051,-9.7878408453,0.3014956476,0.032375754568750005,0.07086014207500001,0.06169719266875,0.37961,0.66352,-0.28623,9.4144,-3.76576,8.94368,24.95,-57.35678501202551
97259,10283515,0,9,-1354,48,7,83,71,590,450,-1708,3,-1373,27,53,28,-8,709,1834,692,384,-160,448,24.95,0.994325191216383,24.95,1.0041746854182088,3904.71240234375,-7552.45556640625,16.299999237060547,12.859399795532228,0,0.0,0.0,0.0,0.0,14.529900183160692,0.0,0.0,-17.93832645401887,0.0,0.0,0.0,0.0,13,0.9992499383172959,39.0785400390625,-75.87425944010417,0.0646062102,-9.719645401200001,0.3445664544,0.0215354034,-9.8560362894,0.1938186306,0.008552086112500001,0.1014033067625,0.0867425877125,0.0647515091375,0.034208344450000004,-0.0097738127,0.3422,0.261,-0.99064,0.41122000000000003,1.06372,0.40136,0.0430708068,-9.7878408453,0.2691925425,0.036651797624999996,0.06780582560625001,0.03848438750625,0.37671,0.6623600000000001,-0.29464,11.29728,-4.7072,13.18016,24.95,-56.45346378681349
97260,10283621,0,6,-1359,49,5,47,89,601,464,-1672,-4,-1374,33,61,6,10,710,1827,696,352,-64,336,24.96,0.99426597582038,24.96,1.0041056007895386,3904.71240234375,-7552.45556640625,16.299999237060547,12.859399795532228,0,0.0,0.0,0.0,0.0,14.819309306694011,0.0,0.0,-17.747680871274667,0.0,0.0,0.0,0.0,13,0.9991857883049593,39.0785400390625,-75.87425944010417,0.0430708068,-9.755537740200001,0.35174492220000003,-0.0287138712,-9.8632147572,0.2368894374,0.0061086329375000005,0.0574211496125,0.1087336662875,0.0745253218375,0.007330359525,0.012217265875000001,0.34858,0.26912,-0.96976,0.4118,1.05966,0.40368,0.007178467799999999,-9.809376248700001,0.29431717980000005,0.0403169773875,0.03237575456875,0.06047546608125,0.38019000000000003,0.66439,-0.28303999999999996,10.35584,-1.88288,9.88512,24.96,-55.896754985082296
97261,10283726,0,9,-1359,49,-10,68,105,601,464,-1672,4,-1380,23,45,23,17,710,1827,696,384,-112,256,24.96,0.9942166296570442,24.95,1.0039773007648656,3904.71240234375,-7552.45556640625,16.299999237060547,12.859399795532228,0,0.0,0.0,0.0,0.0,14.58639981110049,0.0,0.0,-17.854116168161497,0.0,0.0,0.0,0.0,13,0.9990969652109549,39.0785400390625,-75.87425944010417,0.0646062102,-9.755537740200001,0.35174492220000003,0.0287138712,-9.906285564000001,0.1651047594,-0.012217265875000001,0.08307740795,0.1282812916875,0.0549776964375,0.0280997115125,0.0207693519875,0.34858,0.26912,-0.96976,0.4118,1.05966,0.40368,0.0466600407,-9.830911652100001,0.2584248408,0.02138021528125,0.05558855973125,0.07452532183749999,0.38019000000000003,0.66439,-0.28303999999999996,11.29728,-3.29504,7.53152,24.955,-55.12230574171656
97262,10283831,0,11,-1351,53,-13,77,104,594,480,-1718,4,-1370,32,31,17,13,711,1823,735,384,-128,352,24.95,0.994325191216383,24.96,1.0043128546755489,3904.71240234375,-7552.45556640625,16.299999237060547,12.8416748046875,0,0.0,0.0,0.0,0.0,14.65582527856188,0.0,0.0,-17.793629948336953,0.0,0.0,0.0,0.0,13,0.9993190229459659,39.0785400390625,-75.87425944010417,0.07896314580000001,-9.6981099978,0.3804587934,0.0287138712,-9.834500886,0.2297109696,-0.0158824456375,0.09407294723750001,0.1270595651,0.0378735242125,0.0207693519875,0.0158824456375,0.34452,0.2784,-0.99644,0.41238,1.05734,0.4263,0.05383850850000001,-9.7663054419,0.3050848815,0.010995539287500002,0.05742114961250001,0.07147100536874999,0.37845,0.66787,-0.28507,11.29728,-3.76576,10.35584,24.955,-57.05569032526033
97263,10283937,0,6,-1356,56,-2,65,77,594,480,-1718,2,-1381,36,55,6,-22,711,1823,735,416,-160,384,24.94,0.9942363681223784,24.96,1.004253639279546,3904.71240234375,-7552.45556640625,16.299999237060547,12.859399795532228,0,0.0,0.0,0.0,0.0,14.71252710753327,0.0,0.0,-17.74477177170771,0.0,0.0,0.0,0.0,13,0.9992450037009621,39.0785400390625,-75.87425944010417,0.0430708068,-9.7340023368,0.40199419680000004,0.0143569356,-9.9134640318,0.2584248408,-0.002443453175,0.0794122281875,0.09407294723750001,0.06719496231250001,0.007330359525,-0.026877984925,0.34452,0.2784,-0.99644,0.41238,1.05734,0.4263,0.0287138712,-9.8237331843,0.33020951880000005,0.032375754568750005,0.04337129385625,0.033597481156250004,0.37845,0.66787,-0.28507,12.23872,-4.7072,11.29728,24.950000000000003,-56.40788246040839
97264,10284042,0,3,-1359,48,17,84,87,598,451,-1676,0,-1374,27,57,25,-5,729,1841,739,304,-96,464,24.95,0.9942067604243772,24.95,1.0043325931408833,3904.71240234375,-7552.45556640625,16.299999237060547,12.859399795532228,0,0.0,0.0,0.0,0.0,14.909534677714424,0.0,0.0,-17.620417631507973,0.0,0.0,0.0,0.0,13,0.9992696767826302,39.0785400390625,-75.87425944010417,0.0215354034,-9.755537740200001,0.3445664544,0.0,-9.8632147572,0.1938186306,0.0207693519875,0.10262503335,0.1062902131125,0.06963841548750001,0.030543164687500002,-0.0061086329375000005,0.34684,0.26158,-0.97208,0.42282000000000003,1.06778,0.42862,0.0107677017,-9.809376248700001,0.2691925425,0.045203883737500006,0.06658409901875001,0.0500907900875,0.38483,0.6646799999999999,-0.27173,8.94368,-2.82432,13.65088,24.95,-56.62553356884523
97265,10284148,0,2,-1358,44,16,75,80,598,451,-1676,-4,-1377,21,65,11,-8,716,1819,753,272,-128,320,24.95,0.9942561065877128,24.95,1.0042832469775476,3904.71240234375,-7552.45556640625,16.299999237060547,12.859399795532228,0,0.0,0.0,0.0,0.0,14.378756752411212,0.0,0.0,-17.905455355308742,0.0,0.0,0.0,0.0,13,0.9992696767826301,39.0785400390625,-75.87425944010417,0.0143569356,-9.7483592724,0.31585258320000004,-0.0287138712,-9.884750160600001,0.1507478238,0.0195476254,0.09162949406250001,0.09773812700000001,0.0794122281875,0.0134389924625,-0.0097738127,0.34684,0.26158,-0.97208,0.41528,1.05502,0.43674,-0.0071784678,-9.8165547165,0.23330020350000003,0.049479926793750004,0.0525342432625,0.043982157150000006,0.38105999999999995,0.6583,-0.26767,8.00224,-3.76576,9.4144,24.95,-56.62553356884523
97266,10284253,0,5,-1356,39,-13,66,95,579,470,-1711,-4,-1377,14,33,4,19,716,1819,753,448,-160,336,24.96,0.9942264988897114,24.95,1.0038687392055268,3904.71240234375,-7552.45556640625,16.299999237060547,12.89484977722168,0,0.0,0.0,0.0,0.0,14.9909154621276,0.0,0.0,-17.53402903444957,0.0,0.0,0.0,0.0,13,0.9990476190476191,39.0785400390625,-75.87425944010417,0.035892339,-9.7340023368,0.2799602442,-0.0287138712,-9.884750160600001,0.10049854920000001,-0.0158824456375,0.080633954775,0.1160640258125,0.0403169773875,0.00488690635,0.023212805162500003,0.33582,0.2726,-0.99238,0.41528,1.05502,0.43674,0.0035892339000000006,-9.809376248700001,0.1902293967,0.012217265875000001,0.0427604305625,0.0696384154875,0.37555,0.66381,-0.27782,13.18016,-4.7072,9.88512,24.955,-54.69202075039965
