,timestamp_s,timestamp_ms,imu1_accel_x,imu1_accel_y,imu1_accel_z,imu1_gyro_x,imu1_gyro_y,imu1_gyro_z,imu1_mag_x,imu1_mag_y,imu1_mag_z,imu2_accel_x,imu2_accel_y,imu2_accel_z,imu2_gyro_x,imu2_gyro_y,imu2_gyro_z,imu2_mag_x,imu2_mag_y,imu2_mag_z,high_g_accel_x,high_g_accel_y,high_g_accel_z,baro1_temp,baro1_pres,baro2_temp,baro2_pres,gps_lat,gps_long,gps_alt,battery_voltage,pyro_cont,heading,vtg,pos_x,pos_y,pos_z,vel_x,vel_y,vel_z,q_x,q_y,q_z,q_w,state,baro_pres_avg,gps_lat_mod,gps_long_mod,imu1_accel_x_real,imu1_accel_y_real,imu1_accel_z_real,imu2_accel_x_real,imu2_accel_y_real,imu2_accel_z_real,imu1_gyro_x_real,imu1_gyro_y_real,imu1_gyro_z_real,imu2_gyro_x_real,imu2_gyro_y_real,imu2_gyro_z_real,imu1_mag_x_real,imu1_mag_y_real,imu1_mag_z_real,imu2_mag_x_real,imu2_mag_y_real,imu2_mag_z_real,imu_accel_x_avg,imu_accel_y_avg,imu_accel_z_avg,imu_gyro_x_avg,imu_gyro_y_avg,imu_gyro_z_avg,imu_mag_x_avg,imu_mag_y_avg,imu_mag_z_avg,high_g_accel_x_real,high_g_accel_y_real,high_g_accel_z_real,baro_temp_avg
55657,8123360,0,-30,1332,-103,12,-118,73,225,-776,-915,-10,1334,-36,96,80,36,251,-791,-252,-160,160,-8944,31.66,0.9886503824327658,32.79,0.998756476683938,3859.984619140625,-7606.2802734375,22.600000381469727,7.792853832244873,0,0.0,0.0,0.0,0.0,0.1583323015427031,0.0,0.0,0.0,0.0,0.0,0.0,0.0,11,0.9937034295583519,38.99974365234375,-76.10467122395833,-0.215354034,9.5617191096,-0.7393821834000001,-0.071784678,9.5760760452,-0.2584248408,0.01466071905,-0.144163737325,0.0891860408875,0.1172857524,0.09773812700000001,0.04398215715,0.1305,-0.45008,-0.5307,0.14558,-0.45878,-0.14616,-0.143569356,9.568897577400001,-0.49890351210000006,0.065973235725,-0.023212805162500003,0.06658409901875,0.13804,-0.45443,-0.33843,-4.7072,4.7072,-263.13248,32.225
55658,8123510,0,-10,1331,-83,0,-90,92,225,-776,-915,4,1333,-24,84,102,66,251,-791,-252,-176,144,-8928,31.67,0.988719467061436,32.79,0.9986873920552676,3859.984619140625,-7606.2802734375,22.600000381469727,7.807809352874756,0,0.0,0.0,0.0,0.0,0.1583323015427031,0.0,0.0,0.0,0.0,0.0,0.0,0.0,11,0.9937034295583518,38.99974365234375,-76.10467122395833,-0.071784678,9.554540641800001,-0.5958128274000001,0.0287138712,9.5688975774,-0.1722832272,0.0,-0.109955392875,0.11239884605,0.10262503335,0.12461611192500001,0.080633954775,0.1305,-0.45008,-0.5307,0.14558,-0.45878,-0.14616,-0.0215354034,9.5617191096,-0.38404802730000004,0.051312516675,0.007330359525000003,0.09651640041250001,0.13804,-0.45443,-0.33843,-5.17792,4.23648,-262.66176,32.230000000000004
55659,8123660,0,-26,1331,-104,12,-91,119,241,-773,-876,-15,1332,-45,83,101,78,255,-787,-311,-240,112,-8960,31.67,0.9887293362941032,32.79,0.9987959536146064,3859.984619140625,-7606.2802734375,22.600000381469727,7.792853832244873,0,0.0,0.0,0.0,0.0,0.1583323015427031,0.0,0.0,0.0,0.0,0.0,0.0,0.0,11,0.9937626449543548,38.99974365234375,-76.10467122395833,-0.1866401628,9.554540641800001,-0.7465606512,-0.107677017,9.5617191096,-0.323031051,0.01466071905,-0.1111771194625,0.1453854639125,0.1014033067625,0.12339438533750001,0.09529467382500001,0.13978,-0.44834,-0.50808,0.1479,-0.45646,-0.18038,-0.1471585899,9.5581298757,-0.5347958511,0.05803201290625,0.006108632937500004,0.12034006886875001,0.14384,-0.4524,-0.34423,-7.0608,3.29504,-263.6032,32.230000000000004
55660,8123811,0,-40,1334,-97,15,-76,107,217,-773,-880,-19,1334,-30,87,113,67,282,-778,-287,-288,48,-8880,31.68,0.9888576363187762,32.8,0.9987860843819392,3859.984619140625,-7606.2802734375,22.600000381469727,7.790638446807861,0,0.0,0.0,0.0,0.0,0.1583323015427031,0.0,0.0,0.0,0.0,0.0,0.0,0.0,11,0.9938218603503577,38.99974365234375,-76.10467122395833,-0.287138712,9.5760760452,-0.6963113766,-0.1363908882,9.5760760452,-0.215354034,0.0183258988125,-0.09285122065000001,0.13072474486250002,0.1062902131125,0.13805510438750002,0.0818556813625,0.12586,-0.44834,-0.5104,0.16356,-0.45124000000000003,-0.16646,-0.2117648001,9.5760760452,-0.4558327053,0.062308055962500004,0.022601941868750003,0.1062902131125,0.14471,-0.44979,-0.33843,-8.47296,1.41216,-261.2496,32.239999999999995
55661,8123961,0,-25,1343,-109,4,-98,81,245,-785,-888,-9,1333,-32,105,91,38,266,-761,-268,-208,80,-8944,31.67,0.9888477670861092,32.79,0.9986873920552676,3859.984619140625,-7606.2802734375,22.600000381469727,7.785653114318848,0,0.0,0.0,0.0,0.0,0.1583323015427031,0.0,0.0,0.0,0.0,0.0,0.0,0.0,11,0.9937675795706884,38.99974365234375,-76.10467122395833,-0.179461695,9.6406822554,-0.7824529902,-0.0646062102,9.5688975774,-0.2297109696,0.00488690635,-0.11972920557500001,0.09895985358750001,0.1282812916875,0.1111771194625,0.046425610325000005,0.1421,-0.4553,-0.51504,0.15428,-0.44138,-0.15544,-0.1220339526,9.6047899164,-0.5060819799,0.06658409901875,-0.004276043056250005,0.07269273195625,0.14819,-0.44833999999999996,-0.33524000000000004,-6.11936,2.3536,-263.13248,32.230000000000004
55662,8124111,0,-27,1333,-90,3,-95,93,245,-785,-888,-14,1331,-25,75,96,58,266,-761,-268,-240,208,-8912,31.67,0.9886898593634345,32.8,0.9987268689859364,3859.984619140625,-7606.2802734375,22.600000381469727,7.7873148918151855,0,0.0,0.0,0.0,0.0,0.1583323015427031,0.0,0.0,0.0,0.0,0.0,0.0,0.0,11,0.9937083641746854,38.99974365234375,-76.10467122395833,-0.1938186306,9.5688975774,-0.646062102,-0.10049854920000001,9.554540641800001,-0.179461695,0.0036651797625,-0.1160640258125,0.1136205726375,0.09162949406250001,0.1172857524,0.07086014207500001,0.1421,-0.4553,-0.51504,0.15428,-0.44138,-0.15544,-0.14715858990000003,9.5617191096,-0.4127618985,0.047647336912500005,0.0006108632937499997,0.09224035735625,0.14819,-0.44833999999999996,-0.33524000000000004,-7.0608,6.11936,-262.19104000000004,32.235
55663,8124262,0,-29,1336,-98,-6,-86,104,259,-785,-891,-13,1333,-37,78,110,70,266,-770,-252,-272,112,-8976,31.67,0.9888477670861092,32.79,0.998638045891932,3859.984619140625,-7606.2802734375,22.600000381469727,7.794515609741211,0,0.0,0.0,0.0,0.0,0.1583323015427031,0.0,0.0,0.0,0.0,0.0,0.0,0.0,11,0.9937429064890206,38.99974365234375,-76.10467122395833,-0.2081755662,9.590432980800001,-0.7034898444000001,-0.0933200814,9.5688975774,-0.26560330860000003,-0.007330359525,-0.105068486525,0.1270595651,0.09529467382500001,0.13438992462500002,0.085520861125,0.15022,-0.4553,-0.51678,0.15428,-0.4466,-0.14616,-0.1507478238,9.5796652791,-0.48454657650000005,0.043982157150000006,0.014660719050000007,0.1062902131125,0.15225,-0.45094999999999996,-0.33147000000000004,-8.00224,3.29504,-264.07392000000004,32.230000000000004
55664,8124412,0,-24,1332,-111,10,-75,102,211,-768,-882,-8,1326,-41,102,108,69,254,-794,-261,-176,128,-8896,31.67,0.9886898593634345,32.79,0.9986577843572664,3859.984619140625,-7606.2802734375,22.600000381469727,7.791746139526367,0,0.0,0.0,0.0,0.0,0.1583323015427031,0.0,0.0,0.0,0.0,0.0,0.0,0.0,11,0.9936738218603505,38.99974365234375,-76.10467122395833,-0.1722832272,9.5617191096,-0.7968099258,-0.0574277424,9.5186483028,-0.2943171798,0.012217265875000001,-0.09162949406250001,0.12461611192500001,0.12461611192500001,0.13194647145000002,0.0842991345375,0.12238,-0.44544,-0.51156,0.14732,-0.46052,-0.15138000000000001,-0.1148554848,9.5401837062,-0.5455635528,0.06841668890000001,0.020158488693750004,0.10445762323125,0.13485,-0.45298,-0.33147000000000004,-5.17792,3.76576,-261.72032,32.230000000000004
55665,8124563,0,-20,1331,-94,10,-84,113,223,-773,-849,2,1328,-34,105,119,83,248,-779,-277,-160,128,-8992,31.66,0.9887095978287688,32.8,0.9986084381939304,3859.984619140625,-7606.2802734375,22.600000381469727,7.78233003616333,0,0.0,0.0,0.0,0.0,0.1583323015427031,0.0,0.0,0.0,0.0,0.0,0.0,0.0,11,0.9936590180113496,38.99974365234375,-76.10467122395833,-0.143569356,9.554540641800001,-0.6747759732,0.0143569356,9.533005238400001,-0.24406790520000002,0.012217265875000001,-0.10262503335,0.13805510438750002,0.1282812916875,0.1453854639125,0.1014033067625,0.12934,-0.44834,-0.49242,0.14384,-0.45182,-0.16066,-0.0646062102,9.543772940100002,-0.4594219392,0.07024927878125,0.021380215281250003,0.11972920557500001,0.13659,-0.45008000000000004,-0.32654,-4.7072,3.76576,-264.54464,32.23
55666,8124713,0,-19,1335,-98,-4,-89,120,223,-773,-849,-9,1329,-31,91,105,89,248,-779,-277,-224,160,-8896,31.67,0.98853195164076,32.79,0.998756476683938,3859.984619140625,-7606.2802734375,22.600000381469727,7.808363437652588,0,0.0,0.0,0.0,0.0,0.1583323015427031,0.0,0.0,0.0,0.0,0.0,0.0,0.0,11,0.9936442141623489,38.99974365234375,-76.10467122395833,-0.1363908882,9.583254513,-0.7034898444000001,-0.0646062102,9.5401837062,-0.2225325018,-0.00488690635,-0.1087336662875,0.1466071905,0.1111771194625,0.1282812916875,0.1087336662875,0.12934,-0.44834,-0.49242,0.14384,-0.45182,-0.16066,-0.10049854920000001,9.5617191096,-0.46301117310000006,0.05314510655625,0.009773812699999995,0.12767042839375,0.13659,-0.45008000000000004,-0.32654,-6.59008,4.7072,-261.72032,32.230000000000004
55667,8124863,0,-19,1333,-108,-4,-109,72,229,-792,-893,-8,1335,-42,87,81,27,289,-748,-301,-320,128,-8928,31.68,0.9886503824327658,32.79,0.9988650382432764,3859.984619140625,-7606.2802734375,22.600000381469727,7.788976669311523,0,0.0,0.0,0.0,0.0,0.1583323015427031,0.0,0.0,0.0,0.0,0.0,0.0,0.0,11,0.9937577103380211,38.99974365234375,-76.10467122395833,-0.1363908882,9.5688975774,-0.7752745224,-0.0574277424,9.583254513,-0.3014956476,-0.00488690635,-0.13316819803750002,0.0879643143,0.1062902131125,0.09895985358750001,0.032986617862500005,0.13282,-0.45936,-0.51794,0.16762,-0.43384,-0.17458,-0.0969093153,9.5760760452,-0.538385085,0.05070165338125,-0.017104172225000006,0.06047546608125,0.15022,-0.4466,-0.34626,-9.4144,3.76576,-262.66176,32.235
55668,8125014,0,-18,1332,-108,11,-89,71,220,-793,-919,-8,1331,-47,97,108,36,264,-784,-265,-224,144,-8992,31.67,0.9886207747347644,32.78,0.998825561312608,3859.984619140625,-7606.2802734375,22.600000381469727,7.78620719909668,0,0.0,0.0,0.0,0.0,0.1583323015427031,0.0,0.0,0.0,0.0,0.0,0.0,0.0,11,0.9937231680236862,38.99974365234375,-76.10467122395833,-0.1292124204,9.5617191096,-0.7752745224,-0.0574277424,9.554540641800001,-0.3373879866,0.0134389924625,-0.1087336662875,0.0867425877125,0.11850747898750001,0.13194647145000002,0.04398215715,0.1276,-0.45994,-0.53302,0.15312,-0.45472,-0.1537,-0.0933200814,9.5581298757,-0.5563312545000001,0.06597323572500001,0.011606402581250008,0.06536237243125,0.14035999999999998,-0.45733,-0.34336,-6.59008,4.23648,-264.54464,32.225
55669,8125164,0,-21,1338,-95,6,-107,111,257,-790,-905,-10,1335,-34,92,101,74,257,-757,-289,-256,112,-8880,31.67,0.9887984209227731,32.79,0.9988551690106094,3859.984619140625,-7606.2802734375,22.600000381469727,7.807809352874756,0,0.0,0.0,0.0,0.0,0.1583323015427031,0.0,0.0,0.0,0.0,0.0,0.0,0.0,11,0.9938267949666912,38.99974365234375,-76.10467122395833,-0.1507478238,9.6047899164,-0.681954441,-0.071784678,9.583254513,-0.24406790520000002,0.007330359525,-0.13072474486250002,0.13561165121250002,0.11239884605,0.12339438533750001,0.090407767475,0.14906,-0.4582,-0.5249,0.14906,-0.43906,-0.16762,-0.1112662509,9.5940222147,-0.4630111731,0.0598646027875,-0.003665179762500005,0.11300970934375001,0.14906,-0.44863,-0.34626,-7.53152,3.29504,-261.2496,32.230000000000004
55670,8125315,0,-20,1334,-101,-7,-90,109,257,-790,-905,-4,1332,-41,85,104,88,249,-776,-302,-208,64,-8880,31.67,0.9888872440167776,32.79,0.998588699728596,3859.984619140625,-7606.2802734375,22.600000381469727,7.790638446807861,0,0.0,0.0,0.0,0.0,0.1583323015427031,0.0,0.0,0.0,0.0,0.0,0.0,0.0,11,0.9937379718726869,38.99974365234375,-76.10467122395833,-0.143569356,9.5760760452,-0.7250252478,-0.0287138712,9.5617191096,-0.2943171798,-0.008552086112500001,-0.109955392875,0.13316819803750002,0.1038467599375,0.1270595651,0.1075119397,0.14906,-0.4582,-0.5249,0.14442,-0.45008,-0.17516,-0.0861416136,9.568897577400001,-0.5096712138,0.047647336912500005,0.008552086112499996,0.12034006886875001,0.14673999999999998,-0.45414,-0.35003,-6.11936,1.88288,-261.2496,32.230000000000004
55671,8125465,0,-29,1334,-102,2,-76,164,242,-789,-886,-14,1332,-34,82,124,120,249,-776,-302,-272,-16,-8928,31.67,0.9887490747594374,32.8,0.9988058228472736,3859.984619140625,-7606.2802734375,22.600000381469727,7.807809352874756,0,0.0,0.0,0.0,0.0,0.1583323015427031,0.0,0.0,0.0,0.0,0.0,0.0,0.0,11,0.9937774488033555,38.99974365234375,-76.10467122395833,-0.2081755662,9.5760760452,-0.7322037156000001,-0.10049854920000001,9.5617191096,-0.24406790520000002,0.002443453175,-0.09285122065000001,0.20036316035,0.100181580175,0.15149409685,0.1466071905,0.14036,-0.45762,-0.51388,0.14442,-0.45008,-0.17516,-0.1543370577,9.568897577400001,-0.48813581040000004,0.051312516675,0.0293214381,0.17348517542500003,0.14239000000000002,-0.45385,-0.34452,-8.00224,-0.47072,-262.66176,32.235
55672,8125615,0,-40,1332,-104,33,-95,98,204,-779,-905,-27,1330,-37,120,109,61,289,-782,-283,-240,176,-8976,31.67,0.9885812978040958,32.79,0.9987466074512706,3859.984619140625,-7606.2802734375,22.600000381469727,7.793407917022705,0,0.0,0.0,0.0,0.0,0.1583323015427031,0.0,0.0,0.0,0.0,0.0,0.0,0.0,11,0.9936639526276831,38.99974365234375,-76.10467122395833,-0.287138712,9.5617191096,-0.7465606512,-0.1938186306,9.547362174,-0.26560330860000003,0.0403169773875,-0.1160640258125,0.11972920557500001,0.1466071905,0.13316819803750002,0.0745253218375,0.11832,-0.45182,-0.5249,0.16762,-0.45356,-0.16414,-0.2404786713,9.5545406418,-0.5060819799,0.09346208394375001,0.00855208611250001,0.09712726370625001,0.14296999999999999,-0.45269000000000004,-0.34452000000000005,-7.0608,5.17792,-264.07392000000004,32.230000000000004
55673,8125766,0,-40,1335,-101,11,-90,87,201,-791,-892,-16,1332,-35,98,115,52,271,-810,-223,-224,96,-8960,31.67,0.9885714285714284,32.78,0.9986775228226006,3859.984619140625,-7606.2802734375,22.600000381469727,7.790638446807861,0,0.0,0.0,0.0,0.0,0.1583323015427031,0.0,0.0,0.0,0.0,0.0,0.0,0.0,11,0.9936244756970145,38.99974365234375,-76.10467122395833,-0.287138712,9.583254513,-0.7250252478,-0.1148554848,9.5617191096,-0.251246373,0.0134389924625,-0.109955392875,0.1062902131125,0.11972920557500001,0.14049855756250001,0.06352978255,0.11658,-0.45878,-0.51736,0.15718000000000001,-0.4698,-0.12934,-0.20099709840000002,9.5724868113,-0.4881358104,0.06658409901875001,0.015271582343750006,0.08490999783125,0.13688,-0.46429,-0.32335,-6.59008,2.82432,-263.6032,32.225
55674,8125916,0,-41,1329,-103,56,-71,31,201,-791,-892,-28,1337,-42,137,111,4,255,-776,-278,-288,48,-8848,31.67,0.988719467061436,32.79,0.9987466074512706,3859.984619140625,-7606.2802734375,23.100000381469727,7.794515609741211,0,0.0,0.0,0.0,0.0,0.1583323015427031,0.0,0.0,0.0,0.0,0.0,0.0,0.0,11,0.9937330372563533,38.99974365234375,-76.10467122395833,-0.2943171798,9.5401837062,-0.7393821834000001,-0.20099709840000002,9.5976114486,-0.3014956476,0.06841668890000001,-0.0867425877125,0.0378735242125,0.1673765424875,0.13561165121250002,0.00488690635,0.11658,-0.45878,-0.51736,0.1479,-0.45008,-0.16124,-0.2476571391,9.568897577400001,-0.5204389155,0.11789661569375001,0.02443453175000001,0.02138021528125,0.13224,-0.45443,-0.33930000000000005,-8.47296,1.41216,-260.30816000000004,32.230000000000004
55675,8126067,0,-16,1327,-81,5,-85,127,229,-805,-885,4,1329,-18,91,109,92,255,-776,-278,-320,192,-8976,31.66,0.9886503824327658,32.79,0.9988156920799408,3859.984619140625,-7606.2802734375,23.100000381469727,7.792853832244873,0,0.0,0.0,0.0,0.0,0.1583323015427031,0.0,0.0,0.0,0.0,0.0,0.0,0.0,11,0.9937330372563533,38.99974365234375,-76.10467122395833,-0.1148554848,9.5258267706,-0.5814558918,0.0287138712,9.5401837062,-0.1292124204,0.0061086329375000005,-0.1038467599375,0.1551592766125,0.1111771194625,0.13316819803750002,0.11239884605,0.13282,-0.4669,-0.5133,0.1479,-0.45008,-0.16124,-0.0430708068,9.533005238400001,-0.3553341561,0.0586428762,0.014660719050000007,0.13377906133125,0.14035999999999998,-0.45848999999999995,-0.33726999999999996,-9.4144,5.64864,-264.07392000000004,32.225
55676,8126217,0,-37,1330,-101,-12,-89,136,230,-780,-898,-17,1339,-35,76,110,103,279,-760,-287,-272,160,-8992,31.67,0.9886898593634345,32.79,0.9988156920799408,3859.984619140625,-7606.2802734375,23.100000381469727,7.798393249511719,0,0.0,0.0,0.0,0.0,0.1583323015427031,0.0,0.0,0.0,0.0,0.0,0.0,0.0,11,0.9937527757216876,38.99974365234375,-76.10467122395833,-0.26560330860000003,9.547362174,-0.7250252478,-0.12203395260000001,9.6119683842,-0.251246373,-0.01466071905,-0.1087336662875,0.1661548159,0.09285122065000001,0.13438992462500002,0.1258378385125,0.1334,-0.4524,-0.52084,0.16182,-0.4408,-0.16646,-0.1938186306,9.5796652791,-0.4881358104,0.03909525080000001,0.012828129168750008,0.14599632720625,0.14761,-0.4466,-0.34365,-8.00224,4.7072,-264.54464,32.230000000000004
55677,8126367,0,-42,1331,-106,10,-86,85,216,-793,-928,-19,1338,-41,98,118,45,263,-797,-281,-272,96,-8896,31.68,0.9886997285961016,32.79,0.9986873920552676,3859.984619140625,-7606.2802734375,23.100000381469727,7.790084362030029,0,0.0,0.0,0.0,0.0,0.1583323015427031,0.0,0.0,0.0,0.0,0.0,0.0,0.0,11,0.9936935603256846,38.99974365234375,-76.10467122395833,-0.3014956476,9.554540641800001,-0.7609175868,-0.1363908882,9.6047899164,-0.2943171798,0.012217265875000001,-0.105068486525,0.1038467599375,0.11972920557500001,0.144163737325,0.0549776964375,0.12528,-0.45994,-0.53824,0.15254,-0.46226,-0.16298,-0.21894326790000002,9.5796652791,-0.5276173833,0.06597323572500001,0.019547625400000004,0.0794122281875,0.13891,-0.4611,-0.35061000000000003,-8.00224,2.82432,-261.72032,32.235
55678,8126518,0,-26,1330,-87,7,-102,113,216,-793,-928,-10,1332,-25,90,86,84,220,-804,-270,-208,144,-8896,31.66,0.9888280286207748,32.79,0.9986873920552676,3859.984619140625,-7606.2802734375,23.100000381469727,7.807809352874756,0,0.0,0.0,0.0,0.0,0.1583323015427031,0.0,0.0,0.0,0.0,0.0,0.0,0.0,11,0.9937577103380212,38.99974365234375,-76.10467122395833,-0.1866401628,9.547362174,-0.6245266986,-0.071784678,9.5617191096,-0.179461695,0.008552086112500001,-0.12461611192500001,0.13805510438750002,0.109955392875,0.105068486525,0.10262503335,0.12528,-0.45994,-0.53824,0.1276,-0.46632,-0.1566,-0.1292124204,9.5545406418,-0.4019941968,0.05925373949375,-0.009773812700000002,0.12034006886875001,0.12644,-0.46313000000000004,-0.34742,-6.11936,4.23648,-261.72032,32.225
55679,8126668,0,-34,1339,-100,4,-89,90,218,-768,-893,-16,1337,-37,84,104,61,220,-804,-270,-272,144,-8896,31.66,0.9887688132247716,32.79,0.9988650382432764,3859.984619140625,-7606.2802734375,23.100000381469727,7.772359371185303,0,0.0,0.0,0.0,0.0,0.1583323015427031,0.0,0.0,0.0,0.0,0.0,0.0,0.0,11,0.993816925734024,38.99974365234375,-76.10467122395833,-0.24406790520000002,9.6119683842,-0.71784678,-0.1148554848,9.5976114486,-0.26560330860000003,0.00488690635,-0.1087336662875,0.109955392875,0.10262503335,0.1270595651,0.0745253218375,0.12644,-0.44544,-0.51794,0.1276,-0.46632,-0.1566,-0.179461695,9.604789916400001,-0.4917250443,0.05375596985,0.009162949406249996,0.09224035735625,0.12702,-0.45588,-0.33726999999999996,-8.00224,4.23648,-261.72032,32.225
55680,8126818,0,-28,1332,-114,21,-98,50,249,-801,-901,-10,1329,-49,108,106,15,263,-768,-320,-224,64,-8976,31.65,0.9886306439674316,32.79,0.9986873920552676,3859.984619140625,-7606.2802734375,23.100000381469727,7.790084362030029,0,0.0,0.0,0.0,0.0,0.1583323015427031,0.0,0.0,0.0,0.0,0.0,0.0,0.0,11,0.9936590180113496,38.99974365234375,-76.10467122395833,-0.20099709840000002,9.5617191096,-0.8183453292,-0.071784678,9.5401837062,-0.35174492220000003,0.0256562583375,-0.11972920557500001,0.061086329375000005,0.13194647145000002,0.129503018275,0.0183258988125,0.14442,-0.46458,-0.52258,0.15254,-0.44544,-0.1856,-0.1363908882,9.550951407900001,-0.5850451257,0.07880136489375,0.004886906349999991,0.03970611409375,0.14848,-0.45501,-0.35409,-6.59008,1.88288,-264.07392000000004,32.22
55681,8126968,0,-17,1325,-94,8,-41,74,212,-802,-878,-4,1336,-33,108,129,31,259,-775,-298,-192,-16,-8896,31.68,0.9885911670367628,32.78,0.9986676535899334,3859.984619140625,-7606.2802734375,23.100000381469727,7.783437728881836,0,0.0,0.0,0.0,0.0,0.1583323015427031,0.0,0.0,0.0,0.0,0.0,0.0,0.0,11,0.9936294103133481,38.99974365234375,-76.10467122395833,-0.12203395260000001,9.511469835,-0.6747759732,-0.0287138712,9.590432980800001,-0.2368894374,0.0097738127,-0.0500907900875,0.090407767475,0.13194647145000002,0.1576027297875,0.0378735242125,0.12296,-0.46516,-0.50924,0.15022,-0.4495,-0.17284,-0.0753739119,9.550951407900001,-0.45583270530000003,0.07086014207500001,0.05375596985,0.06414064584375,0.13659,-0.45733,-0.34104,-5.64864,-0.47072,-261.72032,32.230000000000004
55682,8127118,0,-9,1331,-91,2,-99,92,212,-802,-878,0,1335,-23,96,95,66,270,-789,-256,-208,128,-8912,31.66,0.9888675055514434,32.79,0.998756476683938,3859.984619140625,-7606.2802734375,23.100000381469727,7.798393249511719,0,0.0,0.0,0.0,0.0,0.1583323015427031,0.0,0.0,0.0,0.0,0.0,0.0,0.0,11,0.9938119911176907,38.99974365234375,-76.10467122395833,-0.0646062102,9.554540641800001,-0.6532405698,0.0,9.583254513,-0.1651047594,0.002443453175,-0.12095093216250001,0.11239884605,0.1172857524,0.1160640258125,0.080633954775,0.12296,-0.46516,-0.50924,0.1566,-0.45762,-0.14848,-0.0323031051,9.568897577400001,-0.4091726646,0.0598646027875,-0.0024434531750000058,0.09651640041250001,0.13978,-0.46139,-0.32886000000000004,-6.11936,3.76576,-262.19104000000004,32.225
55683,8127269,0,-23,1332,-99,-10,-34,133,242,-786,-885,-11,1338,-33,82,156,95,270,-789,-256,-208,128,-9008,31.68,0.9887589439921046,32.79,0.998707130520602,3859.984619140625,-7606.2802734375,23.100000381469727,7.787868976593018,0,0.0,0.0,0.0,0.0,0.1583323015427031,0.0,0.0,0.0,0.0,0.0,0.0,0.0,11,0.9937330372563533,38.99974365234375,-76.10467122395833,-0.1651047594,9.5617191096,-0.7106683122,-0.07896314580000001,9.6047899164,-0.2368894374,-0.012217265875000001,-0.041538703975,0.1624896361375,0.100181580175,0.19058934765000002,0.1160640258125,0.14036,-0.45588,-0.5133,0.1566,-0.45762,-0.14848,-0.1220339526,9.583254513,-0.4737788748,0.043982157150000006,0.0745253218375,0.139276830975,0.14848,-0.45675,-0.33089,-6.11936,3.76576,-265.01536,32.235
55684,8127419,0,-25,1331,-96,-3,-93,121,231,-812,-915,-14,1334,-34,89,109,95,226,-805,-268,-192,128,-8976,31.66,0.9887589439921046,32.79,0.9988650382432764,3859.984619140625,-7606.2802734375,23.100000381469727,7.790084362030029,0,0.0,0.0,0.0,0.0,0.1583323015427031,0.0,0.0,0.0,0.0,0.0,0.0,0.0,11,0.9938119911176906,38.99974365234375,-76.10467122395833,-0.179461695,9.554540641800001,-0.6891329088,-0.10049854920000001,9.5760760452,-0.24406790520000002,-0.0036651797625,-0.1136205726375,0.1478289170875,0.1087336662875,0.13316819803750002,0.1160640258125,0.13398,-0.47096,-0.5307,0.13108,-0.4669,-0.15544,-0.1399801221,9.5653083435,-0.466600407,0.0525342432625,0.009773812700000009,0.13194647145,0.13252999999999998,-0.46892999999999996,-0.34307,-5.64864,3.76576,-264.07392000000004,32.225
55685,8127569,0,-38,1336,-96,-9,-82,112,228,-787,-888,-26,1338,-36,84,105,82,268,-793,-318,-144,128,-8976,31.67,0.988837897853442,32.8,0.9987268689859364,3859.984619140625,-7606.2802734375,23.100000381469727,7.781775951385498,0,0.0,0.0,0.0,0.0,0.1583323015427031,0.0,0.0,0.0,0.0,0.0,0.0,0.0,11,0.9937823834196893,38.99974365234375,-76.10467122395833,-0.2727817764,9.590432980800001,-0.6891329088,-0.1866401628,9.6047899164,-0.2584248408,-0.0109955392875,-0.100181580175,0.13683337780000002,0.10262503335,0.1282812916875,0.100181580175,0.13224,-0.45646,-0.51504,0.15544,-0.45994,-0.18444,-0.2297109696,9.5976114486,-0.4737788748,0.045814747031250005,0.014049855756249993,0.11850747898750001,0.14384,-0.4582,-0.34974000000000005,-4.23648,3.76576,-264.07392000000004,32.235
55686,8127720,0,-18,1335,-107,10,-68,97,228,-771,-901,-14,1326,-33,106,107,65,249,-805,-299,-240,128,-8944,31.67,0.9885812978040958,32.78,0.9987169997532692,3859.984619140625,-7606.2802734375,23.100000381469727,7.7873148918151855,0,0.0,0.0,0.0,0.0,0.1583323015427031,0.0,0.0,0.0,0.0,0.0,0.0,0.0,11,0.9936491487786825,38.99974365234375,-76.10467122395833,-0.1292124204,9.583254513,-0.7680960546000001,-0.10049854920000001,9.5186483028,-0.2368894374,0.012217265875000001,-0.08307740795,0.11850747898750001,0.129503018275,0.13072474486250002,0.0794122281875,0.13224,-0.44718,-0.52258,0.14442,-0.4669,-0.17342,-0.1148554848,9.550951407900001,-0.502492746,0.070860142075,0.02382366845625001,0.09895985358750001,0.13833,-0.45704,-0.34800000000000003,-7.0608,3.76576,-263.13248,32.225
55687,8127870,0,-26,1330,-105,16,-79,107,218,-771,-901,-10,1330,-33,111,106,75,249,-805,-299,-288,144,-8896,31.66,0.9887589439921046,32.78,0.9988749074759438,3859.984619140625,-7606.2802734375,23.100000381469727,7.767374515533447,0,0.0,0.0,0.0,0.0,0.1583323015427031,0.0,0.0,0.0,0.0,0.0,0.0,0.0,11,0.9938169257340241,38.99974365234375,-76.10467122395833,-0.1866401628,9.547362174,-0.753739119,-0.071784678,9.547362174,-0.2368894374,0.0195476254,-0.09651640041250001,0.13072474486250002,0.13561165121250002,0.129503018275,0.09162949406250001,0.12644,-0.44718,-0.52258,0.14442,-0.4669,-0.17342,-0.1292124204,9.547362174,-0.4953142782,0.07757963830625,0.016493308931249992,0.11117711946250002,0.13543,-0.45704,-0.34800000000000003,-8.47296,4.23648,-261.72032,32.22
55688,8128021,0,-32,1336,-103,8,-88,111,234,-761,-922,-17,1326,-36,88,98,58,279,-772,-290,-192,128,-8992,31.67,0.9887293362941032,32.77,0.9988551690106094,3859.984619140625,-7606.2802734375,23.100000381469727,7.797285079956055,0,0.0,0.0,0.0,0.0,0.1583323015427031,0.0,0.0,0.0,0.0,0.0,0.0,0.0,11,0.9937922526523564,38.99974365234375,-76.10467122395833,-0.2297109696,9.590432980800001,-0.7393821834000001,-0.12203395260000001,9.5186483028,-0.2584248408,0.0097738127,-0.1075119397,0.13561165121250002,0.1075119397,0.11972920557500001,0.07086014207500001,0.13572,-0.44138,-0.53476,0.16182,-0.44776,-0.1682,-0.17587246110000002,9.554540641800001,-0.49890351210000006,0.0586428762,0.006108632937500004,0.10323589664375002,0.14877,-0.44457,-0.35148,-5.64864,3.76576,-264.54464,32.22
55689,8128171,0,-20,1331,-111,2,-72,122,226,-801,-905,-5,1330,-40,92,123,87,263,-804,-279,-272,80,-8928,31.66,0.9887688132247716,32.78,0.998894645941278,3859.984619140625,-7606.2802734375,23.100000381469727,7.790084362030029,0,0.0,0.0,0.0,0.0,0.1583323015427031,0.0,0.0,0.0,0.0,0.0,0.0,0.0,11,0.9938317295830248,38.99974365234375,-76.10467122395833,-0.143569356,9.554540641800001,-0.7968099258,-0.035892339,9.547362174,-0.287138712,0.002443453175,-0.0879643143,0.149050643675,0.11239884605,0.1502723702625,0.1062902131125,0.13108,-0.46458,-0.5249,0.15254,-0.46632,-0.16182,-0.0897308475,9.550951407900001,-0.5419743189,0.0574211496125,0.031154027981250006,0.12767042839375,0.14181,-0.46545000000000003,-0.34336,-8.00224,2.3536,-262.66176,32.22
55690,8128321,0,-32,1329,-104,2,-84,110,207,-776,-936,-20,1328,-42,84,123,77,265,-794,-294,-272,112,-8928,31.67,0.988719467061436,32.77,0.998766345916605,3859.984619140625,-7606.2802734375,23.100000381469727,7.780668258666992,0,0.0,0.0,0.0,0.0,0.1583323015427031,0.0,0.0,0.0,0.0,0.0,0.0,0.0,11,0.9937429064890204,38.99974365234375,-76.10467122395833,-0.2297109696,9.5401837062,-0.7465606512,-0.143569356,9.533005238400001,-0.3014956476,0.002443453175,-0.10262503335,0.13438992462500002,0.10262503335,0.1502723702625,0.09407294723750001,0.12006,-0.45008,-0.54288,0.1537,-0.46052,-0.17052,-0.1866401628,9.536594472300001,-0.5240281494000001,0.0525342432625,0.023823668456250002,0.11423143593125001,0.13688,-0.4553,-0.3567,-8.00224,3.29504,-262.66176,32.22
55691,8128472,0,-41,1334,-92,1,-126,113,207,-776,-936,-23,1335,-21,82,72,83,287,-756,-297,-176,144,-8896,31.66,0.9887095978287688,32.8,0.9986281766592648,3859.984619140625,-7606.2802734375,23.100000381469727,7.785099506378174,0,0.0,0.0,0.0,0.0,0.1583323015427031,0.0,0.0,0.0,0.0,0.0,0.0,0.0,11,0.9936688872440168,38.99974365234375,-76.10467122395833,-0.2943171798,9.5760760452,-0.6604190376,-0.1651047594,9.583254513,-0.1507478238,0.0012217265875,-0.153937550025,0.13805510438750002,0.100181580175,0.0879643143,0.1014033067625,0.12006,-0.45008,-0.54288,0.16646,-0.43848,-0.17226,-0.22971096959999998,9.5796652791,-0.4055834307,0.05070165338125,-0.032986617862500005,0.11972920557500001,0.14326,-0.44428,-0.35757,-5.17792,4.23648,-261.72032,32.23
55692,8128622,0,-35,1332,-97,8,-105,90,211,-789,-929,-22,1335,-32,101,93,48,287,-756,-297,-176,128,-8944,31.67,0.9886898593634345,32.78,0.9987367382186036,3859.984619140625,-7606.2802734375,23.399999618530277,7.790638446807861,0,0.0,0.0,0.0,0.0,0.1583323015427031,0.0,0.0,0.0,0.0,0.0,0.0,0.0,11,0.9937132987910191,38.99974365234375,-76.10467122395833,-0.251246373,9.5617191096,-0.6963113766,-0.15792629160000002,9.583254513,-0.2297109696,0.0097738127,-0.1282812916875,0.109955392875,0.12339438533750001,0.1136205726375,0.0586428762,0.12238,-0.45762,-0.53882,0.16646,-0.43848,-0.17226,-0.2045863323,9.5724868113,-0.4630111731,0.06658409901875001,-0.0073303595249999964,0.0842991345375,0.14442,-0.44805,-0.35553999999999997,-5.17792,3.76576,-263.13248,32.225
55693,8128773,0,-19,1332,-109,-4,-98,117,216,-806,-901,-6,1335,-49,85,100,77,281,-779,-321,-160,96,-8912,31.66,0.9888675055514434,32.78,0.9988749074759438,3859.984619140625,-7606.2802734375,23.399999618530277,7.792300224304199,0,0.0,0.0,0.0,0.0,0.1583323015427031,0.0,0.0,0.0,0.0,0.0,0.0,0.0,11,0.9938712065136937,38.99974365234375,-76.10467122395833,-0.1363908882,9.5617191096,-0.7824529902,-0.0430708068,9.583254513,-0.35174492220000003,-0.00488690635,-0.11972920557500001,0.1429420107375,0.1038467599375,0.12217265875000001,0.09407294723750001,0.12528,-0.46748,-0.52258,0.16298,-0.45182,-0.18618,-0.0897308475,9.5724868113,-0.5670989562000001,0.049479926793750004,0.0012217265874999994,0.11850747898750001,0.14413,-0.45965,-0.35438000000000003,-4.7072,2.82432,-262.19104000000004,32.22
55694,8128923,0,-54,1327,-103,6,-59,117,239,-795,-896,-30,1335,-43,90,128,73,234,-797,-300,-224,128,-8880,31.67,0.9885812978040958,32.78,0.9986676535899334,3859.984619140625,-7606.2802734375,23.399999618530277,7.790084362030029,0,0.0,0.0,0.0,0.0,0.1583323015427031,0.0,0.0,0.0,0.0,0.0,0.0,0.0,11,0.9936244756970145,38.99974365234375,-76.10467122395833,-0.3876372612,9.5258267706,-0.7393821834000001,-0.215354034,9.583254513,-0.3086741154,0.007330359525,-0.0720818686625,0.1429420107375,0.109955392875,0.1563810032,0.0891860408875,0.13862,-0.4611,-0.51968,0.13572,-0.46226,-0.174,-0.3014956476,9.5545406418,-0.5240281494000001,0.0586428762,0.04214956726875,0.1160640258125,0.13717000000000001,-0.46168,-0.34684000000000004,-6.59008,3.76576,-261.2496,32.225
55695,8129073,0,-33,1334,-103,18,-95,76,239,-795,-896,-24,1332,-40,97,124,34,301,-784,-247,-272,48,-8880,31.66,0.9886701208981,32.78,0.9987169997532692,3859.984619140625,-7606.2802734375,23.399999618530277,7.791192054748535,0,0.0,0.0,0.0,0.0,0.1583323015427031,0.0,0.0,0.0,0.0,0.0,0.0,0.0,11,0.9936935603256847,38.99974365234375,-76.10467122395833,-0.2368894374,9.5760760452,-0.7393821834000001,-0.1722832272,9.5617191096,-0.287138712,0.021991078575,-0.1160640258125,0.09285122065000001,0.11850747898750001,0.15149409685,0.041538703975,0.13862,-0.4611,-0.51968,0.17458,-0.45472,-0.14326,-0.2045863323,9.568897577400001,-0.5132604477,0.07024927878125001,0.017715035518750005,0.06719496231250001,0.15660000000000002,-0.45791000000000004,-0.33147000000000004,-8.00224,1.41216,-261.2496,32.22
55696,8129224,0,-29,1333,-103,4,-80,77,222,-786,-911,-5,1330,-34,104,102,54,301,-784,-247,-256,176,-9008,31.67,0.9887490747594374,32.79,0.9986577843572664,3859.984619140625,-7606.2802734375,23.399999618530277,7.78399133682251,0,0.0,0.0,0.0,0.0,0.1583323015427031,0.0,0.0,0.0,0.0,0.0,0.0,0.0,11,0.9937034295583519,38.99974365234375,-76.10467122395833,-0.2081755662,9.5688975774,-0.7393821834000001,-0.035892339,9.547362174,-0.24406790520000002,0.00488690635,-0.09773812700000001,0.09407294723750001,0.1270595651,0.12461611192500001,0.06597323572500001,0.12876,-0.45588,-0.52838,0.17458,-0.45472,-0.14326,-0.1220339526,9.5581298757,-0.4917250443,0.065973235725,0.0134389924625,0.08002309148125,0.15167000000000003,-0.45530000000000004,-0.33582,-7.53152,5.17792,-265.01536,32.230000000000004
55697,8129374,0,-17,1330,-102,-4,-85,104,224,-790,-907,2,1328,-36,81,95,73,257,-811,-289,-144,160,-8944,31.67,0.9886109055020972,32.78,0.9987762151492722,3859.984619140625,-7606.2802734375,23.399999618530277,7.790084362030029,0,0.0,0.0,0.0,0.0,0.1583323015427031,0.0,0.0,0.0,0.0,0.0,0.0,0.0,11,0.9936935603256847,38.99974365234375,-76.10467122395833,-0.12203395260000001,9.547362174,-0.7322037156000001,0.0143569356,9.533005238400001,-0.2584248408,-0.00488690635,-0.1038467599375,0.1270595651,0.09895985358750001,0.1160640258125,0.0891860408875,0.12992,-0.4582,-0.52606,0.14906,-0.47038,-0.16762,-0.05383850850000001,9.5401837062,-0.49531427820000007,0.047036473618750005,0.006108632937499997,0.10812280299374999,0.13949,-0.46429,-0.34684,-4.23648,4.7072,-263.13248,32.225
55698,8129525,0,-34,1336,-99,3,-68,135,209,-769,-900,-14,1334,-37,71,113,105,258,-779,-262,-176,96,-8896,31.67,0.9887786824574388,32.77,0.9989045151739452,3859.984619140625,-7606.2802734375,23.399999618530277,7.78620719909668,0,0.0,0.0,0.0,0.0,0.1583323015427031,0.0,0.0,0.0,0.0,0.0,0.0,0.0,11,0.993841598815692,38.99974365234375,-76.10467122395833,-0.24406790520000002,9.590432980800001,-0.7106683122,-0.10049854920000001,9.5760760452,-0.26560330860000003,0.0036651797625,-0.08307740795,0.1649330893125,0.0867425877125,0.13805510438750002,0.1282812916875,0.12122,-0.44602,-0.522,0.14964,-0.45182,-0.15196,-0.1722832272,9.583254513,-0.48813581040000004,0.0452038837375,0.027488848218750007,0.14660719049999998,0.13543,-0.44892,-0.33698,-5.17792,2.82432,-261.72032,32.22
55699,8129675,0,-21,1333,-100,39,-88,91,209,-769,-900,-12,1332,-33,116,93,61,259,-782,-286,-400,112,-8928,31.69,0.9885714285714284,32.78,0.9987762151492722,3859.984619140625,-7606.2802734375,23.399999618530277,7.779006481170654,0,0.0,0.0,0.0,0.0,0.1583323015427031,0.0,0.0,0.0,0.0,0.0,0.0,0.0,11,0.9936738218603502,38.99974365234375,-76.10467122395833,-0.1507478238,9.5688975774,-0.71784678,-0.0861416136,9.5617191096,-0.2368894374,0.047647336912500005,-0.1075119397,0.1111771194625,0.14172028415000001,0.1136205726375,0.0745253218375,0.12122,-0.44602,-0.522,0.15022,-0.45356,-0.16588,-0.1184447187,9.5653083435,-0.4773681087,0.09468381053125001,0.0030543164687499985,0.09285122065000001,0.13572,-0.44979,-0.34394,-11.768,3.29504,-262.66176,32.235
55700,8129825,0,-44,1330,-100,22,-87,81,242,-798,-890,-29,1333,-31,108,112,42,259,-782,-286,-160,96,-9008,31.67,0.9886405132000988,32.78,0.9987860843819392,3859.984619140625,-7606.2802734375,23.399999618530277,7.790084362030029,0,0.0,0.0,0.0,0.0,0.1583323015427031,0.0,0.0,0.0,0.0,0.0,0.0,0.0,11,0.993713298791019,38.99974365234375,-76.10467122395833,-0.31585258320000004,9.547362174,-0.71784678,-0.2081755662,9.5688975774,-0.2225325018,0.026877984925,-0.1062902131125,0.09895985358750001,0.13194647145000002,0.13683337780000002,0.051312516675,0.14036,-0.46284000000000003,-0.5162,0.15022,-0.45356,-0.16588,-0.26201407470000004,9.5581298757,-0.47018964090000004,0.07941222818750002,0.015271582343750006,0.07513618513125,0.14529,-0.45820000000000005,-0.34104,-4.7072,2.82432,-265.01536,32.225
55701,8129976,0,-22,1330,-105,6,-94,48,214,-778,-888,-11,1331,-37,98,98,14,248,-777,-317,-272,80,-8800,31.67,0.9885714285714284,32.78,0.9986281766592648,3859.984619140625,-7606.2802734375,23.399999618530277,7.790638446807861,0,0.0,0.0,0.0,0.0,0.1583323015427031,0.0,0.0,0.0,0.0,0.0,0.0,0.0,11,0.9935998026153466,38.99974365234375,-76.10467122395833,-0.15792629160000002,9.547362174,-0.753739119,-0.07896314580000001,9.554540641800001,-0.26560330860000003,0.007330359525,-0.114842299225,0.0586428762,0.11972920557500001,0.11972920557500001,0.017104172225000002,0.12412,-0.45124000000000003,-0.51504,0.14384,-0.45066,-0.18386,-0.1184447187,9.550951407900001,-0.5096712138,0.06352978255000001,0.0024434531750000058,0.0378735242125,0.13398,-0.45095,-0.34945000000000004,-8.00224,2.3536,-258.896,32.225
55702,8130126,0,-13,1325,-104,11,-74,108,234,-786,-890,-3,1331,-36,88,131,74,240,-797,-302,-160,176,-8992,31.66,0.9887095978287688,32.77,0.9987466074512706,3859.984619140625,-7606.2802734375,23.399999618530277,7.799500942230225,0,0.0,0.0,0.0,0.0,0.1583323015427031,0.0,0.0,0.0,0.0,0.0,0.0,0.0,11,0.9937281026400198,38.99974365234375,-76.10467122395833,-0.0933200814,9.511469835,-0.7465606512,-0.0215354034,9.554540641800001,-0.2584248408,0.0134389924625,-0.090407767475,0.13194647145000002,0.1075119397,0.1600461829625,0.090407767475,0.13572,-0.45588,-0.5162,0.1392,-0.46226,-0.17516,-0.0574277424,9.533005238400001,-0.502492746,0.06047546608125,0.034819207743750004,0.1111771194625,0.13746,-0.45907,-0.34568,-4.7072,5.17792,-264.54464,32.215
55703,8130276,0,-27,1333,-99,1,-111,182,234,-786,-890,-9,1340,-37,82,97,153,251,-783,-316,-192,160,-9024,31.67,0.9886405132000988,32.77,0.9988058228472736,3859.984619140625,-7606.2802734375,23.399999618530277,7.827749729156494,0,0.0,0.0,0.0,0.0,0.1583323015427031,0.0,0.0,0.0,0.0,0.0,0.0,0.0,11,0.9937231680236862,38.99974365234375,-76.10467122395833,-0.1938186306,9.5688975774,-0.7106683122,-0.0646062102,9.619146852,-0.26560330860000003,0.0012217265875,-0.13561165121250002,0.222354238925,0.100181580175,0.11850747898750001,0.18692416788750002,0.13572,-0.45588,-0.5162,0.14558,-0.45414,-0.18328,-0.1292124204,9.5940222147,-0.48813581040000004,0.05070165338125,-0.008552086112500003,0.20463920340625003,0.14065,-0.45501,-0.34974,-5.64864,4.7072,-265.48608,32.22
55704,8130427,0,-28,1327,-105,10,-82,94,226,-778,-901,-19,1331,-51,101,125,56,251,-783,-316,-272,176,-8928,31.66,0.9887688132247716,32.77,0.998963730569948,3859.984619140625,-7606.2802734375,23.399999618530277,7.801716327667236,0,0.0,0.0,0.0,0.0,0.1583323015427031,0.0,0.0,0.0,0.0,0.0,0.0,0.0,11,0.9938662718973599,38.99974365234375,-76.10467122395833,-0.20099709840000002,9.5258267706,-0.753739119,-0.1363908882,9.554540641800001,-0.36610185780000004,0.012217265875000001,-0.100181580175,0.114842299225,0.12339438533750001,0.1527158234375,0.06841668890000001,0.13108,-0.45124000000000003,-0.52258,0.14558,-0.45414,-0.18328,-0.1686939933,9.5401837062,-0.5599204884,0.06780582560625001,0.02626712163125,0.09162949406250001,0.13833,-0.45269000000000004,-0.35293,-8.00224,5.17792,-262.66176,32.215
55705,8130577,0,-23,1332,-104,32,-78,87,220,-773,-895,-14,1332,-41,102,118,47,261,-784,-301,-176,128,-9024,31.67,0.9888477670861092,32.77,0.9989045151739452,3859.984619140625,-7606.2802734375,23.399999618530277,7.790638446807861,0,0.0,0.0,0.0,0.0,0.1583323015427031,0.0,0.0,0.0,0.0,0.0,0.0,0.0,11,0.9938761411300272,38.99974365234375,-76.10467122395833,-0.1651047594,9.5617191096,-0.7465606512,-0.10049854920000001,9.5617191096,-0.2943171798,0.0390952508,-0.09529467382500001,0.1062902131125,0.12461611192500001,0.144163737325,0.0574211496125,0.1276,-0.44834,-0.5191,0.15138000000000001,-0.45472,-0.17458,-0.13280165430000002,9.5617191096,-0.5204389155,0.0818556813625,0.024434531750000002,0.0818556813625,0.13949,-0.45153,-0.34684000000000004,-5.17792,3.76576,-265.48608,32.22
55706,8130728,0,-32,1329,-99,15,-100,76,216,-790,-928,-12,1334,-26,101,98,31,239,-789,-279,-224,128,-8880,31.67,0.9885812978040958,32.77,0.9988650382432764,3859.984619140625,-7606.2802734375,23.399999618530277,7.78620719909668,0,0.0,0.0,0.0,0.0,0.1583323015427031,0.0,0.0,0.0,0.0,0.0,0.0,0.0,11,0.9937231680236861,38.99974365234375,-76.10467122395833,-0.2297109696,9.5401837062,-0.7106683122,-0.0861416136,9.5760760452,-0.1866401628,0.0183258988125,-0.12217265875000001,0.09285122065000001,0.12339438533750001,0.11972920557500001,0.0378735242125,0.12528,-0.4582,-0.53824,0.13862,-0.45762,-0.16182,-0.1579262916,9.5581298757,-0.4486542375,0.07086014207500001,-0.0012217265874999994,0.06536237243125001,0.13195,-0.45791000000000004,-0.35003,-6.59008,3.76576,-261.2496,32.22
55707,8130878,0,-12,1333,-109,-10,-88,105,216,-790,-928,-2,1330,-47,73,112,71,246,-764,-298,-160,208,-9008,31.67,0.9885812978040958,32.77,0.9987466074512706,3859.984619140625,-7606.2802734375,23.399999618530277,7.790084362030029,0,0.0,0.0,0.0,0.0,0.1583323015427031,0.0,0.0,0.0,0.0,0.0,0.0,0.0,11,0.9936639526276831,38.99974365234375,-76.10467122395833,-0.0861416136,9.5688975774,-0.7824529902,-0.0143569356,9.547362174,-0.3373879866,-0.012217265875000001,-0.1075119397,0.1282812916875,0.0891860408875,0.13683337780000002,0.0867425877125,0.12528,-0.4582,-0.53824,0.14268,-0.44312,-0.17284,-0.0502492746,9.5581298757,-0.5599204884,0.038484387506249995,0.014660719050000007,0.1075119397,0.13398,-0.45066,-0.35554,-4.7072,6.11936,-265.01536,32.22
55708,8131028,0,-22,1330,-110,0,-85,89,212,-790,-878,-20,1332,-44,85,99,58,246,-764,-298,-272,176,-9040,31.65,0.9886799901307672,32.78,0.9989439921046138,3859.984619140625,-7606.2802734375,23.200000762939453,7.791192054748535,0,0.0,0.0,0.0,0.0,0.1583323015427031,0.0,0.0,0.0,0.0,0.0,0.0,0.0,11,0.9938119911176906,38.99974365234375,-76.10467122395833,-0.15792629160000002,9.547362174,-0.789631458,-0.143569356,9.5617191096,-0.31585258320000004,0.0,-0.1038467599375,0.1087336662875,0.1038467599375,0.12095093216250001,0.07086014207500001,0.12296,-0.4582,-0.50924,0.14268,-0.44312,-0.17284,-0.1507478238,9.5545406418,-0.5527420206,0.05192337996875,0.008552086112500003,0.08979690418125,0.13282,-0.45066,-0.34104,-8.00224,5.17792,-265.95680000000004,32.215
55709,8131179,0,-25,1327,-101,6,-97,96,223,-781,-897,-12,1337,-32,91,105,58,285,-806,-277,-208,144,-8960,31.67,0.9886898593634345,32.78,0.9986281766592648,3859.984619140625,-7606.2802734375,23.200000762939453,7.783437728881836,0,0.0,0.0,0.0,0.0,0.1583323015427031,0.0,0.0,0.0,0.0,0.0,0.0,0.0,11,0.9936590180113496,38.99974365234375,-76.10467122395833,-0.179461695,9.5258267706,-0.7250252478,-0.0861416136,9.5976114486,-0.2297109696,0.007330359525,-0.11850747898750001,0.1172857524,0.1111771194625,0.1282812916875,0.07086014207500001,0.12934,-0.45298,-0.5202600000000001,0.1653,-0.46748,-0.16066,-0.13280165430000002,9.5617191096,-0.4773681087,0.05925373949375,0.004886906349999991,0.09407294723750001,0.14732,-0.46023000000000003,-0.34046000000000004,-6.11936,4.23648,-263.6032,32.225
55710,8131329,0,-42,1331,-113,16,-105,80,231,-782,-887,-19,1330,-47,98,80,39,249,-779,-310,-240,128,-8992,31.66,0.9884924747100912,32.78,0.9986281766592648,3859.984619140625,-7606.2802734375,23.200000762939453,7.78620719909668,0,0.0,0.0,0.0,0.0,0.1583323015427031,0.0,0.0,0.0,0.0,0.0,0.0,0.0,11,0.993560325684678,38.99974365234375,-76.10467122395833,-0.3014956476,9.554540641800001,-0.8111668614,-0.1363908882,9.547362174,-0.3373879866,0.0195476254,-0.1282812916875,0.09773812700000001,0.11972920557500001,0.09773812700000001,0.047647336912500005,0.13398,-0.45356,-0.51446,0.14442,-0.45182,-0.1798,-0.21894326790000002,9.550951407900001,-0.574277424,0.06963841548750001,-0.015271582343749993,0.07269273195625,0.1392,-0.45269000000000004,-0.34713,-7.0608,3.76576,-264.54464,32.22
55711,8131480,0,-26,1337,-106,20,-88,107,231,-782,-887,-10,1330,-39,104,115,77,256,-781,-300,-304,128,-8928,31.67,0.9887984209227731,32.78,0.9986775228226006,3859.984619140625,-7606.2802734375,23.200000762939453,7.787868976593018,0,0.0,0.0,0.0,0.0,0.1583323015427031,0.0,0.0,0.0,0.0,0.0,0.0,0.0,11,0.9937379718726869,38.99974365234375,-76.10467122395833,-0.1866401628,9.5976114486,-0.7609175868,-0.071784678,9.547362174,-0.2799602442,0.024434531750000002,-0.1075119397,0.13072474486250002,0.1270595651,0.14049855756250001,0.09407294723750001,0.13398,-0.45356,-0.51446,0.14848,-0.45298,-0.174,-0.1292124204,9.5724868113,-0.5204389155,0.07574704842499999,0.016493308931250006,0.11239884605000001,0.14123,-0.45327,-0.34423000000000004,-8.94368,3.76576,-262.66176,32.225
55712,8131630,0,-24,1333,-91,7,-78,105,245,-793,-929,-6,1335,-28,82,110,68,256,-781,-300,-176,128,-9008,31.67,0.9886405132000988,32.77,0.998638045891932,3859.984619140625,-7606.2802734375,23.200000762939453,7.783437728881836,0,0.0,0.0,0.0,0.0,0.1583323015427031,0.0,0.0,0.0,0.0,0.0,0.0,0.0,11,0.9936392795460154,38.99974365234375,-76.10467122395833,-0.1722832272,9.5688975774,-0.6532405698,-0.0430708068,9.583254513,-0.20099709840000002,0.008552086112500001,-0.09529467382500001,0.1282812916875,0.100181580175,0.13438992462500002,0.08307740795,0.1421,-0.45994,-0.53882,0.14848,-0.45298,-0.174,-0.107677017,9.5760760452,-0.4271188341,0.05436683314375,0.019547625400000004,0.10567934981874999,0.14529,-0.45646,-0.35641,-5.17792,3.76576,-265.01536,32.22
55713,8131780,0,-20,1328,-105,-9,-72,95,218,-755,-894,-9,1335,-34,86,139,63,271,-763,-305,-272,48,-8880,31.67,0.988660251665433,32.78,0.9987367382186036,3859.984619140625,-7606.2802734375,23.200000762939453,7.785653114318848,0,0.0,0.0,0.0,0.0,0.1583323015427031,0.0,0.0,0.0,0.0,0.0,0.0,0.0,11,0.9936984949420183,38.99974365234375,-76.10467122395833,-0.143569356,9.533005238400001,-0.753739119,-0.0646062102,9.583254513,-0.24406790520000002,-0.0109955392875,-0.0879643143,0.1160640258125,0.105068486525,0.1698199956625,0.0769687750125,0.12644,-0.4379,-0.51852,0.15718000000000001,-0.44254,-0.1769,-0.1040877831,9.5581298757,-0.4989035121,0.047036473618750005,0.04092784068125,0.09651640041250001,0.14181,-0.44022,-0.34770999999999996,-8.00224,1.41216,-261.2496,32.225
55714,8131931,0,-46,1328,-104,11,-86,143,228,-802,-880,-26,1336,-37,88,120,102,229,-815,-278,-176,176,-9056,31.66,0.9887688132247716,32.77,0.9989242536392796,3859.984619140625,-7606.2802734375,23.200000762939453,7.783437728881836,0,0.0,0.0,0.0,0.0,0.1583323015427031,0.0,0.0,0.0,0.0,0.0,0.0,0.0,11,0.9938465334320257,38.99974365234375,-76.10467122395833,-0.3302095188,9.533005238400001,-0.7465606512,-0.1866401628,9.590432980800001,-0.26560330860000003,0.0134389924625,-0.105068486525,0.1747069020125,0.1075119397,0.1466071905,0.12461611192500001,0.13224,-0.46516,-0.5104,0.13282,-0.4727,-0.16124,-0.2584248408,9.561719109600002,-0.5060819799,0.06047546608125,0.020769351987500004,0.14966150696875,0.13252999999999998,-0.46893,-0.33582,-5.17792,5.17792,-266.42752,32.215
55715,8132081,0,-33,1332,-98,12,-75,25,228,-802,-880,-17,1333,-35,104,110,7,247,-752,-292,-304,48,-8864,31.67,0.9886405132000988,32.77,0.9987466074512706,3859.984619140625,-7606.2802734375,23.200000762939453,7.792300224304199,0,0.0,0.0,0.0,0.0,0.1583323015427031,0.0,0.0,0.0,0.0,0.0,0.0,0.0,11,0.9936935603256847,38.99974365234375,-76.10467122395833,-0.2368894374,9.5617191096,-0.7034898444000001,-0.12203395260000001,9.5688975774,-0.251246373,0.01466071905,-0.09162949406250001,0.030543164687500002,0.1270595651,0.13438992462500002,0.008552086112500001,0.13224,-0.46516,-0.5104,0.14326,-0.43616,-0.16936,-0.179461695,9.5653083435,-0.4773681087,0.070860142075,0.021380215281250003,0.0195476254,0.13774999999999998,-0.45066,-0.33987999999999996,-8.94368,1.41216,-260.77888,32.22
55716,8132232,0,-24,1333,-100,5,-90,119,231,-772,-879,-7,1331,-40,86,110,91,267,-791,-304,-240,144,-8848,31.65,0.988788551690106,32.77,0.9989242536392796,3859.984619140625,-7606.2802734375,23.200000762939453,7.790638446807861,0,0.0,0.0,0.0,0.0,0.1583323015427031,0.0,0.0,0.0,0.0,0.0,0.0,0.0,11,0.9938564026646928,38.99974365234375,-76.10467122395833,-0.1722832272,9.5688975774,-0.71784678,-0.050249274600000005,9.554540641800001,-0.287138712,0.0061086329375000005,-0.109955392875,0.1453854639125,0.105068486525,0.13438992462500002,0.1111771194625,0.13398,-0.44776,-0.50982,0.15486,-0.45878,-0.17632,-0.1112662509,9.5617191096,-0.502492746,0.05558855973125,0.012217265875000008,0.12828129168750002,0.14442,-0.45327,-0.34307000000000004,-7.0608,4.23648,-260.30816000000004,32.21
55717,8132382,0,-21,1331,-101,9,-95,93,189,-771,-901,-4,1331,-38,92,109,51,267,-791,-304,-208,128,-8912,31.67,0.9887984209227731,32.78,0.9988749074759438,3859.984619140625,-7606.2802734375,23.200000762939453,7.78620719909668,0,0.0,0.0,0.0,0.0,0.1583323015427031,0.0,0.0,0.0,0.0,0.0,0.0,0.0,11,0.9938366641993585,38.99974365234375,-76.10467122395833,-0.1507478238,9.554540641800001,-0.7250252478,-0.0287138712,9.554540641800001,-0.2727817764,0.0109955392875,-0.1160640258125,0.1136205726375,0.11239884605,0.13316819803750002,0.062308055962500004,0.10962,-0.44718,-0.52258,0.15486,-0.45878,-0.17632,-0.0897308475,9.554540641800001,-0.4989035121,0.06169719266875,0.00855208611250001,0.0879643143,0.13224,-0.45298000000000005,-0.34945000000000004,-6.11936,3.76576,-262.19104000000004,32.225
55718,8132532,0,-34,1338,-96,21,-66,95,206,-780,-875,-24,1328,-28,111,148,60,261,-777,-294,-208,80,-8976,31.66,0.9886701208981,32.77,0.9986972612879348,3859.984619140625,-7606.2802734375,23.200000762939453,7.794515609741211,0,0.0,0.0,0.0,0.0,0.1583323015427031,0.0,0.0,0.0,0.0,0.0,0.0,0.0,11,0.9936836910930174,38.99974365234375,-76.10467122395833,-0.24406790520000002,9.6047899164,-0.6891329088,-0.1722832272,9.533005238400001,-0.20099709840000002,0.0256562583375,-0.080633954775,0.1160640258125,0.13561165121250002,0.18081553495,0.07330359525,0.11948,-0.4524,-0.5075,0.15138000000000001,-0.45066,-0.17052,-0.2081755662,9.568897577400001,-0.4450650036,0.08063395477500002,0.050090790087499996,0.09468381053125,0.13543,-0.45153,-0.33901,-6.11936,2.3536,-264.07392000000004,32.215
55719,8132683,0,-19,1336,-95,11,-100,65,206,-780,-875,-6,1334,-28,100,99,28,271,-768,-315,-240,144,-8912,31.67,0.9885812978040958,32.78,0.9987367382186036,3859.984619140625,-7606.2802734375,23.200000762939453,7.790084362030029,0,0.0,0.0,0.0,0.0,0.1583323015427031,0.0,0.0,0.0,0.0,0.0,0.0,0.0,11,0.9936590180113497,38.99974365234375,-76.10467122395833,-0.1363908882,9.590432980800001,-0.681954441,-0.0430708068,9.5760760452,-0.20099709840000002,0.0134389924625,-0.12217265875000001,0.0794122281875,0.12217265875000001,0.12095093216250001,0.034208344450000004,0.11948,-0.4524,-0.5075,0.15718000000000001,-0.44544,-0.1827,-0.0897308475,9.583254513,-0.4414757697,0.06780582560625001,-0.0006108632937499997,0.05681028631875,0.13833,-0.44892,-0.34509999999999996,-7.0608,4.23648,-262.19104000000004,32.225
55720,8132833,0,-20,1333,-100,10,-89,86,229,-771,-925,2,1332,-37,98,107,58,257,-776,-299,-224,-16,-8944,31.66,0.9886503824327658,32.77,0.998766345916605,3859.984619140625,-7606.2802734375,23.200000762939453,7.790084362030029,0,0.0,0.0,0.0,0.0,0.1583323015427031,0.0,0.0,0.0,0.0,0.0,0.0,0.0,11,0.9937083641746853,38.99974365234375,-76.10467122395833,-0.143569356,9.5688975774,-0.71784678,0.0143569356,9.5617191096,-0.26560330860000003,0.012217265875000001,-0.1087336662875,0.105068486525,0.11972920557500001,0.13072474486250002,0.07086014207500001,0.13282,-0.44718,-0.5365,0.14906,-0.45008,-0.17342,-0.0646062102,9.5653083435,-0.4917250443,0.06597323572500001,0.010995539287500009,0.08796431430000001,0.14094,-0.44863,-0.35496,-6.59008,-0.47072,-263.13248,32.215
55721,8132984,0,-21,1331,-102,6,-97,82,230,-803,-912,-12,1331,-44,90,105,43,257,-776,-299,-192,48,-8976,31.65,0.9886799901307672,32.77,0.9987466074512706,3859.984619140625,-7606.2802734375,23.200000762939453,7.78233003616333,0,0.0,0.0,0.0,0.0,0.1583323015427031,0.0,0.0,0.0,0.0,0.0,0.0,0.0,11,0.9937132987910189,38.99974365234375,-76.10467122395833,-0.1507478238,9.554540641800001,-0.7322037156000001,-0.0861416136,9.554540641800001,-0.31585258320000004,0.007330359525,-0.11850747898750001,0.100181580175,0.109955392875,0.1282812916875,0.0525342432625,0.1334,-0.46574,-0.52896,0.14906,-0.45008,-0.17342,-0.1184447187,9.554540641800001,-0.5240281494000001,0.0586428762,0.004886906349999991,0.07635791171875,0.14123,-0.45791,-0.35119,-5.64864,1.41216,-264.07392000000004,32.21
55722,8133134,0,-24,1340,-102,6,-93,86,235,-760,-913,-10,1332,-30,94,98,50,263,-772,-291,-208,224,-8928,31.66,0.9886701208981,32.77,0.998766345916605,3859.984619140625,-7606.2802734375,23.200000762939453,7.790084362030029,0,0.0,0.0,0.0,0.0,0.1583323015427031,0.0,0.0,0.0,0.0,0.0,0.0,0.0,11,0.9937182334073524,38.99974365234375,-76.10467122395833,-0.1722832272,9.619146852,-0.7322037156000001,-0.071784678,9.5617191096,-0.215354034,0.007330359525,-0.1136205726375,0.105068486525,0.114842299225,0.11972920557500001,0.061086329375000005,0.1363,-0.4408,-0.52954,0.15254,-0.44776,-0.16878,-0.1220339526,9.5904329808,-0.4737788748,0.061086329375,0.0030543164687500055,0.08307740795,0.14442,-0.44428,-0.34916,-6.11936,6.59008,-262.66176,32.215
55723,8133284,0,-13,1336,-100,2,-86,84,235,-760,-913,-3,1330,-36,100,117,49,241,-783,-284,-304,80,-8848,31.66,0.98860103626943,32.79,0.9984900074019244,3859.984619140625,-7606.2802734375,23.200000762939453,7.790084362030029,0,0.0,0.0,0.0,0.0,0.1583323015427031,0.0,0.0,0.0,0.0,0.0,0.0,0.0,11,0.9935455218356772,38.99974365234375,-76.10467122395833,-0.0933200814,9.590432980800001,-0.71784678,-0.0215354034,9.547362174,-0.2584248408,0.002443453175,-0.105068486525,0.10262503335,0.12217265875000001,0.1429420107375,0.059864602787500006,0.1363,-0.4408,-0.52954,0.13978,-0.45414,-0.16472,-0.0574277424,9.568897577400001,-0.4881358104,0.062308055962500004,0.018936762106250005,0.08124481806875,0.13804,-0.44747000000000003,-0.34713,-8.94368,2.3536,-260.30816000000004,32.225
55724,8133435,0,-21,1332,-109,-3,-73,100,225,-789,-906,-14,1336,-39,91,116,67,249,-774,-302,-224,112,-8880,31.66,0.98860103626943,32.77,0.9988650382432764,3859.984619140625,-7606.2802734375,23.200000762939453,7.796731472015381,0,0.0,0.0,0.0,0.0,0.1583323015427031,0.0,0.0,0.0,0.0,0.0,0.0,0.0,11,0.9937330372563532,38.99974365234375,-76.10467122395833,-0.1507478238,9.5617191096,-0.7824529902,-0.10049854920000001,9.590432980800001,-0.2799602442,-0.0036651797625,-0.0891860408875,0.12217265875000001,0.1111771194625,0.14172028415000001,0.0818556813625,0.1305,-0.45762,-0.5254800000000001,0.14442,-0.44892,-0.17516,-0.1256231865,9.5760760452,-0.5312066172000001,0.05375596985,0.026267121631250008,0.10201417005625,0.13746,-0.45327,-0.35032,-6.59008,3.29504,-261.2496,32.215
55725,8133585,0,-27,1330,-106,22,-96,99,225,-807,-922,-13,1336,-42,104,109,68,249,-774,-302,-224,160,-8944,31.66,0.9888280286207748,32.77,0.9987466074512706,3859.984619140625,-7606.2802734375,23.200000762939453,7.791192054748535,0,0.0,0.0,0.0,0.0,0.1583323015427031,0.0,0.0,0.0,0.0,0.0,0.0,0.0,11,0.9937873180360227,38.99974365234375,-76.10467122395833,-0.1938186306,9.547362174,-0.7609175868,-0.0933200814,9.590432980800001,-0.3014956476,0.026877984925,-0.1172857524,0.12095093216250001,0.1270595651,0.13316819803750002,0.08307740795,0.1305,-0.46806,-0.53476,0.14442,-0.44892,-0.17516,-0.143569356,9.568897577400001,-0.5312066172000001,0.07696877501249999,0.00794122281875001,0.10201417005625,0.13746,-0.45848999999999995,-0.35496,-6.59008,4.7072,-263.13248,32.215
55726,8133735,0,-16,1333,-104,10,-72,90,205,-801,-895,-13,1334,-24,97,118,54,279,-769,-307,-192,112,-8928,31.65,0.988906982482112,32.78,0.998894645941278,3859.984619140625,-7606.2802734375,22.899999618530277,7.7873148918151855,0,0.0,0.0,0.0,0.0,0.1583323015427031,0.0,0.0,0.0,0.0,0.0,0.0,0.0,11,0.993900814211695,38.99974365234375,-76.10467122395833,-0.1148554848,9.5688975774,-0.7465606512,-0.0933200814,9.5760760452,-0.1722832272,0.012217265875000001,-0.0879643143,0.109955392875,0.11850747898750001,0.144163737325,0.06597323572500001,0.1189,-0.46458,-0.5191,0.16182,-0.44602,-0.17806,-0.1040877831,9.5724868113,-0.4594219392,0.06536237243125001,0.028099711512500007,0.08796431430000001,0.14035999999999998,-0.45530000000000004,-0.34858,-5.64864,3.29504,-262.66176,32.215
55727,8133886,0,-24,1331,-99,10,-78,95,205,-801,-895,-5,1332,-34,96,120,66,258,-781,-275,-160,160,-8960,31.66,0.9887589439921046,32.77,0.9988650382432764,3859.984619140625,-7606.2802734375,22.899999618530277,7.780668258666992,0,0.0,0.0,0.0,0.0,0.1583323015427031,0.0,0.0,0.0,0.0,0.0,0.0,0.0,11,0.9938119911176906,38.99974365234375,-76.10467122395833,-0.1722832272,9.554540641800001,-0.7106683122,-0.035892339,9.5617191096,-0.24406790520000002,0.012217265875000001,-0.09529467382500001,0.1160640258125,0.1172857524,0.1466071905,0.080633954775,0.1189,-0.46458,-0.5191,0.14964,-0.45298,-0.1595,-0.1040877831,9.5581298757,-0.4773681087,0.0647515091375,0.0256562583375,0.09834899029375,0.13427,-0.45877999999999997,-0.3393,-4.7072,4.7072,-263.6032,32.215
55728,8134036,0,-24,1335,-95,13,-96,103,216,-780,-938,-9,1337,-28,103,102,68,251,-803,-306,-192,144,-9040,31.66,0.9888675055514434,32.77,0.9989242536392796,3859.984619140625,-7606.2802734375,22.899999618530277,7.790638446807861,0,0.0,0.0,0.0,0.0,0.1583323015427031,0.0,0.0,0.0,0.0,0.0,0.0,0.0,11,0.9938958795953615,38.99974365234375,-76.10467122395833,-0.1722832272,9.583254513,-0.681954441,-0.0646062102,9.5976114486,-0.20099709840000002,0.0158824456375,-0.1172857524,0.1258378385125,0.1258378385125,0.12461611192500001,0.08307740795,0.12528,-0.4524,-0.54404,0.14558,-0.46574,-0.17748,-0.1184447187,9.5904329808,-0.4414757697,0.070860142075,0.003665179762500005,0.10445762323124999,0.13543,-0.45907,-0.36075999999999997,-5.64864,4.23648,-265.95680000000004,32.215
55729,8134187,0,-31,1334,-105,-4,-88,104,208,-779,-914,-16,1339,-38,81,113,54,251,-803,-306,-272,80,-8928,31.66,0.9887688132247716,32.77,0.998766345916605,3859.984619140625,-7606.2802734375,22.899999618530277,7.797285079956055,0,0.0,0.0,0.0,0.0,0.1583323015427031,0.0,0.0,0.0,0.0,0.0,0.0,0.0,11,0.9937675795706883,38.99974365234375,-76.10467122395833,-0.2225325018,9.5760760452,-0.753739119,-0.1148554848,9.6119683842,-0.2727817764,-0.00488690635,-0.1075119397,0.1270595651,0.09895985358750001,0.13805510438750002,0.06597323572500001,0.12064,-0.45182,-0.53012,0.14558,-0.46574,-0.17748,-0.1686939933,9.5940222147,-0.5132604477,0.047036473618750005,0.015271582343750006,0.09651640041250001,0.13311,-0.45877999999999997,-0.3538,-8.00224,2.3536,-262.66176,32.215
55730,8134337,0,-22,1332,-108,8,-94,99,238,-760,-880,-8,1334,-37,92,102,55,252,-801,-292,-256,96,-8912,31.67,0.9887688132247716,32.77,0.9986676535899334,3859.984619140625,-7606.2802734375,22.899999618530277,7.784545421600342,0,0.0,0.0,0.0,0.0,0.1583323015427031,0.0,0.0,0.0,0.0,0.0,0.0,0.0,11,0.9937182334073524,38.99974365234375,-76.10467122395833,-0.15792629160000002,9.5617191096,-0.7752745224,-0.0574277424,9.5760760452,-0.26560330860000003,0.0097738127,-0.114842299225,0.12095093216250001,0.11239884605,0.12461611192500001,0.06719496231250001,0.13804,-0.4408,-0.5104,0.14616,-0.46458,-0.16936,-0.10767701700000001,9.568897577400001,-0.5204389155,0.061086329375,0.0048869063500000046,0.09407294723750001,0.1421,-0.45269000000000004,-0.33987999999999996,-7.53152,2.82432,-262.19104000000004,32.22
55731,8134487,0,-28,1330,-102,18,-73,108,238,-760,-880,-14,1335,-35,90,117,73,230,-794,-281,-224,48,-8880,31.66,0.9885516901060942,32.79,0.9988156920799408,3859.984619140625,-7606.2802734375,22.899999618530277,7.772913455963135,0,0.0,0.0,0.0,0.0,0.1583323015427031,0.0,0.0,0.0,0.0,0.0,0.0,0.0,11,0.9936836910930176,38.99974365234375,-76.10467122395833,-0.20099709840000002,9.547362174,-0.7322037156000001,-0.10049854920000001,9.583254513,-0.251246373,0.021991078575,-0.0891860408875,0.13194647145000002,0.109955392875,0.1429420107375,0.0891860408875,0.13804,-0.4408,-0.5104,0.1334,-0.46052,-0.16298,-0.1507478238,9.5653083435,-0.4917250443000001,0.065973235725,0.026877984925000008,0.11056625616875002,0.13572,-0.45066,-0.33669,-6.59008,1.41216,-261.2496,32.225
55732,8134638,0,-30,1337,-98,10,-108,102,204,-789,-919,-15,1330,-39,96,83,73,271,-807,-301,-272,96,-9008,31.67,0.9887984209227731,32.77,0.9988156920799408,3859.984619140625,-7606.2802734375,22.899999618530277,7.791192054748535,0,0.0,0.0,0.0,0.0,0.1583323015427031,0.0,0.0,0.0,0.0,0.0,0.0,0.0,11,0.993807056501357,38.99974365234375,-76.10467122395833,-0.215354034,9.5976114486,-0.7034898444000001,-0.107677017,9.547362174,-0.2799602442,0.012217265875000001,-0.13194647145000002,0.12461611192500001,0.1172857524,0.1014033067625,0.0891860408875,0.11832,-0.45762,-0.53302,0.15718000000000001,-0.46806,-0.17458,-0.1615155255,9.5724868113,-0.4917250443,0.0647515091375,-0.015271582343750006,0.10690107640625,0.13775,-0.46284000000000003,-0.3538,-8.00224,2.82432,-265.01536,32.22
55733,8134788,0,-16,1330,-99,7,-89,88,196,-770,-924,-14,1330,-39,95,116,52,271,-807,-301,-224,160,-8880,31.67,0.9886405132000988,32.77,0.9988650382432764,3859.984619140625,-7606.2802734375,22.899999618530277,7.781221866607666,0,0.0,0.0,0.0,0.0,0.1583323015427031,0.0,0.0,0.0,0.0,0.0,0.0,0.0,11,0.9937527757216876,38.99974365234375,-76.10467122395833,-0.1148554848,9.547362174,-0.7106683122,-0.10049854920000001,9.547362174,-0.2799602442,0.008552086112500001,-0.1087336662875,0.1075119397,0.1160640258125,0.14172028415000001,0.06352978255,0.11368,-0.4466,-0.53592,0.15718000000000001,-0.46806,-0.17458,-0.10767701700000001,9.547362174,-0.4953142782,0.0623080559625,0.016493308931250006,0.085520861125,0.13543,-0.45733,-0.35524999999999995,-6.59008,4.7072,-261.2496,32.22
55734,8134939,0,-19,1336,-104,5,-88,122,228,-789,-929,-1,1334,-41,95,104,86,246,-759,-269,-224,32,-8880,31.67,0.9886799901307672,32.77,0.9988551690106094,3859.984619140625,-7606.2802734375,22.899999618530277,7.790084362030029,0,0.0,0.0,0.0,0.0,0.1583323015427031,0.0,0.0,0.0,0.0,0.0,0.0,0.0,11,0.9937675795706884,38.99974365234375,-76.10467122395833,-0.1363908882,9.590432980800001,-0.7465606512,-0.0071784678,9.5760760452,-0.2943171798,0.0061086329375000005,-0.1075119397,0.149050643675,0.1160640258125,0.1270595651,0.105068486525,0.13224,-0.45762,-0.53882,0.14268,-0.44022,-0.15602,-0.071784678,9.583254513,-0.5204389155,0.061086329375,0.009773812699999995,0.1270595651,0.13746,-0.44892,-0.34741999999999995,-6.59008,0.94144,-261.2496,32.22
55735,8135089,0,-34,1333,-107,4,-75,103,228,-789,-929,-22,1336,-44,94,127,73,257,-789,-315,-288,80,-8848,31.65,0.988906982482112,32.76,0.9987959536146064,3859.984619140625,-7606.2802734375,22.899999618530277,7.790084362030029,0,0.0,0.0,0.0,0.0,0.1583323015427031,0.0,0.0,0.0,0.0,0.0,0.0,0.0,11,0.9938514680483592,38.99974365234375,-76.10467122395833,-0.24406790520000002,9.5688975774,-0.7680960546000001,-0.15792629160000002,9.590432980800001,-0.31585258320000004,0.00488690635,-0.09162949406250001,0.1258378385125,0.114842299225,0.1551592766125,0.0891860408875,0.13224,-0.45762,-0.53882,0.14906,-0.45762,-0.1827,-0.20099709840000002,9.5796652791,-0.5419743189,0.0598646027875,0.031764891275,0.1075119397,0.14065,-0.45762,-0.36075999999999997,-8.47296,2.3536,-260.30816000000004,32.205
55736,8135239,0,-24,1330,-104,20,-109,70,212,-756,-889,-20,1335,-41,103,81,28,254,-791,-287,-160,160,-9008,31.67,0.9886799901307672,32.78,0.9988354305452752,3859.984619140625,-7606.2802734375,22.899999618530277,7.779006481170654,0,0.0,0.0,0.0,0.0,0.1583323015427031,0.0,0.0,0.0,0.0,0.0,0.0,0.0,11,0.9937577103380213,38.99974365234375,-76.10467122395833,-0.1722832272,9.547362174,-0.7465606512,-0.143569356,9.583254513,-0.2943171798,0.024434531750000002,-0.13316819803750002,0.085520861125,0.1258378385125,0.09895985358750001,0.034208344450000004,0.12296,-0.43848,-0.51562,0.14732,-0.45878,-0.16646,-0.1579262916,9.5653083435,-0.5204389155,0.07513618513125,-0.017104172225000006,0.0598646027875,0.13514,-0.44863,-0.34104,-4.7072,4.7072,-265.01536,32.225
55737,8135390,0,-12,1339,-98,11,-69,110,219,-775,-914,1,1330,-36,87,121,76,254,-791,-287,-128,80,-8880,31.65,0.988788551690106,32.77,0.9988551690106094,3859.984619140625,-7606.2802734375,22.899999618530277,7.792300224304199,0,0.0,0.0,0.0,0.0,0.1583323015427031,0.0,0.0,0.0,0.0,0.0,0.0,0.0,11,0.9938218603503577,38.99974365234375,-76.10467122395833,-0.0861416136,9.6119683842,-0.7034898444000001,0.0071784678,9.547362174,-0.2584248408,0.0134389924625,-0.0842991345375,0.13438992462500002,0.1062902131125,0.1478289170875,0.09285122065000001,0.12702,-0.4495,-0.53012,0.14732,-0.45878,-0.16646,-0.0394815729,9.5796652791,-0.4809573426,0.0598646027875,0.031764891275000005,0.11362057263750001,0.13717000000000001,-0.45414,-0.34829,-3.76576,2.3536,-261.2496,32.21
55738,8135540,0,-21,1338,-104,3,-84,157,198,-778,-906,-1,1329,-37,93,101,133,277,-764,-268,-224,144,-8992,31.65,0.988837897853442,32.77,0.9988156920799408,3859.984619140625,-7606.2802734375,22.899999618530277,7.807255268096924,0,0.0,0.0,0.0,0.0,0.1583323015427031,0.0,0.0,0.0,0.0,0.0,0.0,0.0,11,0.9938267949666915,38.99974365234375,-76.10467122395833,-0.1507478238,9.6047899164,-0.7465606512,-0.0071784678,9.5401837062,-0.26560330860000003,0.0036651797625,-0.10262503335,0.19181107423750002,0.1136205726375,0.12339438533750001,0.1624896361375,0.11484,-0.45124000000000003,-0.5254800000000001,0.16066,-0.44312,-0.15544,-0.07896314580000001,9.5724868113,-0.5060819799,0.0586428762,0.010384675993750002,0.1771503551875,0.13774999999999998,-0.44718,-0.34046000000000004,-6.59008,4.23648,-264.54464,32.21
55739,8135691,0,-56,1342,-99,-12,-56,147,198,-778,-906,-36,1332,-31,61,141,115,277,-748,-269,-272,64,-8928,31.65,0.988906982482112,32.77,0.9989933382679496,3859.984619140625,-7606.2802734375,22.899999618530277,7.790084362030029,0,0.0,0.0,0.0,0.0,0.1583323015427031,0.0,0.0,0.0,0.0,0.0,0.0,0.0,11,0.9939501603750307,38.99974365234375,-76.10467122395833,-0.40199419680000004,9.6335037876,-0.7106683122,-0.2584248408,9.5617191096,-0.2225325018,-0.01466071905,-0.06841668890000001,0.1795938083625,0.0745253218375,0.1722634488375,0.14049855756250001,0.11484,-0.45124000000000003,-0.5254800000000001,0.16066,-0.43384,-0.15602,-0.33020951880000005,9.5976114486,-0.46660040700000005,0.029932301393750003,0.051923379968749996,0.1600461829625,0.13774999999999998,-0.44254000000000004,-0.34075,-8.00224,1.88288,-262.66176,32.21
55740,8135841,0,-43,1333,-108,22,-95,38,228,-781,-891,-22,1336,-39,111,97,2,252,-799,-271,-192,176,-8912,31.66,0.9887589439921046,32.77,0.998825561312608,3859.984619140625,-7606.2802734375,22.899999618530277,7.807809352874756,0,0.0,0.0,0.0,0.0,0.1583323015427031,0.0,0.0,0.0,0.0,0.0,0.0,0.0,11,0.9937922526523564,38.99974365234375,-76.10467122395833,-0.3086741154,9.5688975774,-0.7752745224,-0.15792629160000002,9.590432980800001,-0.2799602442,0.026877984925,-0.1160640258125,0.046425610325000005,0.13561165121250002,0.11850747898750001,0.002443453175,0.13224,-0.45298,-0.51678,0.14616,-0.46342,-0.15718000000000001,-0.23330020350000003,9.5796652791,-0.5276173833,0.08124481806875,0.0012217265875000063,0.024434531750000002,0.1392,-0.4582,-0.33698,-5.64864,5.17792,-262.19104000000004,32.215
55741,8135991,0,-17,1332,-101,21,-60,96,223,-768,-890,-9,1332,-28,103,137,53,263,-761,-269,-128,112,-8992,31.67,0.9886405132000988,32.76,0.9986972612879348,3859.984619140625,-7606.2802734375,22.899999618530277,7.791192054748535,0,0.0,0.0,0.0,0.0,0.1583323015427031,0.0,0.0,0.0,0.0,0.0,0.0,0.0,11,0.9936688872440168,38.99974365234375,-76.10467122395833,-0.12203395260000001,9.5617191096,-0.7250252478,-0.0646062102,9.5617191096,-0.20099709840000002,0.0256562583375,-0.07330359525,0.1172857524,0.1258378385125,0.1673765424875,0.0647515091375,0.12934,-0.44544,-0.5162,0.15254,-0.44138,-0.15602,-0.0933200814,9.5617191096,-0.4630111731,0.07574704842499999,0.04703647361875,0.09101863076875,0.14094,-0.44340999999999997,-0.33611,-3.76576,3.29504,-264.54464,32.215
55742,8136142,0,-7,1334,-92,14,-66,92,236,-790,-908,0,1339,-24,89,140,63,263,-761,-269,-272,112,-8960,31.65,0.9887984209227731,32.76,0.9990032075006168,3859.984619140625,-7606.2802734375,22.899999618530277,7.791746139526367,0,0.0,0.0,0.0,0.0,0.1583323015427031,0.0,0.0,0.0,0.0,0.0,0.0,0.0,11,0.993900814211695,38.99974365234375,-76.10467122395833,-0.050249274600000005,9.5760760452,-0.6604190376,0.0,9.6119683842,-0.1722832272,0.017104172225000002,-0.080633954775,0.11239884605,0.1087336662875,0.17104172225,0.0769687750125,0.13688,-0.4582,-0.52664,0.15254,-0.44138,-0.15602,-0.025124637300000002,9.5940222147,-0.4163511324,0.06291891925625,0.0452038837375,0.09468381053125,0.14471,-0.44979,-0.34133,-8.00224,3.29504,-263.6032,32.205
55743,8136292,0,-32,1334,-102,-6,-96,110,236,-790,-908,-17,1328,-31,97,96,78,278,-757,-254,-240,128,-8960,31.65,0.988788551690106,32.77,0.9988847767086108,3859.984619140625,-7606.2802734375,22.899999618530277,7.78399133682251,0,0.0,0.0,0.0,0.0,0.1583323015427031,0.0,0.0,0.0,0.0,0.0,0.0,0.0,11,0.9938366641993583,38.99974365234375,-76.10467122395833,-0.2297109696,9.5760760452,-0.7322037156000001,-0.12203395260000001,9.533005238400001,-0.2225325018,-0.007330359525,-0.1172857524,0.13438992462500002,0.11850747898750001,0.1172857524,0.09529467382500001,0.13688,-0.4582,-0.52664,0.16124,-0.43906,-0.14732,-0.17587246110000002,9.554540641800001,-0.4773681087,0.05558855973125001,0.0,0.11484229922500001,0.14906,-0.44863,-0.33698,-7.0608,3.76576,-263.6032,32.21
55744,8136442,0,-39,1334,-98,20,-61,111,232,-766,-930,-21,1336,-33,108,133,77,267,-764,-275,-208,160,-8944,31.65,0.9886997285961016,32.76,0.998953861337281,3859.984619140625,-7606.2802734375,22.899999618530277,7.790084362030029,0,0.0,0.0,0.0,0.0,0.1583323015427031,0.0,0.0,0.0,0.0,0.0,0.0,0.0,11,0.9938267949666912,38.99974365234375,-76.10467122395833,-0.2799602442,9.5760760452,-0.7034898444000001,-0.1507478238,9.590432980800001,-0.2368894374,0.024434531750000002,-0.0745253218375,0.13561165121250002,0.13194647145000002,0.1624896361375,0.09407294723750001,0.13456,-0.44428,-0.5394,0.15486,-0.44312,-0.1595,-0.215354034,9.583254513,-0.47018964090000004,0.07819050160000002,0.04398215715,0.11484229922500001,0.14471,-0.4437,-0.34945,-6.11936,4.7072,-263.13248,32.205
55745,8136592,0,-26,1333,-90,11,-92,79,205,-785,-881,-7,1336,-29,99,113,39,222,-783,-245,-176,128,-8976,31.65,0.988837897853442,32.77,0.9989242536392796,3859.984619140625,-7606.2802734375,22.899999618530277,7.790638446807861,0,0.0,0.0,0.0,0.0,0.1583323015427031,0.0,0.0,0.0,0.0,0.0,0.0,0.0,11,0.9938810757463608,38.99974365234375,-76.10467122395833,-0.1866401628,9.5688975774,-0.646062102,-0.050249274600000005,9.590432980800001,-0.2081755662,0.0134389924625,-0.11239884605,0.09651640041250001,0.12095093216250001,0.13805510438750002,0.047647336912500005,0.1189,-0.4553,-0.51098,0.12876,-0.45414,-0.1421,-0.1184447187,9.5796652791,-0.4271188341,0.06719496231250001,0.012828129168750008,0.0720818686625,0.12383000000000001,-0.45472,-0.32654,-5.17792,3.76576,-264.07392000000004,32.21
55746,8136742,0,-16,1327,-100,6,-84,117,218,-771,-904,-6,1332,-36,78,115,87,222,-783,-245,-192,128,-8896,31.66,0.9888675055514434,32.75,0.9989242536392796,3859.984619140625,-7606.2802734375,22.899999618530277,7.791192054748535,0,0.0,0.0,0.0,0.0,0.1583323015427031,0.0,0.0,0.0,0.0,0.0,0.0,0.0,11,0.9938958795953615,38.99974365234375,-76.10467122395833,-0.1148554848,9.5258267706,-0.71784678,-0.0430708068,9.5617191096,-0.2584248408,0.007330359525,-0.10262503335,0.1429420107375,0.09529467382500001,0.14049855756250001,0.1062902131125,0.12644,-0.44718,-0.52432,0.12876,-0.45414,-0.1421,-0.0789631458,9.5437729401,-0.4881358104,0.051312516675,0.018936762106250005,0.12461611192500001,0.1276,-0.45066,-0.33321,-5.64864,3.76576,-261.72032,32.205
55747,8136893,0,-25,1336,-103,2,-53,161,218,-771,-904,-14,1330,-42,81,145,133,259,-795,-268,-176,192,-9040,31.66,0.988966197878115,32.76,0.998894645941278,3859.984619140625,-7606.2802734375,22.899999618530277,7.791746139526367,0,0.0,0.0,0.0,0.0,0.1583323015427031,0.0,0.0,0.0,0.0,0.0,0.0,0.0,11,0.9939304219096965,38.99974365234375,-76.10467122395833,-0.179461695,9.590432980800001,-0.7393821834000001,-0.10049854920000001,9.547362174,-0.3014956476,0.002443453175,-0.0647515091375,0.19669798058750002,0.09895985358750001,0.1771503551875,0.1624896361375,0.12644,-0.44718,-0.52432,0.15022,-0.4611,-0.15544,-0.1399801221,9.568897577400001,-0.5204389155,0.05070165338125,0.056199423025,0.1795938083625,0.13833,-0.45414,-0.33988,-5.17792,5.64864,-265.95680000000004,32.21
55748,8137043,0,-46,1333,-108,-18,-23,122,204,-790,-896,-38,1334,-45,70,159,92,249,-779,-242,-336,80,-8864,31.65,0.9887984209227731,32.76,0.998953861337281,3859.984619140625,-7606.2802734375,22.899999618530277,7.796731472015381,0,0.0,0.0,0.0,0.0,0.1583323015427031,0.0,0.0,0.0,0.0,0.0,0.0,0.0,11,0.9938761411300271,38.99974365234375,-76.10467122395833,-0.3302095188,9.5688975774,-0.7752745224,-0.2727817764,9.5760760452,-0.323031051,-0.021991078575,-0.0280997115125,0.149050643675,0.085520861125,0.19425452741250002,0.11239884605,0.11832,-0.4582,-0.51968,0.14442,-0.45182,-0.14036,-0.3014956476,9.5724868113,-0.5491527867,0.031764891275,0.08307740795000002,0.13072474486250002,0.13137,-0.45501,-0.33002000000000004,-9.88512,2.3536,-260.77888,32.205
55749,8137193,0,-42,1331,-113,11,-58,69,218,-793,-912,-23,1326,-46,103,116,44,235,-792,-265,-224,64,-8896,31.65,0.9886799901307672,32.76,0.9988452997779422,3859.984619140625,-7606.2802734375,22.899999618530277,7.781775951385498,0,0.0,0.0,0.0,0.0,0.1583323015427031,0.0,0.0,0.0,0.0,0.0,0.0,0.0,11,0.9937626449543547,38.99974365234375,-76.10467122395833,-0.3014956476,9.554540641800001,-0.8111668614,-0.1651047594,9.5186483028,-0.3302095188,0.0134389924625,-0.07086014207500001,0.0842991345375,0.1258378385125,0.14172028415000001,0.05375596985,0.12644,-0.45994,-0.52896,0.1363,-0.45936,-0.1537,-0.23330020350000003,9.536594472300001,-0.5706881901,0.0696384154875,0.035430071037500004,0.06902755219375001,0.13137,-0.45965,-0.34133,-6.59008,1.88288,-261.72032,32.205
55750,8137344,0,-14,1338,-96,39,-54,36,210,-765,-884,2,1334,-24,128,144,3,235,-792,-265,-144,192,-8992,31.65,0.988837897853442,32.77,0.9990426844312856,3859.984619140625,-7606.2802734375,22.899999618530277,7.781775951385498,0,0.0,0.0,0.0,0.0,0.1583323015427031,0.0,0.0,0.0,0.0,0.0,0.0,0.0,11,0.9939402911423638,38.99974365234375,-76.10467122395833,-0.10049854920000001,9.6047899164,-0.6891329088,0.0143569356,9.5760760452,-0.1722832272,0.047647336912500005,-0.06597323572500001,0.04398215715,0.1563810032,0.1759286286,0.0036651797625,0.1218,-0.4437,-0.51272,0.1363,-0.45936,-0.1537,-0.04307080680000001,9.5904329808,-0.430708068,0.10201417005625,0.054977696437499994,0.02382366845625,0.12905,-0.45153,-0.33321,-4.23648,5.64864,-264.54464,32.21
55751,8137494,0,-19,1337,-96,7,-113,140,210,-765,-884,-5,1329,-26,94,69,106,239,-762,-257,-208,48,-8944,31.65,0.988837897853442,32.76,0.9990032075006168,3859.984619140625,-7606.2802734375,22.899999618530277,7.798393249511719,0,0.0,0.0,0.0,0.0,0.1583323015427031,0.0,0.0,0.0,0.0,0.0,0.0,0.0,11,0.9939205526770294,38.99974365234375,-76.10467122395833,-0.1363908882,9.5976114486,-0.6891329088,-0.035892339,9.5401837062,-0.1866401628,0.008552086112500001,-0.13805510438750002,0.17104172225,0.114842299225,0.0842991345375,0.129503018275,0.1218,-0.4437,-0.51272,0.13862,-0.44196,-0.14906,-0.0861416136,9.568897577400001,-0.43788653580000003,0.06169719266875,-0.026877984925000008,0.1502723702625,0.13021,-0.44283,-0.33088999999999996,-6.11936,1.41216,-263.13248,32.205
55752,8137645,0,-47,1333,-118,-2,-21,86,222,-754,-916,-26,1328,-51,92,163,53,247,-784,-265,-112,128,-8944,31.65,0.988837897853442,32.76,0.998953861337281,3859.984619140625,-7606.2802734375,22.899999618530277,7.786761283874512,0,0.0,0.0,0.0,0.0,0.1583323015427031,0.0,0.0,0.0,0.0,0.0,0.0,0.0,11,0.9938958795953615,38.99974365234375,-76.10467122395833,-0.3373879866,9.5688975774,-0.8470592004,-0.1866401628,9.533005238400001,-0.36610185780000004,-0.002443453175,-0.0256562583375,0.105068486525,0.11239884605,0.19914143376250001,0.0647515091375,0.12876,-0.43732,-0.53128,0.14326,-0.45472,-0.1537,-0.26201407470000004,9.550951407900001,-0.6065805291,0.0549776964375,0.08674258771250001,0.08490999783125,0.13601000000000002,-0.44601999999999997,-0.34248999999999996,-3.29504,3.76576,-263.13248,32.205
55753,8137795,0,-24,1329,-101,-2,-89,107,213,-776,-867,-8,1332,-45,91,105,64,249,-770,-278,-208,64,-8944,31.65,0.9888971132494448,32.76,0.9986873920552676,3859.984619140625,-7606.2802734375,22.899999618530277,7.785653114318848,0,0.0,0.0,0.0,0.0,0.1583323015427031,0.0,0.0,0.0,0.0,0.0,0.0,0.0,11,0.9937922526523562,38.99974365234375,-76.10467122395833,-0.1722832272,9.5401837062,-0.7250252478,-0.0574277424,9.5617191096,-0.323031051,-0.002443453175,-0.1087336662875,0.13072474486250002,0.1111771194625,0.1282812916875,0.0781905016,0.12354,-0.45008,-0.50286,0.14442,-0.4466,-0.16124,-0.1148554848,9.550951407900001,-0.5240281494,0.05436683314375,0.009773812699999995,0.10445762323125002,0.13398,-0.44833999999999996,-0.33204999999999996,-6.11936,1.88288,-263.13248,32.205
55754,8137945,0,-24,1334,-102,-7,-111,112,206,-761,-869,-6,1334,-32,82,80,75,249,-770,-278,-272,112,-8896,31.66,0.988719467061436,32.75,0.9989735998026154,3859.984619140625,-7606.2802734375,22.899999618530277,7.775682926177978,0,0.0,0.0,0.0,0.0,0.1583323015427031,0.0,0.0,0.0,0.0,0.0,0.0,0.0,11,0.9938465334320257,38.99974365234375,-76.10467122395833,-0.1722832272,9.5760760452,-0.7322037156000001,-0.0430708068,9.5760760452,-0.2297109696,-0.008552086112500001,-0.13561165121250002,0.13683337780000002,0.100181580175,0.09773812700000001,0.09162949406250001,0.11948,-0.44138,-0.50402,0.14442,-0.4466,-0.16124,-0.107677017,9.5760760452,-0.48095734260000006,0.045814747031250005,-0.018936762106250005,0.11423143593125001,0.13195,-0.44399,-0.33263,-8.00224,3.29504,-261.72032,32.205
55755,8138096,0,-36,1334,-110,2,-74,112,206,-761,-869,-11,1330,-45,88,125,88,261,-758,-291,-272,48,-8896,31.66,0.9887688132247716,32.76,0.999013076733284,3859.984619140625,-7606.2802734375,22.899999618530277,7.784545421600342,0,0.0,0.0,0.0,0.0,0.1583323015427031,0.0,0.0,0.0,0.0,0.0,0.0,0.0,11,0.9938909449790279,38.99974365234375,-76.10467122395833,-0.2584248408,9.5760760452,-0.789631458,-0.07896314580000001,9.547362174,-0.323031051,0.002443453175,-0.090407767475,0.13683337780000002,0.1075119397,0.1527158234375,0.1075119397,0.11948,-0.44138,-0.50402,0.15138000000000001,-0.43964,-0.16878,-0.1686939933,9.5617191096,-0.5563312545,0.0549776964375,0.031154027981250006,0.12217265875000001,0.13543,-0.44050999999999996,-0.33640000000000003,-8.00224,1.41216,-261.72032,32.21
55756,8138246,0,-38,1339,-102,23,-29,98,194,-763,-893,-33,1336,-32,103,164,65,255,-768,-305,-192,144,-8976,31.65,0.9888971132494448,32.76,0.9990722921292868,3859.984619140625,-7606.2802734375,22.899999618530277,7.785099506378174,0,0.0,0.0,0.0,0.0,0.1583323015427031,0.0,0.0,0.0,0.0,0.0,0.0,0.0,11,0.9939847026893658,38.99974365234375,-76.10467122395833,-0.2727817764,9.6119683842,-0.7322037156000001,-0.2368894374,9.590432980800001,-0.2297109696,0.0280997115125,-0.035430071037500004,0.11972920557500001,0.1258378385125,0.20036316035,0.0794122281875,0.11252,-0.44254,-0.51794,0.1479,-0.44544,-0.1769,-0.2548356069,9.6012006825,-0.48095734260000006,0.07696877501249999,0.08246654465625,0.09957071688125001,0.13021,-0.44399,-0.34741999999999995,-5.64864,4.23648,-264.07392000000004,32.205
55757,8138397,0,-18,1335,-84,9,-232,56,197,-756,-906,-9,1335,-28,119,-25,14,222,-777,-259,-224,96,-9056,31.66,0.9885615593387614,32.76,0.998756476683938,3859.984619140625,-7606.2802734375,22.899999618530277,7.792300224304199,0,0.0,0.0,0.0,0.0,0.1583323015427031,0.0,0.0,0.0,0.0,0.0,0.0,0.0,11,0.9936590180113497,38.99974365234375,-76.10467122395833,-0.1292124204,9.583254513,-0.6029912952,-0.0646062102,9.583254513,-0.20099709840000002,0.0109955392875,-0.28344056830000003,0.06841668890000001,0.1453854639125,-0.030543164687500002,0.017104172225000002,0.11426,-0.43848,-0.5254800000000001,0.12876,-0.45066,-0.15022,-0.09690931529999999,9.583254513,-0.40199419680000004,0.0781905016,-0.15699186649375002,0.04276043056250001,0.12151,-0.44457,-0.33785000000000004,-6.59008,2.82432,-266.42752,32.21
55758,8138547,0,-14,1332,-111,25,4,74,199,-800,-879,-4,1329,-40,115,203,45,222,-777,-259,-224,96,-8944,31.66,0.9888773747841104,32.77,0.9989933382679496,3859.984619140625,-7606.2802734375,22.899999618530277,7.762943267822266,0,0.0,0.0,0.0,0.0,0.1583323015427031,0.0,0.0,0.0,0.0,0.0,0.0,0.0,11,0.99393535652603,38.99974365234375,-76.10467122395833,-0.10049854920000001,9.5617191096,-0.7968099258,-0.0287138712,9.5401837062,-0.287138712,0.030543164687500002,0.00488690635,0.090407767475,0.14049855756250001,0.24801049726250002,0.0549776964375,0.11542,-0.464,-0.50982,0.12876,-0.45066,-0.15022,-0.0646062102,9.550951407900001,-0.5419743189,0.08552086112500001,0.12644870180625,0.07269273195625,0.12209,-0.45733,-0.33002000000000004,-6.59008,2.82432,-263.13248,32.215
55759,8138697,0,-40,1339,-91,17,-141,113,199,-800,-879,-18,1338,-28,97,50,72,274,-791,-257,-208,144,-9040,31.66,0.9888773747841104,32.77,0.9989341228719468,3859.984619140625,-7606.2802734375,22.899999618530277,7.802270412445068,0,0.0,0.0,0.0,0.0,0.1583323015427031,0.0,0.0,0.0,0.0,0.0,0.0,0.0,11,0.9939057488280286,38.99974365234375,-76.10467122395833,-0.287138712,9.6119683842,-0.6532405698,-0.1292124204,9.6047899164,-0.20099709840000002,0.0207693519875,-0.1722634488375,0.13805510438750002,0.11850747898750001,0.061086329375000005,0.0879643143,0.11542,-0.464,-0.50982,0.15892,-0.45878,-0.14906,-0.2081755662,9.6083791503,-0.4271188341,0.06963841548750001,-0.05558855973125,0.11300970934375001,0.13717000000000001,-0.46139,-0.32944,-6.11936,4.23648,-265.95680000000004,32.215
55760,8138850,0,-34,1331,-93,-3,-88,85,235,-765,-882,-18,1335,-24,82,109,53,250,-779,-309,-176,208,-8976,31.65,0.9887293362941032,32.77,0.9988847767086108,3859.98486328125,-7606.2802734375,22.899999618530277,7.78011417388916,0,0.0,0.0,0.0,0.0,0.1583323015427031,0.0,0.0,0.0,0.0,0.0,0.0,0.0,11,0.993807056501357,38.99974772135417,-76.10467122395833,-0.24406790520000002,9.554540641800001,-0.6675975054000001,-0.1292124204,9.583254513,-0.1722832272,-0.0036651797625,-0.1075119397,0.1038467599375,0.100181580175,0.13316819803750002,0.0647515091375,0.1363,-0.4437,-0.51156,0.145,-0.45182,-0.17922,-0.1866401628,9.568897577400001,-0.41994036630000003,0.048258200206250004,0.012828129168750008,0.0842991345375,0.14065,-0.44776,-0.34539,-5.17792,6.11936,-264.07392000000004,32.21
55761,8138999,0,-31,1334,-108,19,-65,57,233,-774,-875,-19,1335,-34,90,127,27,274,-752,-275,-304,48,-8896,31.65,0.9886997285961016,32.76,0.9987367382186036,3859.98486328125,-7606.2802734375,22.899999618530277,7.754080772399902,0,0.0,0.0,0.0,0.0,0.1583323015427031,0.0,0.0,0.0,0.0,0.0,0.0,0.0,11,0.9937182334073527,38.99974772135417,-76.10467122395833,-0.2225325018,9.5760760452,-0.7752745224,-0.1363908882,9.583254513,-0.24406790520000002,0.023212805162500003,-0.0794122281875,0.06963841548750001,0.109955392875,0.1551592766125,0.032986617862500005,0.13514,-0.44892,-0.5075,0.15892,-0.43616,-0.1595,-0.179461695,9.5796652791,-0.5096712138,0.06658409901875001,0.0378735242125,0.051312516675,0.14703,-0.44254,-0.33349999999999996,-8.94368,1.41216,-261.72032,32.205
55762,8139150,0,-28,1336,-83,17,-104,84,223,-791,-901,-8,1331,-16,98,81,61,237,-776,-317,-192,176,-9008,31.64,0.9887095978287688,32.75,0.9989735998026154,3859.98486328125,-7606.2802734375,22.899999618530277,7.792300224304199,0,0.0,0.0,0.0,0.0,0.1583323015427031,0.0,0.0,0.0,0.0,0.0,0.0,0.0,11,0.9938415988156921,38.99974772135417,-76.10467122395833,-0.20099709840000002,9.590432980800001,-0.5958128274000001,-0.0574277424,9.554540641800001,-0.1148554848,0.0207693519875,-0.1270595651,0.10262503335,0.11972920557500001,0.09895985358750001,0.0745253218375,0.12934,-0.45878,-0.52258,0.13746,-0.45008,-0.18386,-0.1292124204,9.572486811300001,-0.3553341561,0.07024927878125001,-0.014049855756249993,0.08857517759375,0.13340000000000002,-0.45443,-0.35322000000000003,-5.64864,5.17792,-265.01536,32.195
55763,8139300,0,-10,1338,-87,1,-76,108,223,-791,-901,2,1330,-28,87,120,68,237,-776,-317,-256,96,-8832,31.64,0.988719467061436,32.77,0.9987268689859364,3859.98486328125,-7606.2802734375,22.899999618530277,7.77623701095581,0,0.0,0.0,0.0,0.0,0.1583323015427031,0.0,0.0,0.0,0.0,0.0,0.0,0.0,11,0.9937231680236862,38.99974772135417,-76.10467122395833,-0.071784678,9.6047899164,-0.6245266986,0.0143569356,9.547362174,-0.20099709840000002,0.0012217265875,-0.09285122065000001,0.13194647145000002,0.1062902131125,0.1466071905,0.08307740795,0.12934,-0.45878,-0.52258,0.13746,-0.45008,-0.18386,-0.0287138712,9.5760760452,-0.4127618985,0.05375596985,0.026877984925,0.1075119397,0.13340000000000002,-0.45443,-0.35322000000000003,-7.53152,2.82432,-259.83744,32.205
55764,8139450,0,-24,1328,-113,-8,-78,159,241,-779,-893,-7,1330,-42,85,130,136,219,-789,-299,-224,32,-8944,31.66,0.988719467061436,32.75,0.9990032075006168,3859.98486328125,-7606.2802734375,22.899999618530277,7.787868976593018,0,0.0,0.0,0.0,0.0,0.1583323015427031,0.0,0.0,0.0,0.0,0.0,0.0,0.0,11,0.9938613372810263,38.99974772135417,-76.10467122395833,-0.1722832272,9.533005238400001,-0.8111668614,-0.050249274600000005,9.547362174,-0.3014956476,-0.0097738127,-0.09529467382500001,0.19425452741250002,0.1038467599375,0.158824456375,0.1661548159,0.13978,-0.45182,-0.51794,0.12702,-0.45762,-0.17342,-0.1112662509,9.5401837062,-0.5563312545000001,0.047036473618750005,0.031764891275,0.18020467165625,0.1334,-0.45472,-0.34568,-6.59008,0.94144,-263.13248,32.205
55765,8139601,0,-58,1336,-98,-1,-28,120,228,-770,-893,-40,1332,-33,83,164,79,235,-798,-287,-192,176,-8992,31.64,0.9888181593881076,32.77,0.9989735998026154,3859.98486328125,-7606.2802734375,22.899999618530277,7.797285079956055,0,0.0,0.0,0.0,0.0,0.1583323015427031,0.0,0.0,0.0,0.0,0.0,0.0,0.0,11,0.9938958795953614,38.99974772135417,-76.10467122395833,-0.4163511324,9.590432980800001,-0.7034898444000001,-0.287138712,9.5617191096,-0.2368894374,-0.0012217265875,-0.034208344450000004,0.1466071905,0.1014033067625,0.20036316035,0.09651640041250001,0.13224,-0.4466,-0.51794,0.1363,-0.46284000000000003,-0.16646,-0.3517449222,9.5760760452,-0.47018964090000004,0.0500907900875,0.08307740795,0.12156179545625001,0.13427,-0.45472,-0.34219999999999995,-5.64864,5.17792,-264.54464,32.205
55766,8139751,0,-35,1335,-101,20,-31,53,224,-819,-919,-17,1338,-36,91,146,15,278,-755,-290,-304,80,-8880,31.66,0.9888773747841104,32.76,0.998963730569948,3859.98486328125,-7606.2802734375,22.899999618530277,7.807809352874756,0,0.0,0.0,0.0,0.0,0.1583323015427031,0.0,0.0,0.0,0.0,0.0,0.0,0.0,11,0.9939205526770292,38.99974772135417,-76.10467122395833,-0.251246373,9.583254513,-0.7250252478,-0.12203395260000001,9.6047899164,-0.2584248408,0.024434531750000002,-0.0378735242125,0.0647515091375,0.1111771194625,0.178372081775,0.0183258988125,0.12992,-0.47502,-0.53302,0.16124,-0.4379,-0.1682,-0.1866401628,9.5940222147,-0.49172504429999997,0.06780582560625001,0.07024927878125,0.041538703975,0.14558,-0.45646,-0.35061000000000003,-8.94368,2.3536,-261.2496,32.21
55767,8139901,0,-7,1333,-109,18,-124,83,224,-819,-919,5,1333,-42,95,68,53,278,-755,-290,-192,160,-8992,31.65,0.9886799901307672,32.76,0.9986873920552676,3859.98486328125,-7606.2802734375,22.899999618530277,7.796731472015381,0,0.0,0.0,0.0,0.0,0.1583323015427031,0.0,0.0,0.0,0.0,0.0,0.0,0.0,11,0.9936836910930174,38.99974772135417,-76.10467122395833,-0.050249274600000005,9.5688975774,-0.7824529902,0.035892339,9.5688975774,-0.3014956476,0.021991078575,-0.15149409685,0.1014033067625,0.1160640258125,0.08307740795,0.0647515091375,0.12992,-0.47502,-0.53302,0.16124,-0.4379,-0.1682,-0.007178467800000001,9.5688975774,-0.5419743189,0.06902755219375,-0.034208344450000004,0.08307740795,0.14558,-0.45646,-0.35061000000000003,-5.64864,4.7072,-264.54464,32.205
55768,8140052,0,-35,1339,-95,-3,-56,172,194,-783,-914,-22,1332,-31,80,147,137,256,-780,-275,-288,96,-8880,31.66,0.9887095978287688,32.75,0.9989242536392796,3859.98486328125,-7606.2802734375,22.899999618530277,7.790084362030029,0,0.0,0.0,0.0,0.0,0.1583323015427031,0.0,0.0,0.0,0.0,0.0,0.0,0.0,11,0.9938169257340241,38.99974772135417,-76.10467122395833,-0.251246373,9.6119683842,-0.681954441,-0.15792629160000002,9.5617191096,-0.2225325018,-0.0036651797625,-0.06841668890000001,0.21013697305,0.09773812700000001,0.1795938083625,0.1673765424875,0.11252,-0.45414,-0.53012,0.14848,-0.4524,-0.1595,-0.2045863323,9.586843746900001,-0.4522434714,0.047036473618750005,0.055588559731249994,0.18875675776875,0.1305,-0.45327,-0.34481,-8.47296,2.82432,-261.2496,32.205
55769,8140202,0,-47,1327,-113,24,-121,80,243,-786,-904,-34,1324,-42,113,63,38,266,-778,-272,-240,80,-8928,31.66,0.9886701208981,32.77,0.9988847767086108,3859.98486328125,-7606.2802734375,22.899999618530277,7.808363437652588,0,0.0,0.0,0.0,0.0,0.1583323015427031,0.0,0.0,0.0,0.0,0.0,0.0,0.0,11,0.9937774488033554,38.99974772135417,-76.10467122395833,-0.3373879866,9.5258267706,-0.8111668614,-0.24406790520000002,9.5042913672,-0.3014956476,0.0293214381,-0.1478289170875,0.09773812700000001,0.13805510438750002,0.0769687750125,0.046425610325000005,0.14094,-0.45588,-0.52432,0.15428,-0.45124000000000003,-0.15776,-0.2907279459,9.515059068900001,-0.5563312545000001,0.08368827124375,-0.035430071037500004,0.0720818686625,0.14761000000000002,-0.45356,-0.34104,-7.0608,2.3536,-262.66176,32.215
55770,8140353,0,-25,1339,-118,21,-88,44,222,-790,-897,-13,1334,-46,106,106,12,246,-784,-264,-288,128,-8960,31.65,0.9886799901307672,32.76,0.9989143844066124,3859.98486328125,-7606.2802734375,22.899999618530277,7.790084362030029,0,0.0,0.0,0.0,0.0,0.1583323015427031,0.0,0.0,0.0,0.0,0.0,0.0,0.0,11,0.9937971872686898,38.99974772135417,-76.10467122395833,-0.179461695,9.6119683842,-0.8470592004,-0.0933200814,9.5760760452,-0.3302095188,0.0256562583375,-0.1075119397,0.05375596985,0.129503018275,0.129503018275,0.01466071905,0.12876,-0.4582,-0.5202600000000001,0.14268,-0.45472,-0.15312,-0.1363908882,9.5940222147,-0.5886343596,0.07757963830625,0.010995539287499995,0.03420834445,0.13572,-0.45646,-0.33669000000000004,-8.47296,3.76576,-263.6032,32.205
55771,8140503,0,-4,1332,-107,13,-81,98,222,-790,-897,4,1333,-38,81,115,52,246,-784,-264,-192,64,-9008,31.65,0.9888576363187762,32.75,0.9988452997779422,3859.98486328125,-7606.2802734375,22.899999618530277,7.794515609741211,0,0.0,0.0,0.0,0.0,0.1583323015427031,0.0,0.0,0.0,0.0,0.0,0.0,0.0,11,0.9938514680483592,38.99974772135417,-76.10467122395833,-0.0287138712,9.5617191096,-0.7680960546000001,0.0287138712,9.5688975774,-0.2727817764,0.0158824456375,-0.09895985358750001,0.11972920557500001,0.09895985358750001,0.14049855756250001,0.06352978255,0.12876,-0.4582,-0.5202600000000001,0.14268,-0.45472,-0.15312,0.0,9.5653083435,-0.5204389155,0.0574211496125,0.020769351987500004,0.09162949406250001,0.13572,-0.45646,-0.33669000000000004,-5.64864,1.88288,-265.01536,32.2
55772,8140653,0,-26,1334,-110,-18,-55,143,209,-780,-888,-8,1331,-41,82,144,115,269,-775,-285,-272,80,-8880,31.65,0.988837897853442,32.76,0.9991216382926228,3859.98486328125,-7606.2802734375,22.899999618530277,7.783437728881836,0,0.0,0.0,0.0,0.0,0.1583323015427031,0.0,0.0,0.0,0.0,0.0,0.0,0.0,11,0.9939797680730325,38.99974772135417,-76.10467122395833,-0.1866401628,9.5760760452,-0.789631458,-0.0574277424,9.554540641800001,-0.2943171798,-0.021991078575,-0.06719496231250001,0.1747069020125,0.100181580175,0.1759286286,0.14049855756250001,0.12122,-0.4524,-0.51504,0.15602,-0.4495,-0.1653,-0.12203395260000001,9.5653083435,-0.5419743189,0.0390952508,0.054366833143749994,0.1576027297875,0.13862,-0.45095,-0.34017000000000003,-8.00224,2.3536,-261.2496,32.205
55773,8140804,0,-44,1329,-117,-6,-50,131,225,-750,-913,-27,1328,-49,85,138,96,264,-791,-261,-176,128,-8976,31.65,0.9890155440414508,32.77,0.998825561312608,3859.98486328125,-7606.2802734375,22.899999618530277,7.788976669311523,0,0.0,0.0,0.0,0.0,0.1583323015427031,0.0,0.0,0.0,0.0,0.0,0.0,0.0,11,0.9939205526770294,38.99974772135417,-76.10467122395833,-0.31585258320000004,9.5401837062,-0.8398807326000001,-0.1938186306,9.533005238400001,-0.35174492220000003,-0.007330359525,-0.061086329375000005,0.1600461829625,0.1038467599375,0.168598269075,0.1172857524,0.1305,-0.435,-0.52954,0.15312,-0.45878,-0.15138000000000001,-0.2548356069,9.536594472300001,-0.5958128274000001,0.048258200206250004,0.05375596985,0.13866596768125,0.14181,-0.44689,-0.34046,-5.17792,3.76576,-264.07392000000004,32.21
55774,8140954,0,-46,1330,-97,35,-106,58,194,-757,-909,-30,1333,-35,119,74,23,231,-775,-251,-240,112,-8912,31.65,0.9887490747594374,32.75,0.9989242536392796,3859.98486328125,-7606.2802734375,22.899999618530277,7.780668258666992,0,0.0,0.0,0.0,0.0,0.1583323015427031,0.0,0.0,0.0,0.0,0.0,0.0,0.0,11,0.9938366641993586,38.99974772135417,-76.10467122395833,-0.3302095188,9.547362174,-0.6963113766,-0.215354034,9.5688975774,-0.251246373,0.0427604305625,-0.129503018275,0.07086014207500001,0.1453854639125,0.090407767475,0.0280997115125,0.11252,-0.43906,-0.52722,0.13398,-0.4495,-0.14558,-0.2727817764,9.5581298757,-0.4737788748,0.09407294723750001,-0.019547625399999997,0.049479926793750004,0.12325,-0.44428,-0.33640000000000003,-7.0608,3.29504,-262.19104000000004,32.2
55775,8141105,0,-22,1332,-105,3,-42,88,194,-757,-909,2,1335,-41,85,148,67,231,-775,-251,-192,112,-8976,31.64,0.9888675055514434,32.77,0.9989933382679496,3859.98486328125,-7606.2802734375,22.899999618530277,7.783437728881836,0,0.0,0.0,0.0,0.0,0.1583323015427031,0.0,0.0,0.0,0.0,0.0,0.0,0.0,11,0.9939304219096965,38.99974772135417,-76.10467122395833,-0.15792629160000002,9.5617191096,-0.753739119,0.0143569356,9.583254513,-0.2943171798,0.0036651797625,-0.051312516675,0.1075119397,0.1038467599375,0.18081553495,0.0818556813625,0.11252,-0.43906,-0.52722,0.13398,-0.4495,-0.14558,-0.071784678,9.5724868113,-0.5240281494,0.05375596985,0.0647515091375,0.09468381053125,0.12325,-0.44428,-0.33640000000000003,-5.64864,3.29504,-264.07392000000004,32.205
55776,8141255,0,-29,1340,-108,7,-82,129,231,-780,-886,-13,1338,-38,102,127,94,260,-769,-313,-272,144,-8912,31.65,0.988788551690106,32.75,0.9990328151986184,3859.98486328125,-7606.2802734375,22.899999618530277,7.784545421600342,0,0.0,0.0,0.0,0.0,0.1583323015427031,0.0,0.0,0.0,0.0,0.0,0.0,0.0,11,0.9939106834443623,38.99974772135417,-76.10467122395833,-0.2081755662,9.619146852,-0.7752745224,-0.0933200814,9.6047899164,-0.2727817764,0.008552086112500001,-0.100181580175,0.1576027297875,0.12461611192500001,0.1551592766125,0.114842299225,0.13398,-0.4524,-0.51388,0.1508,-0.44602,-0.18154,-0.1507478238,9.6119683842,-0.5240281494000001,0.06658409901875001,0.02748884821875,0.13622251450625,0.14239,-0.44921,-0.34771,-8.00224,4.23648,-262.19104000000004,32.2
55777,8141405,0,-42,1334,-103,1,-151,96,186,-792,-877,-23,1332,-39,95,49,60,262,-773,-263,-256,160,-8896,31.64,0.9887589439921046,32.75,0.9990032075006168,3859.98486328125,-7606.2802734375,22.899999618530277,7.791192054748535,0,0.0,0.0,0.0,0.0,0.1583323015427031,0.0,0.0,0.0,0.0,0.0,0.0,0.0,11,0.9938810757463608,38.99974772135417,-76.10467122395833,-0.3014956476,9.5760760452,-0.7393821834000001,-0.1651047594,9.5617191096,-0.2799602442,0.0012217265875,-0.18448071471250002,0.1172857524,0.1160640258125,0.059864602787500006,0.07330359525,0.10788,-0.45936,-0.50866,0.15196,-0.44834,-0.15254,-0.23330020350000003,9.568897577400001,-0.5096712138,0.0586428762,-0.06230805596250001,0.09529467382500001,0.12992,-0.45385,-0.3306,-7.53152,4.7072,-261.72032,32.195
55778,8141556,0,-31,1334,-103,8,-123,76,214,-781,-915,-9,1332,-40,92,71,42,242,-745,-269,-176,112,-8992,31.65,0.9889958055761164,32.75,0.9989735998026154,3859.98486328125,-7606.2802734375,23.0,7.784545421600342,0,0.0,0.0,0.0,0.0,0.1583323015427031,0.0,0.0,0.0,0.0,0.0,0.0,0.0,11,0.9939847026893659,38.99974772135417,-76.10467122395833,-0.2225325018,9.5760760452,-0.7393821834000001,-0.0646062102,9.5617191096,-0.287138712,0.0097738127,-0.1502723702625,0.09285122065000001,0.11239884605,0.0867425877125,0.051312516675,0.12412,-0.45298,-0.5307,0.14036,-0.4321,-0.15602,-0.143569356,9.568897577400001,-0.5132604477,0.061086329375,-0.031764891275000005,0.0720818686625,0.13224,-0.44254,-0.34336,-5.17792,3.29504,-264.54464,32.2
55779,8141706,0,-25,1322,-101,19,-79,97,214,-781,-915,-14,1334,-33,121,120,64,242,-745,-269,-176,176,-9008,31.65,0.9885911670367628,32.75,0.9989242536392796,3859.98486328125,-7606.2802734375,23.0,7.774021148681641,0,0.0,0.0,0.0,0.0,0.1583323015427031,0.0,0.0,0.0,0.0,0.0,0.0,0.0,11,0.9937577103380212,38.99974772135417,-76.10467122395833,-0.179461695,9.4899344316,-0.7250252478,-0.10049854920000001,9.5760760452,-0.2368894374,0.023212805162500003,-0.09651640041250001,0.11850747898750001,0.1478289170875,0.1466071905,0.0781905016,0.12412,-0.45298,-0.5307,0.14036,-0.4321,-0.15602,-0.1399801221,9.533005238400001,-0.4809573426,0.08552086112500001,0.02504539504375,0.09834899029375001,0.13224,-0.44254,-0.34336,-5.17792,5.17792,-265.01536,32.2
55780,8141857,0,-40,1331,-87,8,-93,95,229,-786,-902,-28,1331,-30,98,94,61,243,-793,-273,-240,192,-8928,31.64,0.9887095978287688,32.75,0.9989242536392796,3859.98486328125,-7606.2802734375,23.0,7.780668258666992,0,0.0,0.0,0.0,0.0,0.1583323015427031,0.0,0.0,0.0,0.0,0.0,0.0,0.0,11,0.9938169257340241,38.99974772135417,-76.10467122395833,-0.287138712,9.554540641800001,-0.6245266986,-0.20099709840000002,9.554540641800001,-0.215354034,0.0097738127,-0.1136205726375,0.1160640258125,0.11972920557500001,0.114842299225,0.0745253218375,0.13282,-0.45588,-0.52316,0.14094,-0.45994,-0.15834,-0.24406790520000002,9.554540641800001,-0.4199403663,0.06475150913750001,0.0006108632937499997,0.09529467382500001,0.13688,-0.45791000000000004,-0.34075,-7.0608,5.64864,-262.66176,32.195
55781,8142007,0,-43,1328,-109,3,-103,82,213,-760,-896,-23,1335,-40,91,81,46,268,-767,-283,-192,96,-8944,31.65,0.988788551690106,32.75,0.9989242536392796,3859.98486328125,-7606.2802734375,23.0,7.777898788452148,0,0.0,0.0,0.0,0.0,0.1583323015427031,0.0,0.0,0.0,0.0,0.0,0.0,0.0,11,0.9938564026646928,38.99974772135417,-76.10467122395833,-0.3086741154,9.533005238400001,-0.7824529902,-0.1651047594,9.583254513,-0.287138712,0.0036651797625,-0.1258378385125,0.100181580175,0.1111771194625,0.09895985358750001,0.056199423025,0.12354,-0.4408,-0.51968,0.15544,-0.44486,-0.16414,-0.2368894374,9.5581298757,-0.5347958511,0.0574211496125,-0.013438992462499993,0.0781905016,0.13949,-0.44283,-0.34191000000000005,-5.64864,2.82432,-263.13248,32.2
55782,8142157,0,-18,1339,-92,31,-91,63,215,-760,-888,1,1335,-37,114,108,25,258,-764,-249,-192,80,-8928,31.65,0.9886997285961016,32.77,0.9988847767086108,3859.98486328125,-7606.2802734375,23.0,7.797285079956055,0,0.0,0.0,0.0,0.0,0.1583323015427031,0.0,0.0,0.0,0.0,0.0,0.0,0.0,11,0.9937922526523562,38.99974772135417,-76.10467122395833,-0.1292124204,9.6119683842,-0.6604190376,0.0071784678,9.583254513,-0.26560330860000003,0.0378735242125,-0.1111771194625,0.0769687750125,0.13927683097500002,0.13194647145000002,0.030543164687500002,0.1247,-0.4408,-0.51504,0.14964,-0.44312,-0.14442,-0.0610169763,9.5976114486,-0.4630111731,0.08857517759375001,0.010384675993750009,0.05375596985,0.13717000000000001,-0.44196,-0.32973,-5.64864,2.3536,-262.66176,32.21
55783,8142308,0,-23,1333,-94,19,-86,117,215,-760,-888,-17,1334,-38,101,110,82,258,-764,-249,-208,96,-8976,31.65,0.988837897853442,32.75,0.9990032075006168,3859.98486328125,-7606.2802734375,23.0,7.790084362030029,0,0.0,0.0,0.0,0.0,0.1583323015427031,0.0,0.0,0.0,0.0,0.0,0.0,0.0,11,0.9939205526770294,38.99974772135417,-76.10467122395833,-0.1651047594,9.5688975774,-0.6747759732,-0.12203395260000001,9.5760760452,-0.2727817764,0.023212805162500003,-0.105068486525,0.1429420107375,0.12339438533750001,0.13438992462500002,0.100181580175,0.1247,-0.4408,-0.51504,0.14964,-0.44312,-0.14442,-0.143569356,9.5724868113,-0.4737788748,0.07330359525,0.014660719050000007,0.12156179545625001,0.13717000000000001,-0.44196,-0.32973,-6.11936,2.82432,-264.07392000000004,32.2
55784,8142458,0,-18,1328,-95,3,-87,106,218,-772,-874,-11,1328,-31,84,118,70,261,-783,-279,-288,112,-8880,31.64,0.9889168517147792,32.75,0.9988847767086108,3859.98486328125,-7606.2802734375,23.0,7.787868976593018,0,0.0,0.0,0.0,0.0,0.1583323015427031,0.0,0.0,0.0,0.0,0.0,0.0,0.0,11,0.993900814211695,38.99974772135417,-76.10467122395833,-0.1292124204,9.533005238400001,-0.681954441,-0.07896314580000001,9.533005238400001,-0.2225325018,0.0036651797625,-0.1062902131125,0.129503018275,0.10262503335,0.144163737325,0.085520861125,0.12644,-0.44776,-0.50692,0.15138000000000001,-0.45414,-0.16182,-0.1040877831,9.533005238400001,-0.4522434714,0.05314510655625,0.018936762106250005,0.1075119397,0.13891,-0.45094999999999996,-0.33437,-8.47296,3.29504,-261.2496,32.195
55785,8142609,0,-34,1333,-97,6,-79,105,233,-778,-884,-17,1333,-33,96,110,58,262,-768,-298,-208,128,-8976,31.66,0.9885516901060942,32.75,0.9988749074759438,3859.98486328125,-7606.2802734375,23.0,7.778452396392822,0,0.0,0.0,0.0,0.0,0.1583323015427031,0.0,0.0,0.0,0.0,0.0,0.0,0.0,11,0.993713298791019,38.99974772135417,-76.10467122395833,-0.24406790520000002,9.5688975774,-0.6963113766,-0.12203395260000001,9.5688975774,-0.2368894374,0.007330359525,-0.09651640041250001,0.1282812916875,0.1172857524,0.13438992462500002,0.07086014207500001,0.13514,-0.45124000000000003,-0.51272,0.15196,-0.44544,-0.17284,-0.18305092890000002,9.5688975774,-0.466600407,0.0623080559625,0.018936762106250005,0.09957071688125,0.14355,-0.44834,-0.34278,-6.11936,3.76576,-264.07392000000004,32.205
55786,8142759,0,-28,1332,-102,14,-92,103,219,-797,-884,-12,1324,-38,92,94,59,277,-778,-281,-288,128,-8928,31.64,0.9888181593881076,32.76,0.9988551690106094,3859.98486328125,-7606.2802734375,23.0,7.790638446807861,0,0.0,0.0,0.0,0.0,0.1583323015427031,0.0,0.0,0.0,0.0,0.0,0.0,0.0,11,0.9938366641993586,38.99974772135417,-76.10467122395833,-0.20099709840000002,9.5617191096,-0.7322037156000001,-0.0861416136,9.5042913672,-0.2727817764,0.017104172225000002,-0.11239884605,0.1258378385125,0.11239884605,0.114842299225,0.0720818686625,0.12702,-0.46226,-0.51272,0.16066,-0.45124000000000003,-0.16298,-0.143569356,9.533005238400001,-0.502492746,0.0647515091375,0.0012217265874999994,0.09895985358750001,0.14384,-0.45675,-0.33785,-8.47296,3.76576,-262.66176,32.2
55787,8142909,0,-23,1333,-100,8,-98,104,219,-797,-884,-11,1336,-40,99,95,75,282,-749,-270,-208,48,-8944,31.65,0.988788551690106,32.75,0.9988354305452752,3859.98486328125,-7606.2802734375,23.0,7.790084362030029,0,0.0,0.0,0.0,0.0,0.1583323015427031,0.0,0.0,0.0,0.0,0.0,0.0,0.0,11,0.9938119911176906,38.99974772135417,-76.10467122395833,-0.1651047594,9.5688975774,-0.71784678,-0.07896314580000001,9.590432980800001,-0.287138712,0.0097738127,-0.11972920557500001,0.1270595651,0.12095093216250001,0.1160640258125,0.09162949406250001,0.12702,-0.46226,-0.51272,0.16356,-0.43442000000000003,-0.1566,-0.1220339526,9.5796652791,-0.502492746,0.06536237243125001,-0.001832589881250006,0.10934452958125,0.14529,-0.44834,-0.33465999999999996,-6.11936,1.41216,-263.13248,32.2
55788,8143060,0,-28,1323,-102,11,-82,116,243,-794,-897,-16,1335,-39,100,126,81,282,-749,-270,-192,128,-8896,31.65,0.9886997285961016,32.75,0.9988847767086108,3859.98486328125,-7606.2802734375,23.0,7.790084362030029,0,0.0,0.0,0.0,0.0,0.1583323015427031,0.0,0.0,0.0,0.0,0.0,0.0,0.0,11,0.9937922526523562,38.99974772135417,-76.10467122395833,-0.20099709840000002,9.497112899400001,-0.7322037156000001,-0.1148554848,9.583254513,-0.2799602442,0.0134389924625,-0.100181580175,0.14172028415000001,0.12217265875000001,0.153937550025,0.09895985358750001,0.14094,-0.46052,-0.5202600000000001,0.16356,-0.43442000000000003,-0.1566,-0.15792629160000002,9.5401837062,-0.5060819799,0.06780582560625001,0.026877984925,0.12034006886875001,0.15225,-0.44747000000000003,-0.33843,-5.64864,3.76576,-261.72032,32.2
55789,8143210,0,-30,1329,-100,13,-75,109,236,-777,-920,-20,1336,-32,99,109,77,279,-734,-263,-224,128,-8880,31.64,0.988976067110782,32.75,0.9989933382679496,3859.98486328125,-7606.2802734375,23.0,7.78233003616333,0,0.0,0.0,0.0,0.0,0.1583323015427031,0.0,0.0,0.0,0.0,0.0,0.0,0.0,11,0.9939847026893658,38.99974772135417,-76.10467122395833,-0.215354034,9.5401837062,-0.71784678,-0.143569356,9.590432980800001,-0.2297109696,0.0158824456375,-0.09162949406250001,0.13316819803750002,0.12095093216250001,0.13316819803750002,0.09407294723750001,0.13688,-0.45066,-0.5336,0.16182,-0.42572,-0.15254,-0.179461695,9.5653083435,-0.4737788748,0.06841668890000001,0.020769351987500004,0.11362057263750001,0.14934999999999998,-0.43818999999999997,-0.34307,-6.59008,3.76576,-261.2496,32.195
55790,8143360,0,-36,1330,-105,-3,-92,79,243,-770,-904,-20,1337,-36,96,92,43,250,-773,-296,-304,112,-8960,31.65,0.988906982482112,32.75,0.9990032075006168,3859.98486328125,-7606.2802734375,23.0,7.78011417388916,0,0.0,0.0,0.0,0.0,0.1583323015427031,0.0,0.0,0.0,0.0,0.0,0.0,0.0,11,0.9939550949913644,38.99974772135417,-76.10467122395833,-0.2584248408,9.547362174,-0.753739119,-0.143569356,9.5976114486,-0.2584248408,-0.0036651797625,-0.11239884605,0.09651640041250001,0.1172857524,0.11239884605,0.0525342432625,0.14094,-0.4466,-0.52432,0.145,-0.44834,-0.17168,-0.20099709840000002,9.5724868113,-0.5060819799,0.05681028631875,0.0,0.0745253218375,0.14296999999999999,-0.44747000000000003,-0.348,-8.94368,3.29504,-263.6032,32.2
55791,8143511,0,-12,1332,-94,18,-78,98,243,-770,-904,2,1334,-41,99,108,53,225,-783,-313,-176,32,-8848,31.64,0.9888773747841104,32.76,0.9988551690106094,3859.98486328125,-7606.2802734375,23.0,7.790084362030029,0,0.0,0.0,0.0,0.0,0.1583323015427031,0.0,0.0,0.0,0.0,0.0,0.0,0.0,11,0.9938662718973599,38.99974772135417,-76.10467122395833,-0.0861416136,9.5617191096,-0.6747759732,0.0143569356,9.5760760452,-0.2943171798,0.021991078575,-0.09529467382500001,0.11972920557500001,0.12095093216250001,0.13194647145000002,0.0647515091375,0.14094,-0.4466,-0.52432,0.1305,-0.45414,-0.18154,-0.035892339,9.568897577400001,-0.4845465765,0.07147100536875,0.018325898812500005,0.09224035735625,0.13572,-0.45037,-0.35293,-5.17792,0.94144,-260.30816000000004,32.2
55792,8143661,0,-37,1329,-99,13,-57,132,242,-768,-886,-11,1333,-23,91,126,97,225,-783,-313,-176,160,-8976,31.66,0.9885615593387614,32.75,0.9989242536392796,3859.98486328125,-7606.2802734375,23.0,7.790638446807861,0,0.0,0.0,0.0,0.0,0.1583323015427031,0.0,0.0,0.0,0.0,0.0,0.0,0.0,11,0.9937429064890205,38.99974772135417,-76.10467122395833,-0.26560330860000003,9.5401837062,-0.7106683122,-0.07896314580000001,9.5688975774,-0.1651047594,0.0158824456375,-0.06963841548750001,0.16126790955,0.1111771194625,0.153937550025,0.11850747898750001,0.14036,-0.44544,-0.51388,0.1305,-0.45414,-0.18154,-0.17228322720000003,9.5545406418,-0.43788653580000003,0.06352978255,0.04214956726875,0.13988769426875,0.13543,-0.44979,-0.34771,-5.17792,4.7072,-264.07392000000004,32.205
55793,8143812,0,-40,1331,-99,3,-74,99,214,-784,-897,-28,1326,-34,90,118,71,261,-757,-278,-256,160,-8880,31.65,0.988837897853442,32.76,0.9990722921292868,3859.98486328125,-7606.2802734375,23.0,7.797839164733887,0,0.0,0.0,0.0,0.0,0.1583323015427031,0.0,0.0,0.0,0.0,0.0,0.0,0.0,11,0.9939550949913645,38.99974772135417,-76.10467122395833,-0.287138712,9.554540641800001,-0.7106683122,-0.20099709840000002,9.5186483028,-0.24406790520000002,0.0036651797625,-0.090407767475,0.12095093216250001,0.109955392875,0.144163737325,0.0867425877125,0.12412,-0.45472,-0.5202600000000001,0.15138000000000001,-0.43906,-0.16124,-0.24406790520000002,9.536594472300001,-0.4773681087,0.05681028631875,0.026877984925000008,0.1038467599375,0.13775,-0.44689,-0.34075,-7.53152,4.7072,-261.2496,32.205
55794,8143962,0,-46,1337,-108,4,-77,98,207,-787,-878,-14,1328,-39,88,114,55,221,-719,-288,-272,192,-8896,31.65,0.988837897853442,32.75,0.9989933382679496,3859.98486328125,-7606.2802734375,23.0,7.784545421600342,0,0.0,0.0,0.0,0.0,0.1583323015427031,0.0,0.0,0.0,0.0,0.0,0.0,0.0,11,0.9939156180606958,38.99974772135417,-76.10467122395833,-0.3302095188,9.5976114486,-0.7752745224,-0.10049854920000001,9.533005238400001,-0.2799602442,0.00488690635,-0.09407294723750001,0.11972920557500001,0.1075119397,0.13927683097500002,0.06719496231250001,0.12006,-0.45646,-0.50924,0.12818,-0.41702,-0.16704,-0.215354034,9.5653083435,-0.5276173833,0.056199423025,0.022601941868750003,0.09346208394375001,0.12412,-0.43674,-0.33814,-8.00224,5.64864,-261.72032,32.2
55795,8144112,0,-31,1332,-103,10,-107,85,207,-787,-878,-18,1323,-33,103,82,61,245,-743,-281,-208,128,-8976,31.64,0.9888773747841104,32.75,0.9987466074512706,3859.98486328125,-7606.2802734375,22.899999618530277,7.790084362030029,0,0.0,0.0,0.0,0.0,0.1583323015427031,0.0,0.0,0.0,0.0,0.0,0.0,0.0,11,0.9938119911176906,38.99974772135417,-76.10467122395833,-0.2225325018,9.5617191096,-0.7393821834000001,-0.1292124204,9.497112899400001,-0.2368894374,0.012217265875000001,-0.13072474486250002,0.1038467599375,0.1258378385125,0.100181580175,0.0745253218375,0.12006,-0.45646,-0.50924,0.1421,-0.43094,-0.16298,-0.1758724611,9.5294160045,-0.48813581040000004,0.06902755219375,-0.015271582343750006,0.08918604088750001,0.13108,-0.4437,-0.33611,-6.11936,3.76576,-264.07392000000004,32.195
55796,8144263,0,-25,1333,-102,13,-75,86,216,-764,-936,-10,1335,-32,98,122,58,245,-743,-281,-192,128,-9040,31.65,0.9887984209227731,32.77,0.998825561312608,3859.98486328125,-7606.2802734375,22.899999618530277,7.799500942230225,0,0.0,0.0,0.0,0.0,0.1583323015427031,0.0,0.0,0.0,0.0,0.0,0.0,0.0,11,0.9938119911176906,38.99974772135417,-76.10467122395833,-0.179461695,9.5688975774,-0.7322037156000001,-0.071784678,9.583254513,-0.2297109696,0.0158824456375,-0.09162949406250001,0.105068486525,0.11972920557500001,0.149050643675,0.07086014207500001,0.12528,-0.44312,-0.54288,0.1421,-0.43094,-0.16298,-0.1256231865,9.5760760452,-0.48095734260000006,0.06780582560625001,0.02871057480625,0.08796431430000001,0.13369,-0.43703000000000003,-0.35293,-5.64864,3.76576,-265.95680000000004,32.21
55797,8144413,0,-26,1337,-100,9,-85,128,251,-760,-906,-2,1333,-32,96,112,87,251,-789,-272,-224,160,-9056,31.64,0.988976067110782,32.75,0.9988847767086108,3859.98486328125,-7606.2802734375,22.899999618530277,7.790084362030029,0,0.0,0.0,0.0,0.0,0.1583323015427031,0.0,0.0,0.0,0.0,0.0,0.0,0.0,11,0.9939304219096964,38.99974772135417,-76.10467122395833,-0.1866401628,9.5976114486,-0.71784678,-0.0143569356,9.5688975774,-0.2297109696,0.0109955392875,-0.1038467599375,0.1563810032,0.1172857524,0.13683337780000002,0.1062902131125,0.14558,-0.4408,-0.5254800000000001,0.14558,-0.45762,-0.15776,-0.10049854920000001,9.583254513,-0.4737788748,0.06414064584375,0.016493308931250006,0.13133560815625,0.14558,-0.44921,-0.34162000000000003,-6.59008,4.7072,-266.42752,32.195
55798,8144564,0,-31,1339,-107,16,-93,101,228,-777,-845,-9,1330,-32,97,95,64,260,-765,-253,-240,80,-8864,31.64,0.9889365901801136,32.75,0.9990426844312856,3859.98486328125,-7606.2802734375,22.899999618530277,7.800054550170898,0,0.0,0.0,0.0,0.0,0.1583323015427031,0.0,0.0,0.0,0.0,0.0,0.0,0.0,11,0.9939896373056996,38.99974772135417,-76.10467122395833,-0.2225325018,9.6119683842,-0.7680960546000001,-0.0646062102,9.547362174,-0.2297109696,0.0195476254,-0.1136205726375,0.12339438533750001,0.11850747898750001,0.1160640258125,0.0781905016,0.13224,-0.45066,-0.4901,0.1508,-0.4437,-0.14674,-0.143569356,9.5796652791,-0.49890351210000006,0.06902755219375001,0.0012217265874999994,0.10079244346875,0.14151999999999998,-0.44718,-0.31842,-7.0608,2.3536,-260.77888,32.195
55799,8144714,0,-37,1337,-103,-8,-90,127,228,-777,-845,-26,1333,-33,76,106,83,225,-782,-271,-304,80,-8912,31.65,0.9887984209227731,32.75,0.9991413767579572,3859.98486328125,-7606.2802734375,22.899999618530277,7.790084362030029,0,0.0,0.0,0.0,0.0,0.1583323015427031,0.0,0.0,0.0,0.0,0.0,0.0,0.0,11,0.9939698988403651,38.99974772135417,-76.10467122395833,-0.26560330860000003,9.5976114486,-0.7393821834000001,-0.1866401628,9.5688975774,-0.2368894374,-0.0097738127,-0.109955392875,0.1551592766125,0.09285122065000001,0.129503018275,0.1014033067625,0.13224,-0.45066,-0.4901,0.1305,-0.45356,-0.15718000000000001,-0.22612173570000002,9.583254513,-0.48813581040000004,0.04153870397500001,0.009773812699999995,0.12828129168750002,0.13137,-0.45211,-0.32364,-8.94368,2.3536,-262.19104000000004,32.2
55800,8144864,0,-29,1330,-102,11,-66,71,219,-786,-901,-15,1334,-34,105,124,38,225,-782,-271,-272,80,-8848,31.64,0.988976067110782,32.75,0.9988354305452752,3859.98486328125,-7606.2802734375,22.899999618530277,7.797285079956055,0,0.0,0.0,0.0,0.0,0.1583323015427031,0.0,0.0,0.0,0.0,0.0,0.0,0.0,11,0.9939057488280286,38.99974772135417,-76.10467122395833,-0.2081755662,9.547362174,-0.7322037156000001,-0.107677017,9.5760760452,-0.24406790520000002,0.0134389924625,-0.080633954775,0.0867425877125,0.1282812916875,0.15149409685,0.046425610325000005,0.12702,-0.45588,-0.52258,0.1305,-0.45356,-0.15718000000000001,-0.1579262916,9.5617191096,-0.48813581040000004,0.070860142075,0.035430071037500004,0.06658409901875001,0.12875999999999999,-0.45472,-0.33988,-8.00224,2.3536,-260.30816000000004,32.195
55801,8145015,0,-25,1331,-114,16,-86,65,235,-784,-882,-9,1329,-37,100,90,29,230,-770,-251,-272,112,-8944,31.64,0.9888675055514434,32.75,0.9989735998026154,3859.98486328125,-7606.2802734375,22.899999618530277,7.791192054748535,0,0.0,0.0,0.0,0.0,0.1583323015427031,0.0,0.0,0.0,0.0,0.0,0.0,0.0,11,0.9939205526770294,38.99974772135417,-76.10467122395833,-0.179461695,9.554540641800001,-0.8183453292,-0.0646062102,9.5401837062,-0.26560330860000003,0.0195476254,-0.105068486525,0.0794122281875,0.12217265875000001,0.109955392875,0.035430071037500004,0.1363,-0.45472,-0.51156,0.1334,-0.4466,-0.14558,-0.1220339526,9.547362174,-0.5419743189,0.07086014207500001,0.002443453174999999,0.0574211496125,0.13485,-0.45066,-0.32857000000000003,-8.00224,3.29504,-263.13248,32.195
55802,8145165,0,-22,1339,-92,-4,-106,98,223,-766,-887,-10,1338,-32,82,86,60,245,-763,-286,-240,96,-9008,31.65,0.9888576363187762,32.75,0.9990426844312856,3859.98486328125,-7606.2802734375,22.899999618530277,7.797285079956055,0,0.0,0.0,0.0,0.0,0.1583323015427031,0.0,0.0,0.0,0.0,0.0,0.0,0.0,11,0.9939501603750309,38.99974772135417,-76.10467122395833,-0.15792629160000002,9.6119683842,-0.6604190376,-0.071784678,9.6047899164,-0.2297109696,-0.00488690635,-0.129503018275,0.11972920557500001,0.100181580175,0.105068486525,0.07330359525,0.12934,-0.44428,-0.51446,0.1421,-0.44254,-0.16588,-0.11485548480000002,9.6083791503,-0.4450650036,0.047647336912500005,-0.012217265874999994,0.09651640041250001,0.13572,-0.44340999999999997,-0.34017000000000003,-7.0608,2.82432,-265.01536,32.2
55803,8145316,0,-35,1335,-97,-12,-89,156,223,-766,-887,-11,1335,-34,64,118,126,249,-787,-254,-272,128,-8944,31.64,0.988719467061436,32.76,0.9988551690106094,3859.98486328125,-7606.2802734375,22.899999618530277,7.783437728881836,0,0.0,0.0,0.0,0.0,0.1583323015427031,0.0,0.0,0.0,0.0,0.0,0.0,0.0,11,0.9937873180360227,38.99974772135417,-76.10467122395833,-0.251246373,9.583254513,-0.6963113766,-0.07896314580000001,9.583254513,-0.24406790520000002,-0.01466071905,-0.1087336662875,0.19058934765000002,0.0781905016,0.144163737325,0.153937550025,0.12934,-0.44428,-0.51446,0.14442,-0.45646,-0.14732,-0.16510475940000002,9.583254513,-0.4701896409,0.031764891275,0.017715035518750005,0.1722634488375,0.13688,-0.45037,-0.33089,-8.00224,3.76576,-263.13248,32.2
55804,8145466,0,-30,1333,-116,7,42,121,229,-778,-916,-16,1325,-50,94,215,80,249,-787,-254,-176,128,-8880,31.65,0.9885714285714284,32.75,0.9991018998272884,3859.98486328125,-7606.2802734375,22.899999618530277,7.790084362030029,0,0.0,0.0,0.0,0.0,0.1583323015427031,0.0,0.0,0.0,0.0,0.0,0.0,0.0,11,0.9938366641993583,38.99974772135417,-76.10467122395833,-0.215354034,9.5688975774,-0.8327022648,-0.1148554848,9.511469835,-0.35892339,0.008552086112500001,0.051312516675,0.1478289170875,0.114842299225,0.2626712163125,0.09773812700000001,0.13282,-0.45124000000000003,-0.53128,0.14442,-0.45646,-0.14732,-0.1651047594,9.5401837062,-0.5958128274,0.06169719266875,0.15699186649375002,0.12278352204375001,0.13862,-0.45385,-0.3393,-5.17792,3.76576,-261.2496,32.2
55805,8145616,0,-51,1330,-109,36,-212,81,227,-754,-911,-31,1328,-50,115,-10,41,254,-764,-268,-336,112,-8912,31.64,0.9887786824574388,32.75,0.9989735998026154,3859.98486328125,-7606.2802734375,22.899999618530277,7.792853832244873,0,0.0,0.0,0.0,0.0,0.1583323015427031,0.0,0.0,0.0,0.0,0.0,0.0,0.0,11,0.9938761411300271,38.99974772135417,-76.10467122395833,-0.36610185780000004,9.547362174,-0.7824529902,-0.2225325018,9.533005238400001,-0.35892339,0.04398215715,-0.25900603655,0.09895985358750001,0.14049855756250001,-0.012217265875000001,0.0500907900875,0.13166,-0.43732,-0.52838,0.14732,-0.44312,-0.15544,-0.29431717980000005,9.5401837062,-0.5706881901,0.09224035735625001,-0.1356116512125,0.0745253218375,0.13949,-0.44022,-0.34191,-9.88512,3.29504,-262.19104000000004,32.195
55806,8145767,0,-8,1340,-86,28,-271,49,219,-777,-907,6,1336,-20,104,-69,11,251,-785,-255,-192,160,-9008,31.64,0.9887095978287688,32.75,0.9990032075006168,3859.98486328125,-7606.2802734375,22.899999618530277,7.78620719909668,0,0.0,0.0,0.0,0.0,0.1583323015427031,0.0,0.0,0.0,0.0,0.0,0.0,0.0,11,0.9938564026646928,38.99974772135417,-76.10467122395833,-0.0574277424,9.619146852,-0.6173482308,0.0430708068,9.590432980800001,-0.143569356,0.034208344450000004,-0.33108790521250003,0.059864602787500006,0.1270595651,-0.0842991345375,0.0134389924625,0.12702,-0.45066,-0.52606,0.14558,-0.4553,-0.1479,-0.007178467800000001,9.604789916400001,-0.3804587934,0.080633954775,-0.207693519875,0.036651797625,0.13629999999999998,-0.45298,-0.33698,-5.64864,4.7072,-265.01536,32.195
55807,8145917,0,-24,1335,-90,21,-33,111,219,-777,-907,-8,1337,-26,119,165,74,245,-803,-262,-224,48,-8880,31.65,0.9889464594127808,32.75,0.9989933382679496,3859.98486328125,-7606.2802734375,22.899999618530277,7.788422584533691,0,0.0,0.0,0.0,0.0,0.1583323015427031,0.0,0.0,0.0,0.0,0.0,0.0,0.0,11,0.9939698988403651,38.99974772135417,-76.10467122395833,-0.1722832272,9.583254513,-0.646062102,-0.0574277424,9.5976114486,-0.1866401628,0.0256562583375,-0.0403169773875,0.13561165121250002,0.1453854639125,0.2015848869375,0.090407767475,0.12702,-0.45066,-0.52606,0.1421,-0.46574,-0.15196,-0.1148554848,9.5904329808,-0.4163511324,0.08552086112500001,0.080633954775,0.11300970934375001,0.13456,-0.4582,-0.33901,-6.59008,1.41216,-261.2496,32.2
55808,8146067,0,-28,1344,-89,20,-84,107,217,-785,-907,-9,1339,-26,103,115,69,245,-803,-262,-160,64,-8944,31.64,0.9888773747841104,32.75,0.9989933382679496,3859.98486328125,-7606.2802734375,22.899999618530277,7.784545421600342,0,0.0,0.0,0.0,0.0,0.1583323015427031,0.0,0.0,0.0,0.0,0.0,0.0,0.0,11,0.99393535652603,38.99974772135417,-76.10467122395833,-0.20099709840000002,9.6478607232,-0.6388836342,-0.0646062102,9.6119683842,-0.1866401628,0.024434531750000002,-0.10262503335,0.13072474486250002,0.1258378385125,0.14049855756250001,0.0842991345375,0.12586,-0.4553,-0.52606,0.1421,-0.46574,-0.15196,-0.13280165430000002,9.6299145537,-0.4127618985,0.07513618513125,0.018936762106250005,0.1075119397,0.13398,-0.46052,-0.33901,-4.7072,1.88288,-263.13248,32.195
55809,8146217,0,-51,1333,-113,-1,-98,117,206,-789,-892,-39,1335,-40,82,84,95,238,-765,-282,-192,48,-8960,31.64,0.9888181593881076,32.74,0.9989143844066124,3859.98486328125,-7606.2802734375,22.899999618530277,7.792300224304199,0,0.0,0.0,0.0,0.0,0.1583323015427031,0.0,0.0,0.0,0.0,0.0,0.0,0.0,11,0.99386627189736,38.99974772135417,-76.10467122395833,-0.36610185780000004,9.5688975774,-0.8111668614,-0.2799602442,9.583254513,-0.287138712,-0.0012217265875,-0.11972920557500001,0.1429420107375,0.100181580175,0.10262503335,0.1160640258125,0.11948,-0.45762,-0.51736,0.13804,-0.4437,-0.16356,-0.323031051,9.5760760452,-0.5491527867,0.049479926793750004,-0.008552086112500003,0.129503018275,0.12875999999999999,-0.45066,-0.34046000000000004,-5.64864,1.41216,-263.6032,32.19
55810,8146367,0,-23,1336,-95,40,-55,75,205,-779,-872,-11,1336,-38,112,144,31,242,-800,-291,-224,48,-8896,31.64,0.9888181593881076,32.76,0.9988058228472736,3859.98486328125,-7606.2802734375,22.899999618530277,7.781221866607666,0,0.0,0.0,0.0,0.0,0.1583323015427031,0.0,0.0,0.0,0.0,0.0,0.0,0.0,11,0.9938119911176906,38.99974772135417,-76.10467122395833,-0.1651047594,9.590432980800001,-0.681954441,-0.07896314580000001,9.590432980800001,-0.2727817764,0.048869063500000004,-0.06719496231250001,0.09162949406250001,0.13683337780000002,0.1759286286,0.0378735242125,0.1189,-0.45182,-0.50576,0.14036,-0.464,-0.16878,-0.1220339526,9.590432980800001,-0.4773681087,0.09285122065000001,0.054366833143749994,0.06475150913750001,0.12963000000000002,-0.45791000000000004,-0.33727,-6.59008,1.41216,-261.72032,32.2
