	timestamp_s	timestamp_ms	imu1_accel_x	imu1_accel_y	imu1_accel_z	imu1_gyro_x	imu1_gyro_y	imu1_gyro_z	imu1_mag_x	imu1_mag_y	imu1_mag_z	imu2_accel_x	imu2_accel_y	imu2_accel_z	imu2_gyro_x	imu2_gyro_y	imu2_gyro_z	imu2_mag_x	imu2_mag_y	imu2_mag_z	high_g_accel_x	high_g_accel_y	high_g_accel_z	baro1_temp	baro1_pres	baro1_alt	baro2_temp	baro2_pres	baro2_alt	gps_lat	gps_long	gps_alt	battery_voltage	pyro_cont	heading	vtg	pos_x	pos_y	pos_z	vel_x	vel_y	vel_z	q_x	q_y	q_z	q_w	state	baro_pres_avg	imu1_accel_x_real	imu1_accel_y_real	imu1_accel_z_real	imu2_accel_x_real	imu2_accel_y_real	imu2_accel_z_real	imu1_gyro_x_real	imu1_gyro_y_real	imu1_gyro_z_real	imu2_gyro_x_real	imu2_gyro_y_real	imu2_gyro_z_real	imu1_mag_x_real	imu1_mag_y_real	imu1_mag_z_real	imu2_mag_x_real	imu2_mag_y_real	imu2_mag_z_real	imu_accel_x_avg	imu_accel_y_avg	imu_accel_z_avg	imu_gyro_x_avg	imu_gyro_y_avg	imu_gyro_z_avg	imu_mag_x_avg	imu_mag_y_avg	imu_mag_z_avg	high_g_accel_x_real	high_g_accel_y_real	high_g_accel_z_real	baro_temp_avg
18723	4940393	0	-89	1310	31	-102	183	30	-456	1713	858	-68	1332	3	5	-12	-43	132	664	2849	0	288	-32768	55.24	0.9955193683691091	0.0	53.0	1.0023587466074513	0.0	4449.47900390625	-7309.8408203125	37.59999847412109	13.04551124572754	0	0.0	0.0	0.0	0.0	0.0	0.0	0.0	0.0	0.0	0.0	0.0	0.0	7	0.9989390574882802	-0.05324030285	0.7836494015	0.01854437515	-0.040677984199999996	0.7968099258	0.0017946169499999999	-0.0155770626	0.0279470829	0.004581489	0.0007635815	-0.0018325956	-0.0065668009	-0.06384	0.23981999999999998	0.12011999999999999	0.01848	0.09295999999999999	0.39886	-0.046959143525	0.7902296636499999	0.01016949605	-0.00740674055	0.01305724365	-0.00099265595	-0.02268	0.16638999999999998	0.25949	0.0	8.47296	-964.03456	54.120000000000005
18724	4940435	0	-88	1312	28	-108	198	35	-442	1710	844	-70	1320	3	-1	-7	-42	132	664	2849	48	304	-32768	55.24	0.9956377991611152	0.0	53.0	1.00239822353812	0.0	4449.47900390625	-7309.8408203125	37.59999847412109	13.04551124572754	0	0.0	0.0	0.0	0.0	0.0	0.0	0.0	0.0	0.0	0.0	0.0	0.0	7	0.9990180113496175	-0.0526420972	0.7848458128	0.0167497582	-0.0418743955	0.789631458	0.0017946169499999999	-0.0164933604	0.0302378274	0.0053450705	-0.0001527163	-0.0010690141000000001	-0.0064140846	-0.06188	0.23939999999999997	0.11815999999999999	0.01848	0.09295999999999999	0.39886	-0.047258246350000005	0.7872386354	0.009272187575	-0.00832303835	0.01458440665	-0.0005345070499999998	-0.021699999999999997	0.16618	0.25851	1.41216	8.94368	-964.03456	54.120000000000005
18725	4940479	0	-93	1307	35	-115	194	28	-442	1710	844	-69	1326	-1	3	-10	-44	132	664	2849	-16	240	-32768	55.25	0.9955687145324452	0.0	52.99	1.0024771773994572	0.0	4449.47900390625	-7309.8408203125	37.59999847412109	13.04551124572754	0	0.0	0.0	0.0	0.0	0.0	0.0	0.0	0.0	0.0	0.0	0.0	0.0	7	0.9990229459659512	-0.05563312545	0.78185478455	0.02093719775	-0.04127618985	0.7932206919	-0.00059820565	-0.0175623745	0.0296269622	0.0042760564000000004	0.0004581489	-0.001527163	-0.0067195172000000004	-0.06188	0.23939999999999997	0.11815999999999999	0.01848	0.09295999999999999	0.39886	-0.048454657649999996	0.787537738225	0.01016949605	-0.0085521128	0.014049899599999999	-0.0012217304	-0.021699999999999997	0.16618	0.25851	-0.47072	7.0608	-964.03456	54.120000000000005
18726	4940521	0	-83	1306	31	-111	182	19	-442	1710	844	-68	1331	-2	15	-2	-52	132	664	2849	-16	272	-32768	55.23	0.9955094991364422	0.0	53.0	1.00246730816679	0.0	4449.47900390625	-7309.8408203125	37.59999847412109	13.04551124572754	0	0.0	0.0	0.0	0.0	0.0	0.0	0.0	0.0	0.0	0.0	0.0	0.0	7	0.9989884036516161	-0.04965106895	0.7812565789	0.01854437515	-0.040677984199999996	0.79621172015	-0.0011964113	-0.0169515093	0.0277943666	0.0029016097	0.0022907445	-0.0003054326	-0.0079412476	-0.06188	0.23939999999999997	0.11815999999999999	0.01848	0.09295999999999999	0.39886	-0.045164526575	0.788734149525	0.008673981925000001	-0.0073303824	0.013744467	-0.0025198189499999997	-0.021699999999999997	0.16618	0.25851	-0.47072	8.00224	-964.03456	54.114999999999995
18727	4940563	0	-90	1303	31	-108	188	20	-442	1710	844	-66	1325	1	1	-17	-56	132	664	2849	32	240	-32768	55.24	0.995815445349124	0.0	53.0	1.00246730816679	0.0	4449.47900390625	-7309.8408203125	37.59999847412109	13.04551124572754	0	0.0	0.0	0.0	0.0	0.0	0.0	0.0	0.0	0.0	0.0	0.0	0.0	7	0.9991413767579571	-0.0538385085	0.77946196195	0.01854437515	-0.0394815729	0.79262248625	0.00059820565	-0.0164933604	0.0287106644	0.003054326	0.0001527163	-0.0025961771	-0.008552112800000001	-0.06188	0.23939999999999997	0.11815999999999999	0.01848	0.09295999999999999	0.39886	-0.0466600407	0.7860422241	0.0095712904	-0.00817032205	0.01305724365	-0.0027488934000000007	-0.021699999999999997	0.16618	0.25851	0.94144	7.0608	-964.03456	54.120000000000005
18728	4940607	0	-82	1310	28	-111	185	15	-434	1704	827	-72	1325	1	5	-17	-49	112	670	2903	-96	176	-32768	55.26	0.9954700222057736	0.0	52.99	1.002457438934123	0.0	4449.47900390625	-7309.8408203125	37.59999847412109	13.04551124572754	0	0.0	0.0	0.0	0.0	0.0	0.0	0.0	0.0	0.0	0.0	0.0	0.0	7	0.9989637305699484	-0.0490528633	0.7836494015	0.0167497582	-0.0430708068	0.79262248625	0.00059820565	-0.0169515093	0.0282525155	0.0022907445	0.0007635815	-0.0025961771	-0.0074830987	-0.060759999999999995	0.23855999999999997	0.11578	0.01568	0.0938	0.40641999999999995	-0.04606183505	0.788135943875	0.008673981925	-0.0080939639	0.0128281692	-0.0025961771000000003	-0.022539999999999998	0.16618	0.2611	-2.82432	5.17792	-964.03456	54.125
18729	4940649	0	-83	1309	30	-114	175	14	-434	1704	827	-64	1319	1	3	-5	-60	112	670	2903	0	224	-32768	55.24	0.995312114483099	0.0	53.0	1.002408092770787	0.0	4449.47900390625	-7309.8408203125	37.59999847412109	13.04551124572754	0	0.0	0.0	0.0	0.0	0.0	0.0	0.0	0.0	0.0	0.0	0.0	0.0	7	0.998860103626943	-0.04965106895	0.7830511958499999	0.0179461695	-0.0382851616	0.78903325235	0.00059820565	-0.0174096582	0.0267253525	0.0021380282000000002	0.0004581489	-0.0007635815	-0.009162978	-0.060759999999999995	0.23855999999999997	0.11578	0.01568	0.0938	0.40641999999999995	-0.043968115275	0.7860422241	0.009272187575	-0.00847575465	0.0129808855	-0.0035124749	-0.022539999999999998	0.16618	0.2611	0.0	6.59008	-964.03456	54.120000000000005
18730	4940693	0	-90	1308	29	-110	179	24	-434	1704	827	-70	1323	2	-4	-18	-58	112	670	2903	-96	336	-32768	55.24	0.9955391068344436	0.0	53.01	1.0024377004687886	0.0	4449.47900390625	-7309.8408203125	37.59999847412109	13.04551124572754	0	0.0	0.0	0.0	0.0	0.0	0.0	0.0	0.0	0.0	0.0	0.0	0.0	7	0.9989884036516161	-0.0538385085	0.7824529902	0.01734796385	-0.0418743955	0.79142607495	0.0011964113	-0.016798793	0.0273362177	0.0036651912	-0.0006108652	-0.0027488934	-0.0088575454	-0.060759999999999995	0.23855999999999997	0.11578	0.01568	0.0938	0.40641999999999995	-0.047856452	0.7869395325749999	0.009272187574999998	-0.0087048291	0.012293662149999999	-0.0025961771	-0.022539999999999998	0.16618	0.2611	-2.82432	9.88512	-964.03456	54.125
18731	4940735	0	-79	1308	27	-104	192	23	-434	1704	827	-67	1325	2	7	-14	-50	112	670	2903	0	336	-32768	55.24	0.9955983222304464	0.0	53.01	1.002417962003454	0.0	4449.47900390625	-7309.8408203125	37.59999847412109	13.04551124572754	0	0.0	0.0	0.0	0.0	0.0	0.0	0.0	0.0	0.0	0.0	0.0	0.0	7	0.9990081421169501	-0.04725824635	0.7824529902	0.01615155255	-0.04007977855	0.79262248625	0.0011964113	-0.0158824952	0.0293215296	0.0035124749	0.0010690141000000001	-0.0021380282000000002	-0.007635815	-0.060759999999999995	0.23855999999999997	0.11578	0.01568	0.0938	0.40641999999999995	-0.04366901245	0.787537738225	0.008673981925	-0.00740674055	0.0135917507	-0.0020616700499999996	-0.022539999999999998	0.16618	0.2611	0.0	9.88512	-964.03456	54.125
18732	4940777	0	-83	1316	38	-114	194	25	-434	1704	827	-62	1331	3	5	-10	-48	112	670	2903	-32	272	-32768	55.24	0.9956377991611152	0.0	52.99	1.0024771773994572	0.0	4449.47900390625	-7309.8408203125	37.59999847412109	13.04551124572754	0	0.0	0.0	0.0	0.0	0.0	0.0	0.0	0.0	0.0	0.0	0.0	0.0	7	0.9990574882802862	-0.04965106895	0.7872386353999999	0.0227318147	-0.0370887503	0.79621172015	0.0017946169499999999	-0.0174096582	0.0296269622	0.0038179075	0.0007635815	-0.001527163	-0.0073303824	-0.060759999999999995	0.23855999999999997	0.11578	0.01568	0.0938	0.40641999999999995	-0.043369909625	0.791725177775	0.012263215825	-0.00832303835	0.014049899599999999	-0.00175623745	-0.022539999999999998	0.16618	0.2611	-0.94144	8.00224	-964.03456	54.115
18733	4940821	0	-88	1311	33	-109	185	24	-448	1701	806	-66	1324	4	-1	-11	-48	134	686	2901	-48	272	-32768	55.25	0.9958351838144583	0.0	53.0	1.002408092770787	0.0	4449.47900390625	-7309.8408203125	37.59999847412109	13.04551124572754	0	0.0	0.0	0.0	0.0	0.0	0.0	0.0	0.0	0.0	0.0	0.0	0.0	7	0.9991216382926227	-0.0526420972	0.78424760715	0.01974078645	-0.0394815729	0.7920242806	0.0023928226	-0.0166460767	0.0282525155	0.0036651912	-0.0001527163	-0.0016798793000000001	-0.0073303824	-0.06272	0.23814	0.11284	0.01876	0.09603999999999999	0.40613999999999995	-0.04606183505	0.788135943875	0.011066804525	-0.008399396500000001	0.0132863181	-0.0018325956	-0.02198	0.16709	0.25949	-1.41216	8.00224	-964.03456	54.125
18734	4940863	0	-84	1312	31	-99	191	21	-448	1701	806	-66	1329	-1	3	-9	-46	134	686	2901	64	176	-32768	55.25	0.9955094991364422	0.0	52.99	1.0024377004687886	0.0	4449.47900390625	-7309.8408203125	37.59999847412109	13.04551124572754	0	0.0	0.0	0.0	0.0	0.0	0.0	0.0	0.0	0.0	0.0	0.0	0.0	7	0.9989735998026154	-0.0502492746	0.7848458128	0.01854437515	-0.0394815729	0.7950153088499999	-0.00059820565	-0.0151189137	0.0291688133	0.0032070423	0.0004581489	-0.0013744467	-0.0070249498	-0.06272	0.23814	0.11284	0.01876	0.09603999999999999	0.40613999999999995	-0.044865423749999994	0.789930560825	0.00897308475	-0.0073303824	0.0138971833	-0.0019089537500000002	-0.02198	0.16709	0.25949	1.88288	5.17792	-964.03456	54.120000000000005
18735	4940907	0	-86	1308	31	-107	191	31	-448	1701	806	-65	1323	0	2	-9	-45	134	686	2901	16	208	-32768	55.24	0.9956970145571182	0.0	52.99	1.0024278312361214	0.0	4449.47900390625	-7309.8408203125	37.59999847412109	13.04551124572754	0	0.0	0.0	0.0	0.0	0.0	0.0	0.0	0.0	0.0	0.0	0.0	0.0	7	0.9990624228966198	-0.051445685899999996	0.7824529902	0.01854437515	-0.03888336725	0.79142607495	0.0	-0.0163406441	0.0291688133	0.0047342053	0.0003054326	-0.0013744467	-0.0068722335	-0.06272	0.23814	0.11284	0.01876	0.09603999999999999	0.40613999999999995	-0.045164526575	0.7869395325749999	0.009272187575	-0.00801760575	0.0138971833	-0.0010690141000000001	-0.02198	0.16709	0.25949	0.47072	6.11936	-964.03456	54.115
18736	4940949	0	-88	1307	28	-119	189	26	-448	1701	806	-66	1326	-1	3	-12	-46	134	686	2901	-16	240	-32768	55.24	0.9955391068344436	0.0	52.99	1.0026054774241302	0.0	4449.47900390625	-7309.8408203125	37.59999847412109	13.04551124572754	0	0.0	0.0	0.0	0.0	0.0	0.0	0.0	0.0	0.0	0.0	0.0	0.0	7	0.9990722921292869	-0.0526420972	0.78185478455	0.0167497582	-0.0394815729	0.7932206919	-0.00059820565	-0.0181732397	0.0288633807	0.0039706238	0.0004581489	-0.0018325956	-0.0070249498	-0.06272	0.23814	0.11284	0.01876	0.09603999999999999	0.40613999999999995	-0.04606183505	0.787537738225	0.008075776275	-0.0088575454	0.01351539255	-0.0015271630000000002	-0.02198	0.16709	0.25949	-0.47072	7.0608	-964.03456	54.115
18737	4940993	0	-88	1311	28	-113	193	32	-448	1701	806	-74	1322	2	4	-19	-41	120	694	2887	-80	160	-32768	55.24	0.995746360720454	0.0	52.99	1.0024278312361214	0.0	4449.47900390625	-7309.8408203125	37.59999847412109	13.04551124572754	0	0.0	0.0	0.0	0.0	0.0	0.0	0.0	0.0	0.0	0.0	0.0	0.0	7	0.9990870959782877	-0.0526420972	0.78424760715	0.0167497582	-0.0442672181	0.7908278692999999	0.0011964113	-0.0172569419	0.0294742459	0.0048869216	0.0006108652	-0.0029016097	-0.0062613683	-0.06272	0.23814	0.11284	0.0168	0.09716	0.40418	-0.048454657649999996	0.787537738225	0.008973084749999999	-0.008323038349999999	0.0132863181	-0.0006872233500000002	-0.02296	0.16765	0.25851	-2.3536	4.7072	-964.03456	54.115
18738	4941035	0	-85	1307	32	-106	191	30	-417	1686	873	-65	1328	3	-2	-12	-52	120	694	2887	64	224	-32768	55.24	0.9958055761164568	0.0	52.99	1.0023291389094495	0.0	4449.47900390625	-7309.8408203125	37.59999847412109	13.04551124572754	0	0.0	0.0	0.0	0.0	0.0	0.0	0.0	0.0	0.0	0.0	0.0	0.0	7	0.9990673575129532	-0.05084748025	0.78185478455	0.0191425808	-0.03888336725	0.7944171032	0.0017946169499999999	-0.0161879278	0.0291688133	0.004581489	-0.0003054326	-0.0018325956	-0.0079412476	-0.058379999999999994	0.23603999999999997	0.12222	0.0168	0.09716	0.40418	-0.04486542375	0.788135943875	0.010468598875	-0.0082466802	0.01366810885	-0.0016798792999999997	-0.020789999999999996	0.16659999999999997	0.2632	1.88288	6.59008	-964.03456	54.115
18739	4941077	0	-78	1313	31	-113	187	31	-417	1686	873	-71	1328	3	-2	-13	-48	120	694	2887	-96	304	-32768	55.26	0.9955391068344436	0.0	53.0	1.002526523562793	0.0	4449.47900390625	-7309.8408203125	37.59999847412109	13.04551124572754	0	0.0	0.0	0.0	0.0	0.0	0.0	0.0	0.0	0.0	0.0	0.0	0.0	7	0.9990328151986183	-0.0466600407	0.78544401845	0.01854437515	-0.04247260115	0.7944171032	0.0017946169499999999	-0.0172569419	0.0285579481	0.0047342053	-0.0003054326	-0.0019853119	-0.0073303824	-0.058379999999999994	0.23603999999999997	0.12222	0.0168	0.09716	0.40418	-0.044566320925	0.789930560825	0.01016949605	-0.00878118725	0.0132863181	-0.0012980885500000002	-0.020789999999999996	0.16659999999999997	0.2632	-2.82432	8.94368	-964.03456	54.129999999999995
18740	4941121	0	-85	1312	32	-104	193	20	-417	1686	873	-72	1325	-2	-1	-10	-46	120	694	2887	-16	240	-32768	55.25	0.9955687145324452	0.0	52.99	1.002220577350111	0.0	4449.47900390625	-7309.8408203125	37.59999847412109	13.04551124572754	0	0.0	0.0	0.0	0.0	0.0	0.0	0.0	0.0	0.0	0.0	0.0	0.0	7	0.9988946459412781	-0.05084748025	0.7848458128	0.0191425808	-0.0430708068	0.79262248625	-0.0011964113	-0.0158824952	0.0294742459	0.003054326	-0.0001527163	-0.001527163	-0.0070249498	-0.058379999999999994	0.23603999999999997	0.12222	0.0168	0.09716	0.40418	-0.046959143525	0.788734149525	0.00897308475	-0.00801760575	0.01397354145	-0.0019853119	-0.020789999999999996	0.16659999999999997	0.2632	-0.47072	7.0608	-964.03456	54.120000000000005
18741	4941163	0	-90	1307	33	-116	195	25	-417	1686	873	-69	1325	0	0	-9	-57	120	694	2887	-32	176	-32768	55.24	0.9954700222057736	0.0	52.99	1.0024771773994572	0.0	4449.47900390625	-7309.8408203125	37.59999847412109	13.04551124572754	0	0.0	0.0	0.0	0.0	0.0	0.0	0.0	0.0	0.0	0.0	0.0	0.0	7	0.9989735998026155	-0.0538385085	0.78185478455	0.01974078645	-0.04127618985	0.79262248625	0.0	-0.0177150908	0.0297796785	0.0038179075	0.0	-0.0013744467	-0.0087048291	-0.058379999999999994	0.23603999999999997	0.12222	0.0168	0.09716	0.40418	-0.047557349175	0.7872386354	0.009870393225	-0.0088575454	0.0142026159	-0.0024434608	-0.020789999999999996	0.16659999999999997	0.2632	-0.94144	5.17792	-964.03456	54.115
18742	4941207	0	-87	1311	27	-110	180	20	-424	1690	816	-70	1326	1	4	-15	-56	109	657	2893	-16	336	-32768	55.24	0.9955193683691091	0.0	53.0	1.002526523562793	0.0	4449.47900390625	-7309.8408203125	37.59999847412109	13.04551124572754	0	0.0	0.0	0.0	0.0	0.0	0.0	0.0	0.0	0.0	0.0	0.0	0.0	7	0.999022945965951	-0.05204389155	0.78424760715	0.01615155255	-0.0418743955	0.7932206919	0.00059820565	-0.016798793	0.027488934	0.003054326	0.0006108652	-0.0022907445	-0.008552112800000001	-0.059359999999999996	0.23659999999999998	0.11424	0.01526	0.09197999999999999	0.40502	-0.046959143525	0.788734149525	0.0083748791	-0.008093963899999999	0.01259909475	-0.0027488934000000007	-0.02205	0.16429	0.25962999999999997	-0.47072	9.88512	-964.03456	54.120000000000005
18743	4941249	0	-92	1308	25	-109	193	21	-424	1690	816	-64	1328	2	1	-12	-54	109	657	2893	-16	288	-32768	55.24	0.9954700222057736	0.0	53.02	1.002408092770787	0.0	4449.47900390625	-7309.8408203125	37.59999847412109	13.04551124572754	0	0.0	0.0	0.0	0.0	0.0	0.0	0.0	0.0	0.0	0.0	0.0	0.0	7	0.9989390574882804	-0.0550349198	0.7824529902	0.01495514125	-0.0382851616	0.7944171032	0.0011964113	-0.0166460767	0.0294742459	0.0032070423	0.0001527163	-0.0018325956	-0.0082466802	-0.059359999999999996	0.23659999999999998	0.11424	0.01526	0.09197999999999999	0.40502	-0.0466600407	0.7884350467000001	0.008075776275	-0.0082466802	0.01382082515	-0.00251981895	-0.02205	0.16429	0.25962999999999997	-0.47072	8.47296	-964.03456	54.13
18744	4941293	0	-83	1311	29	-111	183	24	-424	1690	816	-60	1329	3	5	-13	-59	109	657	2893	-80	304	-32768	55.24	0.9954108068097706	0.0	53.0	1.0026350851221315	0.0	4449.47900390625	-7309.8408203125	37.59999847412109	13.04551124572754	0	0.0	0.0	0.0	0.0	0.0	0.0	0.0	0.0	0.0	0.0	0.0	0.0	7	0.999022945965951	-0.04965106895	0.78424760715	0.01734796385	-0.035892339	0.7950153088499999	0.0017946169499999999	-0.0169515093	0.0279470829	0.0036651912	0.0007635815	-0.0019853119	-0.0090102617	-0.059359999999999996	0.23659999999999998	0.11424	0.01526	0.09197999999999999	0.40502	-0.042771703975000006	0.7896314579999999	0.0095712904	-0.0080939639	0.0129808855	-0.0026725352499999996	-0.02205	0.16429	0.25962999999999997	-2.3536	8.94368	-964.03456	54.120000000000005
18745	4941335	0	-88	1313	29	-108	189	22	-424	1690	816	-66	1323	4	6	-16	-57	109	657	2893	-80	320	-32768	55.25	0.9956081914631136	0.0	52.99	1.0024969158647916	0.0	4449.47900390625	-7309.8408203125	37.59999847412109	13.04551124572754	0	0.0	0.0	0.0	0.0	0.0	0.0	0.0	0.0	0.0	0.0	0.0	0.0	7	0.9990525536639526	-0.0526420972	0.78544401845	0.01734796385	-0.0394815729	0.79142607495	0.0023928226	-0.0164933604	0.0288633807	0.0033597586000000002	0.0009162978	-0.0024434608	-0.0087048291	-0.059359999999999996	0.23659999999999998	0.11424	0.01526	0.09197999999999999	0.40502	-0.04606183505	0.7884350467	0.009870393225	-0.0077885313	0.013209959949999999	-0.00267253525	-0.02205	0.16429	0.25962999999999997	-2.3536	9.4144	-964.03456	54.120000000000005
18746	4941377	0	-85	1311	23	-103	191	19	-424	1690	816	-64	1323	2	0	-11	-49	109	657	2893	-32	240	-32768	55.26	0.9955391068344436	0.0	52.99	1.0024771773994572	0.0	4449.47900390625	-7309.8408203125	37.59999847412109	13.04551124572754	0	0.0	0.0	0.0	0.0	0.0	0.0	0.0	0.0	0.0	0.0	0.0	0.0	7	0.9990081421169503	-0.05084748025	0.78424760715	0.01375872995	-0.0382851616	0.79142607495	0.0011964113	-0.0157297789	0.0291688133	0.0029016097	0.0	-0.0016798793000000001	-0.0074830987	-0.059359999999999996	0.23659999999999998	0.11424	0.01526	0.09197999999999999	0.40502	-0.044566320925	0.78783684105	0.007477570625	-0.00786488945	0.013744467	-0.0022907445	-0.02205	0.16429	0.25962999999999997	-0.94144	7.0608	-964.03456	54.125
18747	4941421	0	-85	1313	27	-110	193	23	-435	1706	793	-65	1327	1	14	-10	-50	108	685	2881	-16	352	-32768	55.25	0.9955687145324452	0.0	52.99	1.0025462620281274	0.0	4449.47900390625	-7309.8408203125	37.59999847412109	13.04551124572754	0	0.0	0.0	0.0	0.0	0.0	0.0	0.0	0.0	0.0	0.0	0.0	0.0	7	0.9990574882802863	-0.05084748025	0.78544401845	0.01615155255	-0.03888336725	0.79381889755	0.00059820565	-0.016798793	0.0294742459	0.0035124749	0.0021380282000000002	-0.001527163	-0.007635815	-0.060899999999999996	0.23883999999999997	0.11102	0.015119999999999998	0.09589999999999999	0.40334	-0.04486542375	0.789631458	0.0083748791	-0.0073303824	0.01397354145	-0.0020616700499999996	-0.02289	0.16736999999999996	0.25717999999999996	-0.47072	10.35584	-964.03456	54.120000000000005
18748	4941463	0	-86	1312	31	-109	190	22	-435	1706	793	-67	1325	4	2	-9	-43	108	685	2881	-16	208	-32768	55.24	0.9955193683691091	0.0	53.0	1.00246730816679	0.0	4449.47900390625	-7309.8408203125	37.59999847412109	13.04551124572754	0	0.0	0.0	0.0	0.0	0.0	0.0	0.0	0.0	0.0	0.0	0.0	0.0	7	0.9989933382679497	-0.051445685899999996	0.7848458128	0.01854437515	-0.04007977855	0.79262248625	0.0023928226	-0.0166460767	0.029016097	0.0033597586000000002	0.0003054326	-0.0013744467	-0.0065668009	-0.060899999999999996	0.23883999999999997	0.11102	0.015119999999999998	0.09589999999999999	0.40334	-0.045762732225	0.788734149525	0.010468598875	-0.008170322050000001	0.01382082515	-0.00160352115	-0.02289	0.16736999999999996	0.25717999999999996	-0.47072	6.11936	-964.03456	54.120000000000005
18749	4941507	0	-80	1309	34	-114	184	20	-435	1706	793	-66	1326	4	-3	-8	-48	108	685	2881	16	272	-32768	55.24	0.9956377991611152	0.0	52.99	1.0024969158647916	0.0	4449.47900390625	-7309.8408203125	37.59999847412109	13.04551124572754	0	0.0	0.0	0.0	0.0	0.0	0.0	0.0	0.0	0.0	0.0	0.0	0.0	7	0.9990673575129534	-0.047856452	0.7830511958499999	0.020338992099999998	-0.0394815729	0.7932206919	0.0023928226	-0.0174096582	0.0280997992	0.003054326	-0.0004581489	-0.0012217304	-0.0073303824	-0.060899999999999996	0.23883999999999997	0.11102	0.015119999999999998	0.09589999999999999	0.40334	-0.04366901245	0.788135943875	0.01136590735	-0.00893390355	0.013439034400000001	-0.0021380282000000002	-0.02289	0.16736999999999996	0.25717999999999996	0.47072	8.00224	-964.03456	54.115
18750	4941549	0	-85	1307	29	-116	185	34	-435	1706	793	-72	1322	2	-2	-11	-41	108	685	2881	-48	336	-32768	55.24	0.9957660991857884	0.0	53.0	1.0024475697014557	0.0	4449.47900390625	-7309.8408203125	37.59999847412109	13.04551124572754	0	0.0	0.0	0.0	0.0	0.0	0.0	0.0	0.0	0.0	0.0	0.0	0.0	7	0.999106834443622	-0.05084748025	0.78185478455	0.01734796385	-0.0430708068	0.7908278692999999	0.0011964113	-0.0177150908	0.0282525155	0.0051923542	-0.0003054326	-0.0016798793000000001	-0.0062613683	-0.060899999999999996	0.23883999999999997	0.11102	0.015119999999999998	0.09589999999999999	0.40334	-0.046959143525	0.7863413269249999	0.009272187574999998	-0.0090102617	0.0132863181	-0.0005345070500000003	-0.02289	0.16736999999999996	0.25717999999999996	-1.41216	9.88512	-964.03456	54.120000000000005
18751	4941593	0	-85	1312	31	-110	183	27	-435	1706	793	-69	1323	5	9	-8	-38	108	685	2881	-32	240	-32768	55.24	0.9957759684184556	0.0	52.99	1.0024771773994572	0.0	4449.47900390625	-7309.8408203125	37.5	13.04551124572754	0	0.0	0.0	0.0	0.0	0.0	0.0	0.0	0.0	0.0	0.0	0.0	0.0	7	0.9991265729089565	-0.05084748025	0.7848458128	0.01854437515	-0.04127618985	0.79142607495	0.00299102825	-0.016798793	0.0279470829	0.0041233401	0.0013744467	-0.0012217304	-0.0058032194	-0.060899999999999996	0.23883999999999997	0.11102	0.015119999999999998	0.09589999999999999	0.40334	-0.04606183505	0.788135943875	0.0107677017	-0.0077121731499999995	0.01336267625	-0.0008399396500000001	-0.02289	0.16736999999999996	0.25717999999999996	-0.94144	7.0608	-964.03456	54.115
18752	4941635	0	-89	1313	34	-100	190	22	-449	1715	834	-64	1327	5	2	-17	-44	75	691	2894	-32	-16	-32768	55.24	0.9955193683691091	0.0	53.01	1.0024771773994572	0.0	4449.47900390625	-7309.8408203125	37.5	13.04551124572754	0	0.0	0.0	0.0	0.0	0.0	0.0	0.0	0.0	0.0	0.0	0.0	0.0	7	0.9989982728842832	-0.05324030285	0.78544401845	0.020338992099999998	-0.0382851616	0.79381889755	0.00299102825	-0.01527163	0.029016097	0.0033597586000000002	0.0003054326	-0.0025961771	-0.0067195172000000004	-0.06286	0.24009999999999998	0.11675999999999999	0.010499999999999999	0.09673999999999999	0.40515999999999996	-0.045762732225	0.789631458	0.011665010174999999	-0.0074830986999999995	0.01320995995	-0.0016798793000000001	-0.026180000000000002	0.16842	0.26095999999999997	-0.94144	-0.47072	-964.03456	54.125
18753	4941677	0	-91	1308	28	-108	192	27	-449	1715	834	-64	1326	4	8	-13	-47	75	691	2894	-64	240	-32768	55.24	0.9956081914631136	0.0	53.0	1.002408092770787	0.0	4449.47900390625	-7309.8408203125	37.5	13.04551124572754	0	0.0	0.0	0.0	0.0	0.0	0.0	0.0	0.0	0.0	0.0	0.0	0.0	7	0.9990081421169503	-0.054436714149999996	0.7824529902	0.0167497582	-0.0382851616	0.7932206919	0.0023928226	-0.0164933604	0.0293215296	0.0041233401	0.0012217304	-0.0019853119	-0.0071776661	-0.06286	0.24009999999999998	0.11675999999999999	0.010499999999999999	0.09673999999999999	0.40515999999999996	-0.046360937874999994	0.7878368410500001	0.0095712904	-0.007635815000000001	0.01366810885	-0.0015271629999999998	-0.026180000000000002	0.16842	0.26095999999999997	-1.88288	7.0608	-964.03456	54.120000000000005
18754	4941721	0	-88	1314	32	-107	200	25	-449	1715	834	-70	1325	-1	6	-18	-42	75	691	2894	-32	240	-32768	55.25	0.9954996299037748	0.0	53.0	1.002279792746114	0.0	4449.47900390625	-7309.8408203125	37.5	13.04551124572754	0	0.0	0.0	0.0	0.0	0.0	0.0	0.0	0.0	0.0	0.0	0.0	0.0	7	0.9988897113249444	-0.0526420972	0.7860422241	0.0191425808	-0.0418743955	0.79262248625	-0.00059820565	-0.0163406441	0.03054326	0.0038179075	0.0009162978	-0.0027488934	-0.0064140846	-0.06286	0.24009999999999998	0.11675999999999999	0.010499999999999999	0.09673999999999999	0.40515999999999996	-0.047258246350000005	0.789332355175	0.009272187575	-0.0077121731499999995	0.0138971833	-0.00129808855	-0.026180000000000002	0.16842	0.26095999999999997	-0.94144	7.0608	-964.03456	54.125
18755	4941763	0	-92	1308	25	-112	184	31	-449	1715	834	-70	1324	4	-11	-16	-50	75	691	2894	80	400	-32768	55.23	0.9956970145571182	0.0	52.99	1.0025363927954605	0.0	4449.47900390625	-7309.8408203125	37.5	13.04551124572754	0	0.0	0.0	0.0	0.0	0.0	0.0	0.0	0.0	0.0	0.0	0.0	0.0	7	0.9991167036762894	-0.0550349198	0.7824529902	0.01495514125	-0.0418743955	0.7920242806	0.0023928226	-0.017104225600000002	0.0280997992	0.0047342053	-0.0016798793000000001	-0.0024434608	-0.007635815	-0.06286	0.24009999999999998	0.11675999999999999	0.010499999999999999	0.09673999999999999	0.40515999999999996	-0.048454657649999996	0.7872386354	0.008673981925	-0.00939205245	0.0128281692	-0.00145080485	-0.026180000000000002	0.16842	0.26095999999999997	2.3536	11.768	-964.03456	54.11
18756	4941807	0	-86	1314	29	-105	178	27	-441	1712	815	-69	1327	-1	2	-11	-45	75	691	2894	-80	336	-32768	55.24	0.9957266222551197	0.0	52.99	1.0025660004934616	0.0	4449.47900390625	-7309.8408203125	37.5	13.04551124572754	0	0.0	0.0	0.0	0.0	0.0	0.0	0.0	0.0	0.0	0.0	0.0	0.0	7	0.9991463113742907	-0.051445685899999996	0.7860422241	0.01734796385	-0.04127618985	0.79381889755	-0.00059820565	-0.0160352115	0.0271835014	0.0041233401	0.0003054326	-0.0016798793000000001	-0.0068722335	-0.061739999999999996	0.23967999999999998	0.1141	0.010499999999999999	0.09673999999999999	0.40515999999999996	-0.046360937874999994	0.789930560825	0.0083748791	-0.00786488945	0.01275181105	-0.0013744467	-0.025619999999999997	0.16820999999999997	0.25962999999999997	-2.3536	9.88512	-964.03456	54.115
18757	4941849	0	-83	1313	19	-107	194	21	-441	1712	815	-67	1325	2	2	-8	-50	108	656	2893	32	224	-32768	55.24	0.9955785837651122	0.0	52.99	1.0024771773994572	0.0	4449.47900390625	-7309.8408203125	37.5	13.04551124572754	0	0.0	0.0	0.0	0.0	0.0	0.0	0.0	0.0	0.0	0.0	0.0	0.0	7	0.9990278805822848	-0.04965106895	0.78544401845	0.01136590735	-0.04007977855	0.79262248625	0.0011964113	-0.0163406441	0.0296269622	0.0032070423	0.0003054326	-0.0012217304	-0.007635815	-0.061739999999999996	0.23967999999999998	0.1141	0.015119999999999998	0.09183999999999999	0.40502	-0.04486542375	0.78903325235	0.006281159325	-0.00801760575	0.0142026159	-0.00221438635	-0.023309999999999997	0.16576	0.25956	0.94144	6.59008	-964.03456	54.115
18758	4941891	0	-85	1310	22	-111	193	26	-441	1712	815	-64	1324	2	11	-5	-45	108	656	2893	0	304	-32768	55.24	0.9955193683691091	0.0	52.99	1.002457438934123	0.0	4449.47900390625	-7309.8408203125	37.5	13.04551124572754	0	0.0	0.0	0.0	0.0	0.0	0.0	0.0	0.0	0.0	0.0	0.0	0.0	7	0.9989884036516161	-0.05084748025	0.7836494015	0.0131605243	-0.0382851616	0.7920242806	0.0011964113	-0.0169515093	0.0294742459	0.0039706238	0.0016798793000000001	-0.0007635815	-0.0068722335	-0.061739999999999996	0.23967999999999998	0.1141	0.015119999999999998	0.09183999999999999	0.40502	-0.044566320925	0.78783684105	0.0071784678	-0.007635815000000001	0.014355332200000001	-0.00145080485	-0.023309999999999997	0.16576	0.25956	0.0	8.94368	-964.03456	54.115
18759	4941935	0	-88	1309	29	-99	203	22	-441	1712	815	-65	1327	3	4	-10	-46	108	656	2893	-16	224	-32768	55.24	0.9956081914631136	0.0	52.99	1.0026449543547988	0.0	4449.47900390625	-7309.8408203125	37.5	13.04551124572754	0	0.0	0.0	0.0	0.0	0.0	0.0	0.0	0.0	0.0	0.0	0.0	0.0	7	0.9991265729089562	-0.0526420972	0.7830511958499999	0.01734796385	-0.03888336725	0.79381889755	0.0017946169499999999	-0.0151189137	0.0310014089	0.0033597586000000002	0.0006108652	-0.001527163	-0.0070249498	-0.061739999999999996	0.23967999999999998	0.1141	0.015119999999999998	0.09183999999999999	0.40502	-0.045762732225000005	0.7884350467	0.0095712904	-0.00725402425	0.014737122949999999	-0.0018325956	-0.023309999999999997	0.16576	0.25956	-0.47072	6.59008	-964.03456	54.115
18760	4941977	0	-79	1310	29	-111	190	12	-441	1712	815	-66	1328	0	6	-12	-51	108	656	2893	-96	240	-32768	55.24	0.9957759684184556	0.0	52.99	1.0024771773994572	0.0	4449.47900390625	-7309.8408203125	37.5	13.04551124572754	0	0.0	0.0	0.0	0.0	0.0	0.0	0.0	0.0	0.0	0.0	0.0	0.0	7	0.9991265729089565	-0.04725824635	0.7836494015	0.01734796385	-0.0394815729	0.7944171032	0.0	-0.0169515093	0.029016097	0.0018325956	0.0009162978	-0.0018325956	-0.0077885313	-0.061739999999999996	0.23967999999999998	0.1141	0.015119999999999998	0.09183999999999999	0.40502	-0.043369909624999994	0.78903325235	0.008673981925	-0.00801760575	0.0135917507	-0.00297796785	-0.023309999999999997	0.16576	0.25956	-2.82432	7.0608	-964.03456	54.115
18761	4942021	0	-82	1309	29	-105	184	22	-435	1701	834	-71	1328	-3	3	2	-47	118	680	2907	-80	304	-32768	55.24	0.9956377991611152	0.0	53.0	1.0025067850974587	0.0	4449.47900390625	-7309.8408203125	37.5	13.04551124572754	0	0.0	0.0	0.0	0.0	0.0	0.0	0.0	0.0	0.0	0.0	0.0	0.0	7	0.9990722921292869	-0.0490528633	0.7830511958499999	0.01734796385	-0.04247260115	0.7944171032	-0.0017946169499999999	-0.0160352115	0.0280997992	0.0033597586000000002	0.0004581489	0.0003054326	-0.0071776661	-0.060899999999999996	0.23814	0.11675999999999999	0.01652	0.09519999999999999	0.40697999999999995	-0.045762732225	0.788734149525	0.0077766734499999995	-0.0077885313	0.0142026159	-0.0019089537499999997	-0.022189999999999998	0.16666999999999998	0.26187	-2.3536	8.94368	-964.03456	54.120000000000005
18762	4942063	0	-83	1312	33	-97	189	26	-435	1701	834	-61	1332	3	6	-6	-48	118	680	2907	-16	256	-32768	55.23	0.9957364914877868	0.0	52.99	1.0026252158894646	0.0	4449.47900390625	-7309.8408203125	37.5	13.04551124572754	0	0.0	0.0	0.0	0.0	0.0	0.0	0.0	0.0	0.0	0.0	0.0	0.0	7	0.9991808536886257	-0.04965106895	0.7848458128	0.01974078645	-0.03649054465	0.7968099258	0.0017946169499999999	-0.0148134811	0.0288633807	0.0039706238	0.0009162978	-0.0009162978	-0.0073303824	-0.060899999999999996	0.23814	0.11675999999999999	0.01652	0.09519999999999999	0.40697999999999995	-0.0430708068	0.7908278692999999	0.0107677017	-0.00694859165	0.01397354145	-0.0016798793000000001	-0.022189999999999998	0.16666999999999998	0.26187	-0.47072	7.53152	-964.03456	54.11
18763	4942107	0	-91	1314	34	-107	189	26	-435	1701	834	-67	1328	3	1	-10	-54	118	680	2907	-80	176	-32768	55.24	0.9956377991611152	0.0	52.99	1.002457438934123	0.0	4449.47900390625	-7309.8408203125	37.5	13.04551124572754	0	0.0	0.0	0.0	0.0	0.0	0.0	0.0	0.0	0.0	0.0	0.0	0.0	7	0.9990476190476191	-0.054436714149999996	0.7860422241	0.020338992099999998	-0.04007977855	0.7944171032	0.0017946169499999999	-0.0163406441	0.0288633807	0.0039706238	0.0001527163	-0.001527163	-0.0082466802	-0.060899999999999996	0.23814	0.11675999999999999	0.01652	0.09519999999999999	0.40697999999999995	-0.04725824635	0.79022966365	0.011066804525	-0.008093963899999999	0.01366810885	-0.0021380282000000002	-0.022189999999999998	0.16666999999999998	0.26187	-2.3536	5.17792	-964.03456	54.115
18764	4942149	0	-82	1311	24	-110	195	24	-435	1701	834	-64	1325	0	0	-12	-49	118	680	2907	-112	224	-32768	55.25	0.9956180606957808	0.0	53.0	1.002408092770787	0.0	4449.47900390625	-7309.8408203125	37.5	13.04551124572754	0	0.0	0.0	0.0	0.0	0.0	0.0	0.0	0.0	0.0	0.0	0.0	0.0	7	0.9990130767332839	-0.0490528633	0.78424760715	0.014356935599999999	-0.0382851616	0.79262248625	0.0	-0.016798793	0.0297796785	0.0036651912	0.0	-0.0018325956	-0.0074830987	-0.060899999999999996	0.23814	0.11675999999999999	0.01652	0.09519999999999999	0.40697999999999995	-0.04366901245	0.7884350467	0.007178467799999999	-0.0083993965	0.01397354145	-0.0019089537500000002	-0.022189999999999998	0.16666999999999998	0.26187	-3.29504	6.59008	-964.03456	54.125
18765	4942191	0	-83	1311	36	-102	190	28	-435	1701	834	-71	1328	3	7	-11	-49	118	680	2907	-64	224	-32768	55.24	0.995746360720454	0.0	52.98	1.0022995312114482	0.0	4449.47900390625	-7309.8408203125	37.5	13.04551124572754	0	0.0	0.0	0.0	0.0	0.0	0.0	0.0	0.0	0.0	0.0	0.0	0.0	7	0.9990229459659511	-0.04965106895	0.78424760715	0.0215354034	-0.04247260115	0.7944171032	0.0017946169499999999	-0.0155770626	0.029016097	0.0042760564000000004	0.0010690141000000001	-0.0016798793000000001	-0.0074830987	-0.060899999999999996	0.23814	0.11675999999999999	0.01652	0.09519999999999999	0.40697999999999995	-0.04606183505	0.789332355175	0.011665010175	-0.00725402425	0.013668108850000001	-0.00160352115	-0.022189999999999998	0.16666999999999998	0.26187	-1.88288	6.59008	-964.03456	54.11
18766	4942235	0	-85	1313	34	-112	197	25	-455	1699	834	-66	1317	-3	1	-20	-46	119	651	2918	-32	272	-32768	55.24	0.9955193683691091	0.0	52.99	1.0023686158401184	0.0	4449.47900390625	-7309.8408203125	37.5	13.04551124572754	0	0.0	0.0	0.0	0.0	0.0	0.0	0.0	0.0	0.0	0.0	0.0	0.0	7	0.9989439921046137	-0.05084748025	0.78544401845	0.020338992099999998	-0.0394815729	0.78783684105	-0.0017946169499999999	-0.017104225600000002	0.0300851111	0.0038179075	0.0001527163	-0.003054326	-0.0070249498	-0.06369999999999999	0.23786	0.11675999999999999	0.016659999999999998	0.09114	0.40851999999999994	-0.045164526575	0.78664042975	0.009272187574999998	-0.00847575465	0.01351539255	-0.0016035211500000002	-0.02352	0.16449999999999998	0.26264	-0.94144	8.00224	-964.03456	54.115
18767	4942277	0	-83	1309	26	-115	199	23	-455	1699	834	-64	1329	4	-2	-18	-46	119	651	2918	32	288	-32768	55.23	0.995627929928448	0.0	53.0	1.002526523562793	0.0	4449.47900390625	-7309.8408203125	37.5	13.04551124572754	0	0.0	0.0	0.0	0.0	0.0	0.0	0.0	0.0	0.0	0.0	0.0	0.0	7	0.9990772267456205	-0.04965106895	0.7830511958499999	0.015553346899999999	-0.0382851616	0.7950153088499999	0.0023928226	-0.0175623745	0.0303905437	0.0035124749	-0.0003054326	-0.0027488934	-0.0070249498	-0.06369999999999999	0.23786	0.11675999999999999	0.016659999999999998	0.09114	0.40851999999999994	-0.043968115275	0.7890332523499999	0.008973084749999999	-0.008933903549999999	0.01382082515	-0.00175623745	-0.02352	0.16449999999999998	0.26264	0.94144	8.47296	-964.03456	54.114999999999995
18768	4942321	0	-83	1316	28	-117	195	29	-455	1699	834	-72	1322	1	-1	-6	-48	119	651	2918	-64	224	-32768	55.24	0.9955785837651122	0.0	52.99	1.0023390081421168	0.0	4449.47900390625	-7309.8408203125	37.5	13.04551124572754	0	0.0	0.0	0.0	0.0	0.0	0.0	0.0	0.0	0.0	0.0	0.0	0.0	7	0.9989587959536146	-0.04965106895	0.7872386353999999	0.0167497582	-0.0430708068	0.7908278692999999	0.00059820565	-0.0178678071	0.0297796785	0.0044287727	-0.0001527163	-0.0009162978	-0.0073303824	-0.06369999999999999	0.23786	0.11675999999999999	0.016659999999999998	0.09114	0.40851999999999994	-0.046360937875	0.7890332523499999	0.008673981925	-0.009010261700000001	0.01443169035	-0.00145080485	-0.02352	0.16449999999999998	0.26264	-1.88288	6.59008	-964.03456	54.115
18769	4942363	0	-90	1308	30	-105	184	29	-455	1699	834	-67	1328	-1	-3	-2	-40	119	651	2918	-48	208	-32768	55.24	0.9955193683691091	0.0	53.0	1.002526523562793	0.0	4449.47900390625	-7309.8408203125	37.5	13.04551124572754	0	0.0	0.0	0.0	0.0	0.0	0.0	0.0	0.0	0.0	0.0	0.0	0.0	7	0.999022945965951	-0.0538385085	0.7824529902	0.0179461695	-0.04007977855	0.7944171032	-0.00059820565	-0.0160352115	0.0280997992	0.0044287727	-0.0004581489	-0.0003054326	-0.006108652	-0.06369999999999999	0.23786	0.11675999999999999	0.016659999999999998	0.09114	0.40851999999999994	-0.046959143525	0.7884350467000001	0.008673981925000001	-0.0082466802	0.013897183300000001	-0.0008399396500000001	-0.02352	0.16449999999999998	0.26264	-1.41216	6.11936	-964.03456	54.120000000000005
18770	4942407	0	-91	1303	28	-109	188	26	-454	1724	802	-70	1327	3	4	-14	-43	119	651	2918	-32	240	-32768	55.24	0.9954996299037748	0.0	52.99	1.002714038983469	0.0	4449.47900390625	-7309.8408203125	37.5	13.04551124572754	0	0.0	0.0	0.0	0.0	0.0	0.0	0.0	0.0	0.0	0.0	0.0	0.0	7	0.9991068344436219	-0.054436714149999996	0.77946196195	0.0167497582	-0.0418743955	0.79381889755	0.0017946169499999999	-0.0166460767	0.0287106644	0.0039706238	0.0006108652	-0.0021380282000000002	-0.0065668009	-0.06355999999999999	0.24136	0.11227999999999999	0.016659999999999998	0.09114	0.40851999999999994	-0.048155554825	0.78664042975	0.009272187575	-0.00801760575	0.0132863181	-0.0012980885500000002	-0.02345	0.16625	0.26039999999999996	-0.94144	7.0608	-964.03456	54.115
18771	4942449	0	-90	1313	21	-119	189	24	-454	1724	802	-72	1323	0	4	-13	-46	104	652	2925	-80	288	-32768	55.24	0.9956476683937824	0.0	53.0	1.0025067850974587	0.0	4449.47900390625	-7309.8408203125	37.5	13.04551124572754	0	0.0	0.0	0.0	0.0	0.0	0.0	0.0	0.0	0.0	0.0	0.0	0.0	7	0.9990772267456205	-0.0538385085	0.78544401845	0.01256231865	-0.0430708068	0.79142607495	0.0	-0.0181732397	0.0288633807	0.0036651912	0.0006108652	-0.0019853119	-0.0070249498	-0.06355999999999999	0.24136	0.11227999999999999	0.014559999999999998	0.09127999999999999	0.4095	-0.048454657649999996	0.7884350467	0.006281159325	-0.00878118725	0.013439034400000001	-0.0016798793000000001	-0.024499999999999997	0.16632	0.26088999999999996	-2.3536	8.47296	-964.03456	54.120000000000005
18772	4942491	0	-89	1313	25	-106	185	24	-454	1724	802	-68	1328	-5	-8	-6	-51	104	652	2925	-80	240	-32768	55.24	0.9956674068591168	0.0	53.0	1.0021909696521096	0.0	4449.47900390625	-7309.8408203125	37.5	13.04551124572754	0	0.0	0.0	0.0	0.0	0.0	0.0	0.0	0.0	0.0	0.0	0.0	0.0	7	0.9989291882556133	-0.05324030285	0.78544401845	0.01495514125	-0.040677984199999996	0.7944171032	-0.00299102825	-0.0161879278	0.0282525155	0.0036651912	-0.0012217304	-0.0009162978	-0.0077885313	-0.06355999999999999	0.24136	0.11227999999999999	0.014559999999999998	0.09127999999999999	0.4095	-0.046959143525	0.789930560825	0.0059820565	-0.0087048291	0.01366810885	-0.00206167005	-0.024499999999999997	0.16632	0.26088999999999996	-2.3536	7.0608	-964.03456	54.120000000000005
18773	4942535	0	-85	1315	25	-110	187	19	-454	1724	802	-69	1327	-7	2	-9	-51	104	652	2925	-64	336	-32768	55.24	0.9955785837651122	0.0	52.99	1.0026252158894646	0.0	4449.47900390625	-7309.8408203125	37.5	13.04551124572754	0	0.0	0.0	0.0	0.0	0.0	0.0	0.0	0.0	0.0	0.0	0.0	0.0	7	0.9991018998272885	-0.05084748025	0.78664042975	0.01495514125	-0.04127618985	0.79381889755	-0.00418743955	-0.016798793	0.0285579481	0.0029016097	0.0003054326	-0.0013744467	-0.0077885313	-0.06355999999999999	0.24136	0.11227999999999999	0.014559999999999998	0.09127999999999999	0.4095	-0.04606183505	0.79022966365	0.00538385085	-0.0082466802	0.0135917507	-0.0024434608	-0.024499999999999997	0.16632	0.26088999999999996	-1.88288	9.88512	-964.03456	54.115
18774	4942577	0	-78	1313	25	-107	187	19	-454	1724	802	-65	1320	-10	10	-10	-59	104	652	2925	-96	176	-32768	55.24	0.9957068837897852	0.0	53.0	1.00239822353812	0.0	4449.47900390625	-7309.8408203125	37.5	13.04551124572754	0	0.0	0.0	0.0	0.0	0.0	0.0	0.0	0.0	0.0	0.0	0.0	0.0	7	0.9990525536639525	-0.0466600407	0.78544401845	0.01495514125	-0.03888336725	0.789631458	-0.0059820565	-0.0163406441	0.0285579481	0.0029016097	0.001527163	-0.001527163	-0.0090102617	-0.06355999999999999	0.24136	0.11227999999999999	0.014559999999999998	0.09127999999999999	0.4095	-0.042771703975000006	0.787537738225	0.004486542374999999	-0.00740674055	0.01351539255	-0.0030543259999999996	-0.024499999999999997	0.16632	0.26088999999999996	-2.82432	5.17792	-964.03456	54.120000000000005
18775	4942621	0	-81	1309	26	-103	187	20	-432	1699	852	-74	1331	0	3	-16	-51	104	652	2925	48	256	-32768	55.23	0.9956377991611152	0.0	52.99	1.0023686158401184	0.0	4449.47900390625	-7309.8408203125	37.5	13.04551124572754	0	0.0	0.0	0.0	0.0	0.0	0.0	0.0	0.0	0.0	0.0	0.0	0.0	7	0.9990032075006168	-0.048454657649999996	0.7830511958499999	0.015553346899999999	-0.0442672181	0.79621172015	0.0	-0.0157297789	0.0285579481	0.003054326	0.0004581489	-0.0024434608	-0.0077885313	-0.06047999999999999	0.23786	0.11927999999999998	0.014559999999999998	0.09127999999999999	0.4095	-0.046360937874999994	0.7896314579999999	0.0077766734499999995	-0.007635815000000001	0.013057243650000001	-0.0023671026500000003	-0.022959999999999998	0.16457	0.26438999999999996	1.41216	7.53152	-964.03456	54.11
18776	4942663	0	-81	1312	30	-104	194	18	-432	1699	852	-64	1326	0	5	-9	-44	98	642	2887	-16	256	-32768	55.25	0.9955094991364422	0.0	52.98	1.002408092770787	0.0	4449.47900390625	-7309.8408203125	37.5	13.04551124572754	0	0.0	0.0	0.0	0.0	0.0	0.0	0.0	0.0	0.0	0.0	0.0	0.0	7	0.9989587959536146	-0.048454657649999996	0.7848458128	0.0179461695	-0.0382851616	0.7932206919	0.0	-0.0158824952	0.0296269622	0.0027488934	0.0007635815	-0.0013744467	-0.0067195172000000004	-0.06047999999999999	0.23786	0.11927999999999998	0.01372	0.08987999999999999	0.40418	-0.043369909624999994	0.78903325235	0.00897308475	-0.007559456849999999	0.01412625775	-0.0019853119000000003	-0.023379999999999998	0.16387	0.26172999999999996	-0.47072	7.53152	-964.03456	54.114999999999995
18777	4942705	0	-85	1314	33	-103	193	18	-432	1699	852	-65	1323	2	8	-10	-38	98	642	2887	-16	-16	-32768	55.24	0.9956476683937824	0.0	52.98	1.0026350851221315	0.0	4449.47900390625	-7309.8408203125	37.5	13.04551124572754	0	0.0	0.0	0.0	0.0	0.0	0.0	0.0	0.0	0.0	0.0	0.0	0.0	7	0.9991413767579569	-0.05084748025	0.7860422241	0.01974078645	-0.03888336725	0.79142607495	0.0011964113	-0.0157297789	0.0294742459	0.0027488934	0.0012217304	-0.001527163	-0.0058032194	-0.06047999999999999	0.23786	0.11927999999999998	0.01372	0.08987999999999999	0.40418	-0.04486542375	0.788734149525	0.010468598874999999	-0.007254024250000001	0.01397354145	-0.0015271630000000002	-0.023379999999999998	0.16387	0.26172999999999996	-0.47072	-0.47072	-964.03456	54.11
18778	4942749	0	-81	1312	34	-100	192	17	-432	1699	852	-63	1330	4	8	-10	-52	98	642	2887	-80	320	-32768	55.23	0.995746360720454	0.0	52.99	1.00239822353812	0.0	4449.47900390625	-7309.8408203125	37.5	13.04551124572754	0	0.0	0.0	0.0	0.0	0.0	0.0	0.0	0.0	0.0	0.0	0.0	0.0	7	0.9990722921292869	-0.048454657649999996	0.7848458128	0.020338992099999998	-0.037686955949999996	0.7956135145	0.0023928226	-0.01527163	0.0293215296	0.0025961771	0.0012217304	-0.001527163	-0.0079412476	-0.06047999999999999	0.23786	0.11927999999999998	0.01372	0.08987999999999999	0.40418	-0.0430708068	0.7902296636499999	0.01136590735	-0.007024949799999999	0.0138971833	-0.00267253525	-0.023379999999999998	0.16387	0.26172999999999996	-2.3536	9.4144	-964.03456	54.11
18779	4942791	0	-86	1309	35	-112	180	30	-432	1699	852	-66	1325	3	12	-7	-48	98	642	2887	32	288	-32768	55.23	0.995627929928448	0.0	52.99	1.00239822353812	0.0	4449.47900390625	-7309.8408203125	37.5	13.04551124572754	0	0.0	0.0	0.0	0.0	0.0	0.0	0.0	0.0	0.0	0.0	0.0	0.0	7	0.9990130767332839	-0.051445685899999996	0.7830511958499999	0.02093719775	-0.0394815729	0.79262248625	0.0017946169499999999	-0.017104225600000002	0.027488934	0.004581489	0.0018325956	-0.0010690141000000001	-0.0073303824	-0.06047999999999999	0.23786	0.11927999999999998	0.01372	0.08987999999999999	0.40418	-0.0454636294	0.78783684105	0.011365907350000001	-0.007635815000000001	0.013209959949999999	-0.0013744467	-0.023379999999999998	0.16387	0.26172999999999996	0.94144	8.47296	-964.03456	54.11
18780	4942835	0	-81	1312	30	-100	189	25	-454	1719	811	-67	1322	3	4	-13	-55	98	642	2887	-16	240	-32768	55.24	0.9955983222304464	0.0	52.99	1.002220577350111	0.0	4449.47900390625	-7309.8408203125	37.5	13.04551124572754	0	0.0	0.0	0.0	0.0	0.0	0.0	0.0	0.0	0.0	0.0	0.0	0.0	7	0.9989094497902786	-0.048454657649999996	0.7848458128	0.0179461695	-0.04007977855	0.7908278692999999	0.0017946169499999999	-0.01527163	0.0288633807	0.0038179075	0.0006108652	-0.0019853119	-0.0083993965	-0.06355999999999999	0.24065999999999999	0.11353999999999999	0.01372	0.08987999999999999	0.40418	-0.0442672181	0.78783684105	0.009870393225000001	-0.0073303824	0.013439034400000001	-0.0022907444999999997	-0.024919999999999998	0.16526999999999997	0.25886	-0.47072	7.0608	-964.03456	54.115
18781	4942877	0	-83	1313	37	-109	184	27	-454	1719	811	-70	1324	3	-10	-9	-38	125	653	2908	80	240	-32768	55.24	0.9955785837651122	0.0	53.01	1.002417962003454	0.0	4449.47900390625	-7309.8408203125	37.5	13.04551124572754	0	0.0	0.0	0.0	0.0	0.0	0.0	0.0	0.0	0.0	0.0	0.0	0.0	7	0.998998272884283	-0.04965106895	0.78544401845	0.02213360905	-0.0418743955	0.7920242806	0.0017946169499999999	-0.0166460767	0.0280997992	0.0041233401	-0.001527163	-0.0013744467	-0.0058032194	-0.06355999999999999	0.24065999999999999	0.11353999999999999	0.017499999999999998	0.09141999999999999	0.40712	-0.045762732225000005	0.788734149525	0.011964113	-0.009086619850000002	0.01336267625	-0.0008399396500000001	-0.023029999999999995	0.16604	0.26033	2.3536	7.0608	-964.03456	54.125
18782	4942921	0	-87	1314	33	-113	187	33	-454	1719	811	-65	1324	4	-1	-11	-48	125	653	2908	-32	240	-32768	55.24	0.9955983222304464	0.0	52.99	1.0024377004687886	0.0	4449.47900390625	-7309.8408203125	37.5	13.04551124572754	0	0.0	0.0	0.0	0.0	0.0	0.0	0.0	0.0	0.0	0.0	0.0	0.0	7	0.9990180113496174	-0.05204389155	0.7860422241	0.01974078645	-0.03888336725	0.7920242806	0.0023928226	-0.0172569419	0.0285579481	0.0050396379	-0.0001527163	-0.0016798793000000001	-0.0073303824	-0.06355999999999999	0.24065999999999999	0.11353999999999999	0.017499999999999998	0.09141999999999999	0.40712	-0.0454636294	0.78903325235	0.011066804525	-0.0087048291	0.013439034400000001	-0.0011453722499999998	-0.023029999999999995	0.16604	0.26033	-0.94144	7.0608	-964.03456	54.115
18783	4942963	0	-89	1311	30	-109	185	27	-454	1719	811	-71	1327	3	6	-18	-42	125	653	2908	48	320	-32768	55.24	0.9956377991611152	0.0	52.99	1.0024969158647916	0.0	4449.47900390625	-7309.8408203125	37.5	13.04551124572754	0	0.0	0.0	0.0	0.0	0.0	0.0	0.0	0.0	0.0	0.0	0.0	0.0	7	0.9990673575129534	-0.05324030285	0.78424760715	0.0179461695	-0.04247260115	0.79381889755	0.0017946169499999999	-0.0166460767	0.0282525155	0.0041233401	0.0009162978	-0.0027488934	-0.0064140846	-0.06355999999999999	0.24065999999999999	0.11353999999999999	0.017499999999999998	0.09141999999999999	0.40712	-0.047856451999999994	0.78903325235	0.009870393225000001	-0.00786488945	0.012751811049999999	-0.0011453722499999998	-0.023029999999999995	0.16604	0.26033	1.41216	9.4144	-964.03456	54.115
18784	4943005	0	-83	1309	24	-106	194	28	-440	1718	815	-68	1330	1	-1	-2	-46	125	653	2908	64	240	-32768	55.24	0.9953515914137676	0.0	53.0	1.002408092770787	0.0	4449.47900390625	-7309.8408203125	37.5	13.04551124572754	0	0.0	0.0	0.0	0.0	0.0	0.0	0.0	0.0	0.0	0.0	0.0	0.0	7	0.9988798420922773	-0.04965106895	0.7830511958499999	0.014356935599999999	-0.040677984199999996	0.7956135145	0.00059820565	-0.0161879278	0.0296269622	0.0042760564000000004	-0.0001527163	-0.0003054326	-0.0070249498	-0.061599999999999995	0.24051999999999998	0.1141	0.017499999999999998	0.09141999999999999	0.40712	-0.045164526575	0.789332355175	0.007477570624999999	-0.008170322050000001	0.0146607648	-0.0013744467	-0.02205	0.16596999999999998	0.26061	1.88288	7.0608	-964.03456	54.120000000000005
18785	4943049	0	-89	1311	34	-118	187	22	-440	1718	815	-62	1321	-1	-6	-9	-44	126	652	2929	32	272	-32768	55.24	0.9956081914631136	0.0	53.0	1.002526523562793	0.0	4449.47900390625	-7309.8408203125	37.5	13.04551124572754	0	0.0	0.0	0.0	0.0	0.0	0.0	0.0	0.0	0.0	0.0	0.0	0.0	7	0.9990673575129533	-0.05324030285	0.78424760715	0.020338992099999998	-0.0370887503	0.79022966365	-0.00059820565	-0.0180205234	0.0285579481	0.0033597586000000002	-0.0009162978	-0.0013744467	-0.0067195172000000004	-0.061599999999999995	0.24051999999999998	0.1141	0.01764	0.09127999999999999	0.41006	-0.045164526575	0.7872386354	0.009870393225	-0.0094684106	0.0135917507	-0.0016798793000000001	-0.02198	0.1659	0.26208	0.94144	8.00224	-964.03456	54.120000000000005
18786	4943091	0	-90	1311	30	-110	192	22	-440	1718	815	-69	1323	1	-1	-5	-51	126	652	2929	-80	304	-32768	55.24	0.9957660991857884	0.0	52.99	1.0023390081421168	0.0	4449.47900390625	-7309.8408203125	37.5	13.04551124572754	0	0.0	0.0	0.0	0.0	0.0	0.0	0.0	0.0	0.0	0.0	0.0	0.0	7	0.9990525536639526	-0.0538385085	0.78424760715	0.0179461695	-0.04127618985	0.79142607495	0.00059820565	-0.016798793	0.0293215296	0.0033597586000000002	-0.0001527163	-0.0007635815	-0.0077885313	-0.061599999999999995	0.24051999999999998	0.1141	0.01764	0.09127999999999999	0.41006	-0.047557349175	0.78783684105	0.009272187575	-0.00847575465	0.01427897405	-0.00221438635	-0.02198	0.1659	0.26208	-2.3536	8.94368	-964.03456	54.115
18787	4943135	0	-81	1316	31	-103	181	19	-440	1718	815	-61	1325	-1	4	-13	-53	126	652	2929	0	336	-32768	55.23	0.9955094991364422	0.0	52.99	1.0024771773994572	0.0	4449.47900390625	-7309.8408203125	37.5	13.04551124572754	0	0.0	0.0	0.0	0.0	0.0	0.0	0.0	0.0	0.0	0.0	0.0	0.0	7	0.9989933382679497	-0.048454657649999996	0.7872386353999999	0.01854437515	-0.03649054465	0.79262248625	-0.00059820565	-0.0157297789	0.0276416503	0.0029016097	0.0006108652	-0.0019853119	-0.0080939639	-0.061599999999999995	0.24051999999999998	0.1141	0.01764	0.09127999999999999	0.41006	-0.04247260115	0.789930560825	0.00897308475	-0.007559456850000001	0.0128281692	-0.0025961771000000003	-0.02198	0.1659	0.26208	0.0	9.88512	-964.03456	54.11
18788	4943177	0	-87	1312	26	-113	186	16	-440	1718	815	-66	1324	-12	2	-9	-47	126	652	2929	32	336	-32768	55.24	0.9953515914137676	0.0	52.99	1.0024278312361214	0.0	4449.47900390625	-7309.8408203125	37.5	13.04551124572754	0	0.0	0.0	0.0	0.0	0.0	0.0	0.0	0.0	0.0	0.0	0.0	0.0	7	0.9988897113249445	-0.05204389155	0.7848458128	0.015553346899999999	-0.0394815729	0.7920242806	-0.007178467799999999	-0.0172569419	0.0284052318	0.0024434608	0.0003054326	-0.0013744467	-0.0071776661	-0.061599999999999995	0.24051999999999998	0.1141	0.01764	0.09127999999999999	0.41006	-0.045762732225	0.7884350467	0.00418743955	-0.00847575465	0.01351539255	-0.00236710265	-0.02198	0.1659	0.26208	0.94144	9.88512	-964.03456	54.115
18789	4943221	0	-86	1308	25	-96	176	21	-422	1694	816	-69	1324	-2	6	-11	-43	126	652	2929	-16	288	-32768	55.24	0.9955193683691091	0.0	52.99	1.0024278312361214	0.0	4449.47900390625	-7309.8408203125	37.5	13.04551124572754	0	0.0	0.0	0.0	0.0	0.0	0.0	0.0	0.0	0.0	0.0	0.0	0.0	7	0.9989735998026152	-0.051445685899999996	0.7824529902	0.01495514125	-0.04127618985	0.7920242806	-0.0011964113	-0.0146607648	0.026878068800000002	0.0032070423	0.0009162978	-0.0016798793000000001	-0.0065668009	-0.059079999999999994	0.23715999999999998	0.11424	0.01764	0.09127999999999999	0.41006	-0.046360937874999994	0.7872386354	0.006879364975	-0.0068722335	0.012599094750000001	-0.0016798793000000001	-0.020719999999999995	0.16421999999999998	0.26215	-0.47072	8.47296	-964.03456	54.115
18790	4943263	0	-86	1308	31	-107	195	19	-422	1694	816	-68	1324	2	4	-1	-50	145	658	2898	-16	288	-32768	55.22	0.9955983222304464	0.0	53.0	1.002526523562793	0.0	4449.47900390625	-7309.8408203125	37.5	13.04551124572754	0	0.0	0.0	0.0	0.0	0.0	0.0	0.0	0.0	0.0	0.0	0.0	0.0	7	0.9990624228966196	-0.051445685899999996	0.7824529902	0.01854437515	-0.040677984199999996	0.7920242806	0.0011964113	-0.0163406441	0.0297796785	0.0029016097	0.0006108652	-0.0001527163	-0.007635815	-0.059079999999999994	0.23715999999999998	0.11424	0.0203	0.09212	0.40571999999999997	-0.04606183505	0.7872386354	0.009870393225	-0.007864889449999999	0.0148134811	-0.00236710265	-0.019389999999999998	0.16463999999999998	0.25998	-0.47072	8.47296	-964.03456	54.11
18791	4943305	0	-88	1302	28	-106	190	29	-422	1694	816	-69	1321	3	13	-15	-56	145	658	2898	-32	176	-32768	55.24	0.9956377991611152	0.0	52.99	1.0024771773994572	0.0	4449.47900390625	-7309.8408203125	37.5	13.04551124572754	0	0.0	0.0	0.0	0.0	0.0	0.0	0.0	0.0	0.0	0.0	0.0	0.0	7	0.9990574882802862	-0.0526420972	0.7788637562999999	0.0167497582	-0.04127618985	0.79022966365	0.0017946169499999999	-0.0161879278	0.029016097	0.0044287727	0.0019853119	-0.0022907445	-0.008552112800000001	-0.059079999999999994	0.23715999999999998	0.11424	0.0203	0.09212	0.40571999999999997	-0.046959143525	0.784546709975	0.009272187575	-0.007101307950000001	0.01336267625	-0.0020616700500000005	-0.019389999999999998	0.16463999999999998	0.25998	-0.94144	5.17792	-964.03456	54.115
18792	4943349	0	-82	1306	30	-97	197	25	-422	1694	816	-61	1325	2	-2	-4	-55	145	658	2898	32	192	-32768	55.24	0.9955391068344436	0.0	52.99	1.0027337774488034	0.0	4449.47900390625	-7309.8408203125	37.5	13.04551124572754	0	0.0	0.0	0.0	0.0	0.0	0.0	0.0	0.0	0.0	0.0	0.0	0.0	7	0.9991364421416236	-0.0490528633	0.7812565789	0.0179461695	-0.03649054465	0.79262248625	0.0011964113	-0.0148134811	0.0300851111	0.0038179075	-0.0003054326	-0.0006108652	-0.0083993965	-0.059079999999999994	0.23715999999999998	0.11424	0.0203	0.09212	0.40571999999999997	-0.042771703975	0.7869395325749999	0.0095712904	-0.00755945685	0.014737122949999999	-0.0022907444999999997	-0.019389999999999998	0.16463999999999998	0.25998	0.94144	5.64864	-964.03456	54.115
18793	4943391	0	-81	1310	27	-108	192	19	-422	1694	816	-68	1325	0	6	-7	-51	145	658	2898	48	320	-32768	55.24	0.9956081914631136	0.0	52.99	1.002457438934123	0.0	4449.47900390625	-7309.8408203125	37.5	13.04551124572754	0	0.0	0.0	0.0	0.0	0.0	0.0	0.0	0.0	0.0	0.0	0.0	0.0	7	0.9990328151986183	-0.048454657649999996	0.7836494015	0.01615155255	-0.040677984199999996	0.79262248625	0.0	-0.0164933604	0.0293215296	0.0029016097	0.0009162978	-0.0010690141000000001	-0.0077885313	-0.059079999999999994	0.23715999999999998	0.11424	0.0203	0.09212	0.40571999999999997	-0.044566320925	0.788135943875	0.008075776275	-0.0077885313	0.01412625775	-0.0024434608	-0.019389999999999998	0.16463999999999998	0.25998	1.41216	9.4144	-964.03456	54.115
18794	4943435	0	-88	1307	38	-107	188	21	-412	1676	823	-64	1324	5	15	-4	-43	145	658	2898	-16	320	-32768	55.24	0.9955391068344436	0.0	53.0	1.00246730816679	0.0	4449.47900390625	-7309.8408203125	37.5	13.04551124572754	0	0.0	0.0	0.0	0.0	0.0	0.0	0.0	0.0	0.0	0.0	0.0	0.0	7	0.9990032075006168	-0.0526420972	0.78185478455	0.0227318147	-0.0382851616	0.7920242806	0.00299102825	-0.0163406441	0.0287106644	0.0032070423	0.0022907445	-0.0006108652	-0.0065668009	-0.057679999999999995	0.23464	0.11521999999999999	0.0203	0.09212	0.40571999999999997	-0.0454636294	0.7869395325749999	0.012861421474999999	-0.007024949799999999	0.014049899599999999	-0.0016798793000000001	-0.01869	0.16338	0.26047	-0.47072	9.4144	-964.03456	54.120000000000005
18795	4943477	0	-81	1315	30	-114	179	29	-412	1676	823	-64	1324	4	-1	-9	-52	107	693	2893	-16	240	-32768	55.24	0.9956476683937824	0.0	52.99	1.0025660004934616	0.0	4449.47900390625	-7309.8408203125	37.5	13.04551124572754	0	0.0	0.0	0.0	0.0	0.0	0.0	0.0	0.0	0.0	0.0	0.0	0.0	7	0.999106834443622	-0.048454657649999996	0.78664042975	0.0179461695	-0.0382851616	0.7920242806	0.0023928226	-0.0174096582	0.0273362177	0.0044287727	-0.0001527163	-0.0013744467	-0.0079412476	-0.057679999999999995	0.23464	0.11521999999999999	0.014979999999999999	0.09702	0.40502	-0.043369909624999994	0.789332355175	0.01016949605	-0.008781187250000001	0.012980885499999999	-0.0017562374499999998	-0.021349999999999997	0.16582999999999998	0.26012	-0.47072	7.0608	-964.03456	54.115
18796	4943519	0	-83	1312	32	-113	186	23	-412	1676	823	-71	1322	4	6	-8	-48	107	693	2893	-64	336	-32768	55.25	0.995677276091784	0.0	53.0	1.0025660004934616	0.0	4449.47900390625	-7309.8408203125	37.5	13.04551124572754	0	0.0	0.0	0.0	0.0	0.0	0.0	0.0	0.0	0.0	0.0	0.0	0.0	7	0.9991216382926228	-0.04965106895	0.7848458128	0.0191425808	-0.04247260115	0.7908278692999999	0.0023928226	-0.0172569419	0.0284052318	0.0035124749	0.0009162978	-0.0012217304	-0.0073303824	-0.057679999999999995	0.23464	0.11521999999999999	0.014979999999999999	0.09702	0.40502	-0.04606183505	0.78783684105	0.0107677017	-0.00817032205	0.0135917507	-0.00190895375	-0.021349999999999997	0.16582999999999998	0.26012	-1.88288	9.88512	-964.03456	54.125
18797	4943563	0	-81	1312	29	-105	183	23	-412	1676	823	-65	1323	4	1	-2	-40	107	693	2893	-16	240	-32768	55.24	0.9956476683937824	0.0	53.0	1.0025067850974587	0.0	4449.47900390625	-7309.8408203125	37.5	13.04551124572754	0	0.0	0.0	0.0	0.0	0.0	0.0	0.0	0.0	0.0	0.0	0.0	0.0	7	0.9990772267456205	-0.048454657649999996	0.7848458128	0.01734796385	-0.03888336725	0.79142607495	0.0023928226	-0.0160352115	0.0279470829	0.0035124749	0.0001527163	-0.0003054326	-0.006108652	-0.057679999999999995	0.23464	0.11521999999999999	0.014979999999999999	0.09702	0.40502	-0.04366901245	0.788135943875	0.009870393225	-0.0079412476	0.01382082515	-0.00129808855	-0.021349999999999997	0.16582999999999998	0.26012	-0.47072	7.0608	-964.03456	54.120000000000005
18798	4943605	0	-90	1309	28	-111	201	27	-437	1706	823	-65	1324	3	-8	-8	-40	107	693	2893	-32	224	-32768	55.23	0.995677276091784	0.0	52.99	1.00239822353812	0.0	4449.47900390625	-7309.8408203125	37.5	13.04551124572754	0	0.0	0.0	0.0	0.0	0.0	0.0	0.0	0.0	0.0	0.0	0.0	0.0	7	0.999037749814952	-0.0538385085	0.7830511958499999	0.0167497582	-0.03888336725	0.7920242806	0.0017946169499999999	-0.0169515093	0.0306959763	0.0041233401	-0.0012217304	-0.0012217304	-0.006108652	-0.06117999999999999	0.23883999999999997	0.11521999999999999	0.014979999999999999	0.09702	0.40502	-0.046360937875	0.787537738225	0.009272187575	-0.00908661985	0.01473712295	-0.00099265595	-0.023099999999999996	0.16792999999999997	0.26012	-0.94144	6.59008	-964.03456	54.11
18799	4943649	0	-88	1315	23	-116	184	30	-437	1706	823	-64	1328	2	0	-14	-54	107	693	2893	16	256	-32768	55.23	0.9957364914877868	0.0	52.99	1.00239822353812	0.0	4449.47900390625	-7309.8408203125	37.5	13.04551124572754	0	0.0	0.0	0.0	0.0	0.0	0.0	0.0	0.0	0.0	0.0	0.0	0.0	7	0.9990673575129534	-0.0526420972	0.78664042975	0.01375872995	-0.0382851616	0.7944171032	0.0011964113	-0.0177150908	0.0280997992	0.004581489	0.0	-0.0021380282000000002	-0.0082466802	-0.06117999999999999	0.23883999999999997	0.11521999999999999	0.014979999999999999	0.09702	0.40502	-0.0454636294	0.790528766475	0.007477570625	-0.0088575454	0.0129808855	-0.0018325956	-0.023099999999999996	0.16792999999999997	0.26012	0.47072	7.53152	-964.03456	54.11
18800	4943691	0	-86	1310	28	-101	180	29	-437	1706	823	-62	1322	3	-5	-7	-57	118	662	2903	0	-16	-32768	55.24	0.9958351838144583	0.0	53.0	1.00239822353812	0.0	4449.47900390625	-7309.8408203125	37.5	13.04551124572754	0	0.0	0.0	0.0	0.0	0.0	0.0	0.0	0.0	0.0	0.0	0.0	0.0	7	0.9991167036762891	-0.051445685899999996	0.7836494015	0.0167497582	-0.0370887503	0.7908278692999999	0.0017946169499999999	-0.0154243463	0.027488934	0.0044287727	-0.0007635815	-0.0010690141000000001	-0.0087048291	-0.06117999999999999	0.23883999999999997	0.11521999999999999	0.01652	0.09268	0.40641999999999995	-0.0442672181	0.7872386353999999	0.009272187575	-0.0080939639	0.013209959949999999	-0.0021380282000000002	-0.022329999999999996	0.16576	0.26081999999999994	0.0	-0.47072	-964.03456	54.120000000000005
18801	4943735	0	-87	1315	28	-110	185	28	-437	1706	823	-73	1330	-4	-8	-7	-48	118	662	2903	-80	240	-32768	55.24	0.9957660991857884	0.0	52.99	1.0023883543054528	0.0	4449.47900390625	-7309.8408203125	37.5	13.04551124572754	0	0.0	0.0	0.0	0.0	0.0	0.0	0.0	0.0	0.0	0.0	0.0	0.0	7	0.9990772267456206	-0.05204389155	0.78664042975	0.0167497582	-0.043669012449999996	0.7956135145	-0.0023928226	-0.016798793	0.0282525155	0.0042760564000000004	-0.0012217304	-0.0010690141000000001	-0.0073303824	-0.06117999999999999	0.23883999999999997	0.11521999999999999	0.01652	0.09268	0.40641999999999995	-0.047856451999999994	0.791126972125	0.007178467799999999	-0.0090102617	0.013591750699999999	-0.0015271629999999998	-0.022329999999999996	0.16576	0.26081999999999994	-2.3536	7.0608	-964.03456	54.115
18802	4943777	0	-85	1307	24	-100	180	24	-437	1706	823	-66	1328	1	2	-15	-44	118	662	2903	-32	288	-32768	55.25	0.9957364914877868	0.0	53.0	1.00246730816679	0.0	4449.47900390625	-7309.8408203125	37.5	13.04551124572754	0	0.0	0.0	0.0	0.0	0.0	0.0	0.0	0.0	0.0	0.0	0.0	0.0	7	0.9991018998272885	-0.05084748025	0.78185478455	0.014356935599999999	-0.0394815729	0.7944171032	0.00059820565	-0.01527163	0.027488934	0.0036651912	0.0003054326	-0.0022907445	-0.0067195172000000004	-0.06117999999999999	0.23883999999999997	0.11521999999999999	0.01652	0.09268	0.40641999999999995	-0.045164526575	0.788135943875	0.007477570624999999	-0.0074830986999999995	0.01259909475	-0.0015271630000000002	-0.022329999999999996	0.16576	0.26081999999999994	-0.94144	8.47296	-964.03456	54.125
18803	4943819	0	-87	1309	25	-105	196	16	-418	1695	849	-71	1325	-4	2	-11	-46	118	662	2903	16	320	-32768	55.23	0.9954700222057736	0.0	52.99	1.0024377004687886	0.0	4449.47900390625	-7309.8408203125	37.5	13.04551124572754	0	0.0	0.0	0.0	0.0	0.0	0.0	0.0	0.0	0.0	0.0	0.0	0.0	7	0.998953861337281	-0.05204389155	0.7830511958499999	0.01495514125	-0.04247260115	0.79262248625	-0.0023928226	-0.0160352115	0.0299323948	0.0024434608	0.0003054326	-0.0016798793000000001	-0.0070249498	-0.058519999999999996	0.23729999999999998	0.11886	0.01652	0.09268	0.40641999999999995	-0.04725824635	0.78783684105	0.006281159325	-0.00786488945	0.014126257750000001	-0.0022907445	-0.020999999999999998	0.16499	0.26264	0.47072	9.4144	-964.03456	54.11
18804	4943863	0	-92	1314	29	-104	198	13	-418	1695	849	-70	1324	-2	6	-11	-51	118	662	2903	-80	224	-32768	55.23	0.9956377991611152	0.0	52.99	1.0024377004687886	0.0	4449.47900390625	-7309.8408203125	37.5	13.04551124572754	0	0.0	0.0	0.0	0.0	0.0	0.0	0.0	0.0	0.0	0.0	0.0	0.0	7	0.9990377498149519	-0.0550349198	0.7860422241	0.01734796385	-0.0418743955	0.7920242806	-0.0011964113	-0.0158824952	0.0302378274	0.0019853119	0.0009162978	-0.0016798793000000001	-0.0077885313	-0.058519999999999996	0.23729999999999998	0.11886	0.01652	0.09268	0.40641999999999995	-0.048454657649999996	0.78903325235	0.008075776275	-0.0074830986999999995	0.01427897405	-0.0029016097	-0.020999999999999998	0.16499	0.26264	-2.3536	6.59008	-964.03456	54.11
18805	4943905	0	-82	1313	30	-105	191	24	-418	1695	849	-73	1330	-2	5	-7	-48	113	669	2897	64	192	-32768	55.24	0.9956476683937824	0.0	52.99	1.0023686158401184	0.0	4449.47900390625	-7309.8408203125	37.5	13.04551124572754	0	0.0	0.0	0.0	0.0	0.0	0.0	0.0	0.0	0.0	0.0	0.0	0.0	7	0.9990081421169503	-0.0490528633	0.78544401845	0.0179461695	-0.043669012449999996	0.7956135145	-0.0011964113	-0.0160352115	0.0291688133	0.0036651912	0.0007635815	-0.0010690141000000001	-0.0073303824	-0.058519999999999996	0.23729999999999998	0.11886	0.015819999999999997	0.09366	0.40557999999999994	-0.046360937874999994	0.790528766475	0.008374879100000001	-0.007635815	0.014049899599999999	-0.0018325956	-0.02135	0.16548	0.26221999999999995	1.88288	5.64864	-964.03456	54.115
18806	4943949	0	-83	1311	32	-94	181	20	-418	1695	849	-68	1326	2	4	-8	-47	113	669	2897	32	288	-32768	55.25	0.9955094991364422	0.0	52.99	1.0024771773994572	0.0	4449.47900390625	-7309.8408203125	37.5	13.04551124572754	0	0.0	0.0	0.0	0.0	0.0	0.0	0.0	0.0	0.0	0.0	0.0	0.0	7	0.9989933382679497	-0.04965106895	0.78424760715	0.0191425808	-0.040677984199999996	0.7932206919	0.0011964113	-0.0143553322	0.0276416503	0.003054326	0.0006108652	-0.0012217304	-0.0071776661	-0.058519999999999996	0.23729999999999998	0.11886	0.015819999999999997	0.09366	0.40557999999999994	-0.045164526575	0.788734149525	0.010169496049999999	-0.0068722335	0.01320995995	-0.0020616700499999996	-0.02135	0.16548	0.26221999999999995	0.94144	8.47296	-964.03456	54.120000000000005
18807	4943991	0	-86	1309	32	-103	189	24	-444	1701	840	-69	1328	1	7	-8	-50	113	669	2897	0	240	-32768	55.24	0.9956081914631136	0.0	52.99	1.002457438934123	0.0	4449.47900390625	-7309.8408203125	37.5	13.04551124572754	0	0.0	0.0	0.0	0.0	0.0	0.0	0.0	0.0	0.0	0.0	0.0	0.0	7	0.9990328151986183	-0.051445685899999996	0.7830511958499999	0.0191425808	-0.04127618985	0.7944171032	0.00059820565	-0.0157297789	0.0288633807	0.0036651912	0.0010690141000000001	-0.0012217304	-0.007635815	-0.06215999999999999	0.23814	0.1176	0.015819999999999997	0.09366	0.40557999999999994	-0.046360937874999994	0.788734149525	0.009870393225	-0.007330382400000001	0.01382082515	-0.0019853119	-0.023169999999999996	0.1659	0.26159	0.0	7.0608	-964.03456	54.115
18808	4944035	0	-88	1312	29	-105	185	19	-444	1701	840	-67	1324	4	9	-8	-49	113	669	2897	-144	240	-32768	55.24	0.9954996299037748	0.0	52.99	1.0023094004441155	0.0	4449.47900390625	-7309.8408203125	37.5	13.04551124572754	0	0.0	0.0	0.0	0.0	0.0	0.0	0.0	0.0	0.0	0.0	0.0	0.0	7	0.9989045151739452	-0.0526420972	0.7848458128	0.01734796385	-0.04007977855	0.7920242806	0.0023928226	-0.0160352115	0.0282525155	0.0029016097	0.0013744467	-0.0012217304	-0.0074830987	-0.06215999999999999	0.23814	0.1176	0.015819999999999997	0.09366	0.40557999999999994	-0.046360937875	0.7884350467	0.009870393225	-0.0073303824	0.01351539255	-0.0022907445	-0.023169999999999996	0.1659	0.26159	-4.23648	7.0608	-964.03456	54.115
18809	4944077	0	-87	1312	26	-104	198	18	-444	1701	840	-65	1325	1	4	3	-44	120	666	2912	-32	176	-32768	55.24	0.9955391068344436	0.0	52.99	1.0024377004687886	0.0	4449.47900390625	-7309.8408203125	37.5	13.04551124572754	0	0.0	0.0	0.0	0.0	0.0	0.0	0.0	0.0	0.0	0.0	0.0	0.0	7	0.9989884036516161	-0.05204389155	0.7848458128	0.015553346899999999	-0.03888336725	0.79262248625	0.00059820565	-0.0158824952	0.0302378274	0.0027488934	0.0006108652	0.0004581489	-0.0067195172000000004	-0.06215999999999999	0.23814	0.1176	0.0168	0.09323999999999999	0.40768	-0.0454636294	0.788734149525	0.008075776275	-0.007635815	0.01534798815	-0.0019853119000000003	-0.02268	0.16569	0.26264	-0.94144	5.17792	-964.03456	54.115
18810	4944119	0	-88	1314	33	-96	195	21	-444	1701	840	-63	1318	0	1	-4	-54	120	666	2912	-80	448	-32768	55.24	0.9955785837651122	0.0	52.99	1.0023883543054528	0.0	4449.47900390625	-7309.8408203125	37.5	13.04551124572754	0	0.0	0.0	0.0	0.0	0.0	0.0	0.0	0.0	0.0	0.0	0.0	0.0	7	0.9989834690352826	-0.0526420972	0.7860422241	0.01974078645	-0.037686955949999996	0.7884350467	0.0	-0.0146607648	0.0297796785	0.0032070423	0.0001527163	-0.0006108652	-0.0082466802	-0.06215999999999999	0.23814	0.1176	0.0168	0.09323999999999999	0.40768	-0.045164526575	0.7872386354	0.009870393225	-0.00725402425	0.01458440665	-0.00251981895	-0.02268	0.16569	0.26264	-2.3536	13.18016	-964.03456	54.115
18811	4944163	0	-86	1315	30	-111	196	28	-444	1701	840	-63	1329	5	-3	-4	-45	120	666	2912	-96	240	-32768	55.23	0.995627929928448	0.0	53.0	1.00239822353812	0.0	4449.47900390625	-7309.8408203125	37.5	13.04551124572754	0	0.0	0.0	0.0	0.0	0.0	0.0	0.0	0.0	0.0	0.0	0.0	0.0	7	0.9990130767332839	-0.051445685899999996	0.78664042975	0.0179461695	-0.037686955949999996	0.7950153088499999	0.00299102825	-0.0169515093	0.0299323948	0.0042760564000000004	-0.0004581489	-0.0006108652	-0.0068722335	-0.06215999999999999	0.23814	0.1176	0.0168	0.09323999999999999	0.40768	-0.044566320925	0.7908278692999999	0.010468598875	-0.0087048291	0.0146607648	-0.0012980885499999997	-0.02268	0.16569	0.26264	-2.82432	7.0608	-964.03456	54.114999999999995
18812	4944205	0	-87	1310	32	-113	183	19	-431	1693	788	-64	1327	3	0	-6	-48	120	666	2912	-80	400	-32768	55.24	0.9956674068591168	0.0	52.98	1.0026350851221315	0.0	4449.47900390625	-7309.8408203125	37.5	13.04551124572754	0	0.0	0.0	0.0	0.0	0.0	0.0	0.0	0.0	0.0	0.0	0.0	0.0	7	0.9991512459906242	-0.05204389155	0.7836494015	0.0191425808	-0.0382851616	0.79381889755	0.0017946169499999999	-0.0172569419	0.0279470829	0.0029016097	0.0	-0.0009162978	-0.0073303824	-0.06034	0.23701999999999998	0.11031999999999999	0.0168	0.09323999999999999	0.40768	-0.045164526575	0.788734149525	0.010468598875	-0.00862847095	0.01351539255	-0.00221438635	-0.021769999999999998	0.16513	0.259	-2.3536	11.768	-964.03456	54.11
18813	4944249	0	-82	1308	24	-101	176	35	-431	1693	788	-66	1326	2	4	-6	-49	120	666	2912	-80	288	-32768	55.23	0.995677276091784	0.0	52.99	1.0024377004687886	0.0	4449.47900390625	-7309.8408203125	37.5	13.04551124572754	0	0.0	0.0	0.0	0.0	0.0	0.0	0.0	0.0	0.0	0.0	0.0	0.0	7	0.9990574882802863	-0.0490528633	0.7824529902	0.014356935599999999	-0.0394815729	0.7932206919	0.0011964113	-0.0154243463	0.026878068800000002	0.0053450705	0.0006108652	-0.0009162978	-0.0074830987	-0.06034	0.23701999999999998	0.11031999999999999	0.0168	0.09323999999999999	0.40768	-0.0442672181	0.7878368410500001	0.0077766734499999995	-0.007406740550000001	0.0129808855	-0.0010690141000000001	-0.021769999999999998	0.16513	0.259	-2.3536	8.47296	-964.03456	54.11
18814	4944293	0	-84	1309	31	-114	177	29	-431	1693	788	-69	1331	4	-3	-18	-41	127	659	2889	-32	304	-32768	55.23	0.9955687145324452	0.0	52.99	1.0023883543054528	0.0	4449.47900390625	-7309.8408203125	37.400001525878906	13.04551124572754	0	0.0	0.0	0.0	0.0	0.0	0.0	0.0	0.0	0.0	0.0	0.0	0.0	7	0.998978534418949	-0.0502492746	0.7830511958499999	0.01854437515	-0.04127618985	0.79621172015	0.0023928226	-0.0174096582	0.0270307851	0.0044287727	-0.0004581489	-0.0027488934	-0.0062613683	-0.06034	0.23701999999999998	0.11031999999999999	0.017779999999999997	0.09226	0.40446	-0.045762732225	0.7896314579999999	0.010468598875	-0.00893390355	0.01214094585	-0.0009162978000000002	-0.02128	0.16463999999999998	0.25739	-0.94144	8.94368	-964.03456	54.11
18815	4944335	0	-77	1313	37	-107	178	27	-431	1693	788	-67	1325	3	4	-14	-47	127	659	2889	-32	336	-32768	55.24	0.9956970145571182	0.0	52.99	1.0024278312361214	0.0	4449.47900390625	-7309.8408203125	37.400001525878906	13.04551124572754	0	0.0	0.0	0.0	0.0	0.0	0.0	0.0	0.0	0.0	0.0	0.0	0.0	7	0.9990624228966198	-0.04606183505	0.78544401845	0.02213360905	-0.04007977855	0.79262248625	0.0017946169499999999	-0.0163406441	0.0271835014	0.0041233401	0.0006108652	-0.0021380282000000002	-0.0071776661	-0.06034	0.23701999999999998	0.11031999999999999	0.017779999999999997	0.09226	0.40446	-0.0430708068	0.78903325235	0.011964113	-0.007864889449999999	0.0125227366	-0.0015271629999999998	-0.02128	0.16463999999999998	0.25739	-0.94144	9.88512	-964.03456	54.115
18816	4944377	0	-90	1304	27	-107	187	32	-431	1693	788	-71	1326	1	-4	-5	-43	127	659	2889	-80	272	-32768	55.24	0.9955391068344436	0.0	52.99	1.0024969158647916	0.0	4449.47900390625	-7309.8408203125	37.400001525878906	13.04551124572754	0	0.0	0.0	0.0	0.0	0.0	0.0	0.0	0.0	0.0	0.0	0.0	0.0	7	0.9990180113496177	-0.0538385085	0.7800601676	0.01615155255	-0.04247260115	0.7932206919	0.00059820565	-0.0163406441	0.0285579481	0.0048869216	-0.0006108652	-0.0007635815	-0.0065668009	-0.06034	0.23701999999999998	0.11031999999999999	0.017779999999999997	0.09226	0.40446	-0.048155554825	0.78664042975	0.0083748791	-0.00847575465	0.013897183300000001	-0.0008399396500000001	-0.02128	0.16463999999999998	0.25739	-2.3536	8.00224	-964.03456	54.115
18817	4944419	0	-89	1311	30	-103	193	33	-443	1679	807	-69	1321	1	-1	-8	-52	127	659	2889	-144	304	-32768	55.24	0.9955983222304464	0.0	52.99	1.0026252158894646	0.0	4449.47900390625	-7309.8408203125	37.400001525878906	13.04551124572754	0	0.0	0.0	0.0	0.0	0.0	0.0	0.0	0.0	0.0	0.0	0.0	0.0	7	0.9991117690599556	-0.05324030285	0.78424760715	0.0179461695	-0.04127618985	0.79022966365	0.00059820565	-0.0157297789	0.0294742459	0.0050396379	-0.0001527163	-0.0012217304	-0.0079412476	-0.06201999999999999	0.23506	0.11297999999999998	0.017779999999999997	0.09226	0.40446	-0.04725824635	0.7872386354	0.009272187575	-0.007941247600000001	0.014126257750000001	-0.0014508048499999996	-0.022119999999999997	0.16366	0.25872	-4.23648	8.94368	-964.03456	54.115
18818	4944463	0	-90	1310	31	-111	185	19	-443	1679	807	-74	1324	2	0	-15	-47	127	659	2889	32	304	-32768	55.24	0.9956377991611152	0.0	52.99	1.00239822353812	0.0	4449.47900390625	-7309.8408203125	37.400001525878906	13.04551124572754	0	0.0	0.0	0.0	0.0	0.0	0.0	0.0	0.0	0.0	0.0	0.0	0.0	7	0.9990180113496175	-0.0538385085	0.7836494015	0.01854437515	-0.0442672181	0.7920242806	0.0011964113	-0.0169515093	0.0282525155	0.0029016097	0.0	-0.0022907445	-0.0071776661	-0.06201999999999999	0.23506	0.11297999999999998	0.017779999999999997	0.09226	0.40446	-0.0490528633	0.78783684105	0.009870393225	-0.00847575465	0.012980885499999999	-0.0021380282	-0.022119999999999997	0.16366	0.25872	0.94144	8.94368	-964.03456	54.115
18819	4944505	0	-83	1307	26	-99	194	30	-443	1679	807	-61	1326	2	3	-6	-43	134	663	2899	32	240	-32768	55.24	0.9957068837897852	0.0	52.99	1.0023094004441155	0.0	4449.47900390625	-7309.8408203125	37.400001525878906	13.04551124572754	0	0.0	0.0	0.0	0.0	0.0	0.0	0.0	0.0	0.0	0.0	0.0	0.0	7	0.9990081421169503	-0.04965106895	0.78185478455	0.015553346899999999	-0.03649054465	0.7932206919	0.0011964113	-0.0151189137	0.0296269622	0.004581489	0.0004581489	-0.0009162978	-0.0065668009	-0.06201999999999999	0.23506	0.11297999999999998	0.01876	0.09281999999999999	0.40585999999999994	-0.0430708068	0.787537738225	0.0083748791	-0.0073303824	0.0143553322	-0.00099265595	-0.021629999999999996	0.16393999999999997	0.25942	0.94144	7.0608	-964.03456	54.115
18820	4944549	0	-87	1310	29	-107	188	19	-443	1679	807	-69	1317	2	3	-16	-45	134	663	2899	-144	176	-32768	55.24	0.9956674068591168	0.0	53.0	1.00239822353812	0.0	4449.47900390625	-7309.8408203125	37.400001525878906	13.04551124572754	0	0.0	0.0	0.0	0.0	0.0	0.0	0.0	0.0	0.0	0.0	0.0	0.0	7	0.9990328151986183	-0.05204389155	0.7836494015	0.01734796385	-0.04127618985	0.78783684105	0.0011964113	-0.0163406441	0.0287106644	0.0029016097	0.0004581489	-0.0024434608	-0.0068722335	-0.06201999999999999	0.23506	0.11297999999999998	0.01876	0.09281999999999999	0.40585999999999994	-0.0466600407	0.7857431212749999	0.009272187574999998	-0.0079412476	0.013133601799999998	-0.0019853119	-0.021629999999999996	0.16393999999999997	0.25942	-4.23648	5.17792	-964.03456	54.120000000000005
18821	4944591	0	-85	1310	28	-114	196	26	-424	1717	811	-68	1325	-1	4	-25	-48	134	663	2899	-32	208	-32768	55.24	0.9955785837651122	0.0	52.99	1.00239822353812	0.0	4449.47900390625	-7309.8408203125	37.400001525878906	13.04551124572754	0	0.0	0.0	0.0	0.0	0.0	0.0	0.0	0.0	0.0	0.0	0.0	0.0	7	0.9989884036516161	-0.05084748025	0.7836494015	0.0167497582	-0.040677984199999996	0.79262248625	-0.00059820565	-0.0174096582	0.0299323948	0.0039706238	0.0006108652	-0.0038179075	-0.0073303824	-0.059359999999999996	0.24037999999999998	0.11353999999999999	0.01876	0.09281999999999999	0.40585999999999994	-0.045762732225	0.788135943875	0.008075776275	-0.0083993965	0.013057243650000001	-0.0016798793000000001	-0.0203	0.16659999999999997	0.2597	-0.94144	6.11936	-964.03456	54.115
18822	4944633	0	-87	1313	32	-104	193	15	-424	1717	811	-66	1324	1	0	-15	-48	134	663	2899	-32	336	-32768	55.24	0.9958351838144583	0.0	52.99	1.0024969158647916	0.0	4449.47900390625	-7309.8408203125	37.400001525878906	13.04551124572754	0	0.0	0.0	0.0	0.0	0.0	0.0	0.0	0.0	0.0	0.0	0.0	0.0	7	0.999166049839625	-0.05204389155	0.78544401845	0.0191425808	-0.0394815729	0.7920242806	0.00059820565	-0.0158824952	0.0294742459	0.0022907445	0.0	-0.0022907445	-0.0073303824	-0.059359999999999996	0.24037999999999998	0.11353999999999999	0.01876	0.09281999999999999	0.40585999999999994	-0.045762732225	0.788734149525	0.009870393225	-0.0079412476	0.0135917507	-0.0025198189499999997	-0.0203	0.16659999999999997	0.2597	-0.94144	9.88512	-964.03456	54.115
18823	4944677	0	-91	1311	30	-107	182	23	-424	1717	811	-66	1325	0	5	-15	-49	134	663	2899	-16	208	-32768	55.24	0.9955983222304464	0.0	52.99	1.0026252158894646	0.0	4449.47900390625	-7309.8408203125	37.400001525878906	13.04551124572754	0	0.0	0.0	0.0	0.0	0.0	0.0	0.0	0.0	0.0	0.0	0.0	0.0	7	0.9991117690599556	-0.054436714149999996	0.78424760715	0.0179461695	-0.0394815729	0.79262248625	0.0	-0.0163406441	0.0277943666	0.0035124749	0.0007635815	-0.0022907445	-0.0074830987	-0.059359999999999996	0.24037999999999998	0.11353999999999999	0.01876	0.09281999999999999	0.40585999999999994	-0.046959143525	0.7884350467	0.00897308475	-0.007788531299999999	0.012751811049999999	-0.0019853119	-0.0203	0.16659999999999997	0.2597	-0.47072	6.11936	-964.03456	54.115
18824	4944719	0	-84	1315	35	-105	188	26	-424	1717	811	-70	1329	4	0	-9	-51	116	668	2890	-96	240	-32768	55.24	0.9956081914631136	0.0	52.99	1.0024771773994572	0.0	4449.47900390625	-7309.8408203125	37.400001525878906	13.04551124572754	0	0.0	0.0	0.0	0.0	0.0	0.0	0.0	0.0	0.0	0.0	0.0	0.0	7	0.9990426844312854	-0.0502492746	0.78664042975	0.02093719775	-0.0418743955	0.7950153088499999	0.0023928226	-0.0160352115	0.0287106644	0.0039706238	0.0	-0.0013744467	-0.0077885313	-0.059359999999999996	0.24037999999999998	0.11353999999999999	0.016239999999999997	0.09351999999999999	0.40459999999999996	-0.04606183505	0.7908278692999999	0.011665010175	-0.00801760575	0.01366810885	-0.0019089537500000002	-0.02156	0.16695	0.25906999999999997	-2.82432	7.0608	-964.03456	54.115
18825	4944763	0	-84	1313	28	-105	194	28	-424	1717	811	-66	1330	3	-2	-20	-48	116	668	2890	-80	304	-32768	55.24	0.9956476683937824	0.0	52.99	1.0025067850974587	0.0	4449.47900390625	-7309.8408203125	37.400001525878906	13.04551124572754	0	0.0	0.0	0.0	0.0	0.0	0.0	0.0	0.0	0.0	0.0	0.0	0.0	7	0.9990772267456205	-0.0502492746	0.78544401845	0.0167497582	-0.0394815729	0.7956135145	0.0017946169499999999	-0.0160352115	0.0296269622	0.0042760564000000004	-0.0003054326	-0.003054326	-0.0073303824	-0.059359999999999996	0.24037999999999998	0.11353999999999999	0.016239999999999997	0.09351999999999999	0.40459999999999996	-0.044865423749999994	0.790528766475	0.009272187575	-0.00817032205	0.0132863181	-0.0015271629999999998	-0.02156	0.16695	0.25906999999999997	-2.3536	8.94368	-964.03456	54.115
18826	4944805	0	-86	1314	32	-103	188	22	-438	1702	772	-61	1324	0	12	-11	-54	116	668	2890	-64	208	-32768	55.24	0.9957266222551197	0.0	52.98	1.002526523562793	0.0	4449.47900390625	-7309.8408203125	37.400001525878906	13.04551124572754	0	0.0	0.0	0.0	0.0	0.0	0.0	0.0	0.0	0.0	0.0	0.0	0.0	7	0.9991265729089562	-0.051445685899999996	0.7860422241	0.0191425808	-0.03649054465	0.7920242806	0.0	-0.0157297789	0.0287106644	0.0033597586000000002	0.0018325956	-0.0016798793000000001	-0.0082466802	-0.06131999999999999	0.23828	0.10808	0.016239999999999997	0.09351999999999999	0.40459999999999996	-0.043968115275	0.78903325235	0.0095712904	-0.0069485916500000005	0.01351539255	-0.0024434608	-0.022539999999999998	0.1659	0.25633999999999996	-1.88288	6.11936	-964.03456	54.11
18827	4944849	0	-82	1307	34	-103	185	26	-438	1702	772	-70	1322	5	-6	-10	-49	116	668	2890	-48	-16	-32768	55.24	0.9956081914631136	0.0	52.99	1.00239822353812	0.0	4449.47900390625	-7309.8408203125	37.400001525878906	13.04551124572754	0	0.0	0.0	0.0	0.0	0.0	0.0	0.0	0.0	0.0	0.0	0.0	0.0	7	0.9990032075006168	-0.0490528633	0.78185478455	0.020338992099999998	-0.0418743955	0.7908278692999999	0.00299102825	-0.0157297789	0.0282525155	0.0039706238	-0.0009162978	-0.001527163	-0.0074830987	-0.06131999999999999	0.23828	0.10808	0.016239999999999997	0.09351999999999999	0.40459999999999996	-0.0454636294	0.7863413269249999	0.011665010174999999	-0.00832303835	0.013362676249999999	-0.0017562374500000003	-0.022539999999999998	0.1659	0.25633999999999996	-1.41216	-0.47072	-964.03456	54.115
18828	4944891	0	-78	1310	34	-109	200	30	-438	1702	772	-71	1319	2	3	-15	-46	116	668	2890	16	352	-32768	55.24	0.9957068837897852	0.0	52.99	1.0025462620281274	0.0	4449.47900390625	-7309.8408203125	37.400001525878906	13.04551124572754	0	0.0	0.0	0.0	0.0	0.0	0.0	0.0	0.0	0.0	0.0	0.0	0.0	7	0.9991265729089562	-0.0466600407	0.7836494015	0.020338992099999998	-0.04247260115	0.78903325235	0.0011964113	-0.0166460767	0.03054326	0.004581489	0.0004581489	-0.0022907445	-0.0070249498	-0.06131999999999999	0.23828	0.10808	0.016239999999999997	0.09351999999999999	0.40459999999999996	-0.044566320925	0.7863413269249999	0.010767701699999998	-0.0080939639	0.01412625775	-0.0012217304	-0.022539999999999998	0.1659	0.25633999999999996	0.47072	10.35584	-964.03456	54.115
18829	4944933	0	-89	1314	30	-118	187	31	-438	1702	772	-68	1326	2	-1	-8	-50	139	666	2905	128	240	-32768	55.24	0.9955785837651122	0.0	52.99	1.0024377004687886	0.0	4449.47900390625	-7309.8408203125	37.400001525878906	13.04551124572754	0	0.0	0.0	0.0	0.0	0.0	0.0	0.0	0.0	0.0	0.0	0.0	0.0	7	0.9990081421169503	-0.05324030285	0.7860422241	0.0179461695	-0.040677984199999996	0.7932206919	0.0011964113	-0.0180205234	0.0285579481	0.0047342053	-0.0001527163	-0.0012217304	-0.007635815	-0.06131999999999999	0.23828	0.10808	0.019459999999999998	0.09323999999999999	0.40669999999999995	-0.046959143525	0.789631458	0.0095712904	-0.00908661985	0.013668108850000001	-0.00145080485	-0.020929999999999997	0.16576	0.25738999999999995	3.76576	7.0608	-964.03456	54.115
18830	4944977	0	-85	1314	22	-109	187	31	-438	1702	772	-68	1328	2	1	-5	-45	139	666	2905	-32	272	-32768	55.22	0.9957364914877868	0.0	52.99	1.0026054774241302	0.0	4449.47900390625	-7309.8408203125	37.400001525878906	13.04551124572754	0	0.0	0.0	0.0	0.0	0.0	0.0	0.0	0.0	0.0	0.0	0.0	0.0	7	0.9991709844559584	-0.05084748025	0.7860422241	0.0131605243	-0.040677984199999996	0.7944171032	0.0011964113	-0.0166460767	0.0285579481	0.0047342053	0.0001527163	-0.0007635815	-0.0068722335	-0.06131999999999999	0.23828	0.10808	0.019459999999999998	0.09323999999999999	0.40669999999999995	-0.045762732225	0.79022966365	0.0071784678	-0.0082466802	0.013897183300000001	-0.0010690141000000001	-0.020929999999999997	0.16576	0.25738999999999995	-0.94144	8.00224	-964.03456	54.105000000000004
18831	4945019	0	-90	1313	31	-110	178	34	-442	1677	802	-64	1324	2	1	-14	-37	139	666	2905	-16	240	-32768	55.24	0.9955391068344436	0.0	52.97	1.0024377004687886	0.0	4449.47900390625	-7309.8408203125	37.400001525878906	13.04551124572754	0	0.0	0.0	0.0	0.0	0.0	0.0	0.0	0.0	0.0	0.0	0.0	0.0	7	0.9989884036516161	-0.0538385085	0.78544401845	0.01854437515	-0.0382851616	0.7920242806	0.0011964113	-0.016798793	0.0271835014	0.0051923542	0.0001527163	-0.0021380282000000002	-0.0056505031	-0.06188	0.23478	0.11227999999999999	0.019459999999999998	0.09323999999999999	0.40669999999999995	-0.04606183505	0.788734149525	0.009870393225	-0.008323038349999999	0.0125227366	-0.00022907445000000005	-0.02121	0.16401	0.25949	-0.47072	7.0608	-964.03456	54.105000000000004
18832	4945063	0	-91	1306	30	-108	189	26	-442	1677	802	-70	1329	3	1	-17	-42	139	666	2905	-32	320	-32768	55.24	0.9956081914631136	0.0	53.0	1.0024475697014557	0.0	4449.47900390625	-7309.8408203125	37.400001525878906	13.04551124572754	0	0.0	0.0	0.0	0.0	0.0	0.0	0.0	0.0	0.0	0.0	0.0	0.0	7	0.9990278805822846	-0.054436714149999996	0.7812565789	0.0179461695	-0.0418743955	0.7950153088499999	0.0017946169499999999	-0.0164933604	0.0288633807	0.0039706238	0.0001527163	-0.0025961771	-0.0064140846	-0.06188	0.23478	0.11227999999999999	0.019459999999999998	0.09323999999999999	0.40669999999999995	-0.048155554825	0.788135943875	0.009870393225000001	-0.00817032205	0.0131336018	-0.0012217304	-0.02121	0.16401	0.25949	-0.94144	9.4144	-964.03456	54.120000000000005
18833	4945105	0	-91	1312	30	-105	193	27	-442	1677	802	-71	1328	3	3	-18	-50	128	664	2895	-16	304	-32768	55.23	0.995677276091784	0.0	53.0	1.00246730816679	0.0	4449.47900390625	-7309.8408203125	37.400001525878906	13.04551124572754	0	0.0	0.0	0.0	0.0	0.0	0.0	0.0	0.0	0.0	0.0	0.0	0.0	7	0.999072292129287	-0.054436714149999996	0.7848458128	0.0179461695	-0.04247260115	0.7944171032	0.0017946169499999999	-0.0160352115	0.0294742459	0.0041233401	0.0004581489	-0.0027488934	-0.007635815	-0.06188	0.23478	0.11227999999999999	0.01792	0.09295999999999999	0.40529999999999994	-0.048454657649999996	0.789631458	0.009870393225000001	-0.0077885313	0.01336267625	-0.0017562374499999998	-0.02198	0.16387	0.25878999999999996	-0.47072	8.94368	-964.03456	54.114999999999995
18834	4945149	0	-85	1313	27	-109	189	25	-442	1677	802	-68	1321	-2	1	-17	-47	128	664	2895	48	272	-32768	55.24	0.995440414507772	0.0	52.98	1.002526523562793	0.0	4449.47900390625	-7309.8408203125	37.400001525878906	13.04551124572754	0	0.0	0.0	0.0	0.0	0.0	0.0	0.0	0.0	0.0	0.0	0.0	0.0	7	0.9989834690352825	-0.05084748025	0.78544401845	0.01615155255	-0.040677984199999996	0.79022966365	-0.0011964113	-0.0166460767	0.0288633807	0.0038179075	0.0001527163	-0.0025961771	-0.0071776661	-0.06188	0.23478	0.11227999999999999	0.01792	0.09295999999999999	0.40529999999999994	-0.045762732225	0.7878368410500001	0.007477570625	-0.0082466802	0.0131336018	-0.0016798793	-0.02198	0.16387	0.25878999999999996	1.41216	8.00224	-964.03456	54.11
18835	4945191	0	-83	1316	31	-107	192	21	-428	1703	813	-71	1330	1	2	-8	-52	128	664	2895	-64	192	-32768	55.23	0.9957364914877868	0.0	52.98	1.002526523562793	0.0	4449.47900390625	-7309.8408203125	37.400001525878906	13.04551124572754	0	0.0	0.0	0.0	0.0	0.0	0.0	0.0	0.0	0.0	0.0	0.0	0.0	7	0.9991315075252898	-0.04965106895	0.7872386353999999	0.01854437515	-0.04247260115	0.7956135145	0.00059820565	-0.0163406441	0.0293215296	0.0032070423	0.0003054326	-0.0012217304	-0.0079412476	-0.059919999999999994	0.23841999999999997	0.11381999999999999	0.01792	0.09295999999999999	0.40529999999999994	-0.04606183505	0.79142607495	0.0095712904	-0.00801760575	0.0140498996	-0.00236710265	-0.020999999999999998	0.16568999999999998	0.25955999999999996	-1.88288	5.64864	-964.03456	54.105
18836	4945233	0	-89	1314	27	-98	190	16	-428	1703	813	-72	1329	-5	0	-15	-54	128	664	2895	-80	320	-32768	55.23	0.9954009375771034	0.0	52.99	1.0025363927954605	0.0	4449.47900390625	-7309.8408203125	37.400001525878906	13.04551124572754	0	0.0	0.0	0.0	0.0	0.0	0.0	0.0	0.0	0.0	0.0	0.0	0.0	7	0.9989686651862819	-0.05324030285	0.7860422241	0.01615155255	-0.0430708068	0.7950153088499999	-0.00299102825	-0.0149661974	0.029016097	0.0024434608	0.0	-0.0022907445	-0.0082466802	-0.059919999999999994	0.23841999999999997	0.11381999999999999	0.01792	0.09295999999999999	0.40529999999999994	-0.048155554825	0.790528766475	0.00658026215	-0.0074830987	0.01336267625	-0.0029016097	-0.020999999999999998	0.16568999999999998	0.25955999999999996	-2.3536	9.4144	-964.03456	54.11
18837	4945277	0	-83	1314	35	-100	193	22	-428	1703	813	-66	1329	4	7	-20	-46	128	664	2895	-48	256	-32768	55.24	0.9955983222304464	0.0	52.99	1.0025462620281274	0.0	4449.47900390625	-7309.8408203125	37.400001525878906	13.04551124572754	0	0.0	0.0	0.0	0.0	0.0	0.0	0.0	0.0	0.0	0.0	0.0	0.0	7	0.9990722921292869	-0.04965106895	0.7860422241	0.02093719775	-0.0394815729	0.7950153088499999	0.0023928226	-0.01527163	0.0294742459	0.0033597586000000002	0.0010690141000000001	-0.003054326	-0.0070249498	-0.059919999999999994	0.23841999999999997	0.11381999999999999	0.01792	0.09295999999999999	0.40529999999999994	-0.044566320925	0.790528766475	0.011665010175	-0.00710130795	0.01320995995	-0.0018325956	-0.020999999999999998	0.16568999999999998	0.25955999999999996	-1.41216	7.53152	-964.03456	54.115
18838	4945319	0	-90	1306	30	-94	185	18	-428	1703	813	-71	1324	-6	2	-8	-47	124	671	2874	-16	384	-32768	55.23	0.9956377991611152	0.0	52.98	1.002595608191463	0.0	4449.47900390625	-7309.8408203125	37.400001525878906	13.04551124572754	0	0.0	0.0	0.0	0.0	0.0	0.0	0.0	0.0	0.0	0.0	0.0	0.0	7	0.9991167036762891	-0.0538385085	0.7812565789	0.0179461695	-0.04247260115	0.7920242806	-0.0035892338999999997	-0.0143553322	0.0282525155	0.0027488934	0.0003054326	-0.0012217304	-0.0071776661	-0.059919999999999994	0.23841999999999997	0.11381999999999999	0.017359999999999997	0.09394	0.40235999999999994	-0.048155554825	0.78664042975	0.007178467800000001	-0.007024949799999999	0.01351539255	-0.00221438635	-0.02128	0.16618	0.25809	-0.47072	11.29728	-964.03456	54.105
18839	4945363	0	-82	1306	29	-93	194	23	-428	1703	813	-64	1324	3	3	-4	-52	124	671	2874	32	240	-32768	55.24	0.9955983222304464	0.0	52.99	1.0026054774241302	0.0	4449.47900390625	-7309.8408203125	37.400001525878906	13.04551124572754	0	0.0	0.0	0.0	0.0	0.0	0.0	0.0	0.0	0.0	0.0	0.0	0.0	7	0.9991018998272883	-0.0490528633	0.7812565789	0.01734796385	-0.0382851616	0.7920242806	0.0017946169499999999	-0.0142026159	0.0296269622	0.0035124749	0.0004581489	-0.0006108652	-0.0079412476	-0.059919999999999994	0.23841999999999997	0.11381999999999999	0.017359999999999997	0.09394	0.40235999999999994	-0.04366901245	0.78664042975	0.0095712904	-0.0068722335	0.014508048499999999	-0.00221438635	-0.02128	0.16618	0.25809	0.94144	7.0608	-964.03456	54.115
18840	4945405	0	-86	1313	33	-97	173	19	-426	1695	822	-68	1331	4	2	-9	-56	124	671	2874	-48	224	-32768	55.23	0.995627929928448	0.0	52.99	1.0024278312361214	0.0	4449.47900390625	-7309.8408203125	37.400001525878906	13.04551124572754	0	0.0	0.0	0.0	0.0	0.0	0.0	0.0	0.0	0.0	0.0	0.0	0.0	7	0.9990278805822848	-0.051445685899999996	0.78544401845	0.01974078645	-0.040677984199999996	0.79621172015	0.0023928226	-0.0148134811	0.0264199199	0.0029016097	0.0003054326	-0.0013744467	-0.008552112800000001	-0.05963999999999999	0.23729999999999998	0.11507999999999999	0.017359999999999997	0.09394	0.40235999999999994	-0.04606183505	0.7908278692999999	0.011066804525	-0.007254024249999999	0.0125227366	-0.0028252515500000004	-0.02114	0.16562	0.25871999999999995	-1.41216	6.59008	-964.03456	54.11
18841	4945447	0	-83	1310	34	-98	171	20	-426	1695	822	-64	1323	4	3	-18	-54	124	671	2874	16	256	-32768	55.24	0.9957266222551197	0.0	52.99	1.0025462620281274	0.0	4449.47900390625	-7309.8408203125	37.400001525878906	13.04551124572754	0	0.0	0.0	0.0	0.0	0.0	0.0	0.0	0.0	0.0	0.0	0.0	0.0	7	0.9991364421416236	-0.04965106895	0.7836494015	0.020338992099999998	-0.0382851616	0.79142607495	0.0023928226	-0.0149661974	0.0261144873	0.003054326	0.0004581489	-0.0027488934	-0.0082466802	-0.05963999999999999	0.23729999999999998	0.11507999999999999	0.017359999999999997	0.09394	0.40235999999999994	-0.043968115275	0.787537738225	0.01136590735	-0.00725402425	0.01168279695	-0.0025961771000000003	-0.02114	0.16562	0.25871999999999995	0.47072	7.53152	-964.03456	54.115
18842	4945491	0	-79	1309	36	-116	186	22	-426	1695	822	-59	1325	2	0	-12	-46	124	671	2874	-48	304	-32768	55.23	0.9954009375771034	0.0	52.99	1.0024969158647916	0.0	4449.47900390625	-7309.8408203125	37.400001525878906	13.04551124572754	0	0.0	0.0	0.0	0.0	0.0	0.0	0.0	0.0	0.0	0.0	0.0	0.0	7	0.9989489267209475	-0.04725824635	0.7830511958499999	0.0215354034	-0.03529413335	0.79262248625	0.0011964113	-0.0177150908	0.0284052318	0.0033597586000000002	0.0	-0.0018325956	-0.0070249498	-0.05963999999999999	0.23729999999999998	0.11507999999999999	0.017359999999999997	0.09394	0.40235999999999994	-0.04127618985	0.78783684105	0.01136590735	-0.0088575454	0.0132863181	-0.0018325956	-0.02114	0.16562	0.25871999999999995	-1.41216	8.94368	-964.03456	54.11
18843	4945533	0	-89	1312	31	-100	184	23	-426	1695	822	-60	1323	2	0	-16	-42	125	650	2893	16	288	-32768	55.23	0.995746360720454	0.0	52.99	1.0024969158647916	0.0	4449.47900390625	-7309.8408203125	37.400001525878906	13.04551124572754	0	0.0	0.0	0.0	0.0	0.0	0.0	0.0	0.0	0.0	0.0	0.0	0.0	7	0.9991216382926228	-0.05324030285	0.7848458128	0.01854437515	-0.035892339	0.79142607495	0.0011964113	-0.01527163	0.0280997992	0.0035124749	0.0	-0.0024434608	-0.0064140846	-0.05963999999999999	0.23729999999999998	0.11507999999999999	0.017499999999999998	0.091	0.40502	-0.044566320925	0.788135943875	0.009870393225	-0.007635815	0.0128281692	-0.0014508048499999998	-0.02107	0.16415	0.26005	0.47072	8.47296	-964.03456	54.11
18844	4945577	0	-84	1315	33	-112	192	26	-426	1695	822	-69	1319	3	-11	-15	-46	125	650	2893	0	256	-32768	55.23	0.995627929928448	0.0	52.98	1.0024870466321243	0.0	4449.47900390625	-7309.8408203125	37.400001525878906	13.04551124572754	0	0.0	0.0	0.0	0.0	0.0	0.0	0.0	0.0	0.0	0.0	0.0	0.0	7	0.9990574882802861	-0.0502492746	0.78664042975	0.01974078645	-0.04127618985	0.78903325235	0.0017946169499999999	-0.017104225600000002	0.0293215296	0.0039706238	-0.0016798793000000001	-0.0022907445	-0.0070249498	-0.05963999999999999	0.23729999999999998	0.11507999999999999	0.017499999999999998	0.091	0.40502	-0.045762732225	0.7878368410500001	0.0107677017	-0.00939205245	0.01351539255	-0.0015271630000000002	-0.02107	0.16415	0.26005	0.0	7.53152	-964.03456	54.105
18845	4945619	0	-83	1317	31	-105	190	32	-402	1713	858	-69	1326	4	1	-9	-40	125	650	2893	-48	240	-32768	55.24	0.995440414507772	0.0	52.99	1.0026054774241302	0.0	4449.47900390625	-7309.8408203125	37.400001525878906	13.04551124572754	0	0.0	0.0	0.0	0.0	0.0	0.0	0.0	0.0	0.0	0.0	0.0	0.0	7	0.9990229459659511	-0.04965106895	0.78783684105	0.01854437515	-0.04127618985	0.7932206919	0.0023928226	-0.0160352115	0.029016097	0.0048869216	0.0001527163	-0.0013744467	-0.006108652	-0.05628	0.23981999999999998	0.12011999999999999	0.017499999999999998	0.091	0.40502	-0.0454636294	0.790528766475	0.010468598875	-0.0079412476	0.01382082515	-0.0006108652	-0.019389999999999998	0.16541	0.26256999999999997	-1.41216	7.0608	-964.03456	54.115
18846	4945663	0	-87	1312	30	-117	189	31	-402	1713	858	-68	1325	-2	-5	-16	-44	125	650	2893	-144	208	-32768	55.22	0.9955391068344436	0.0	52.99	1.0023390081421168	0.0	4449.47900390625	-7309.8408203125	37.400001525878906	13.04551124572754	0	0.0	0.0	0.0	0.0	0.0	0.0	0.0	0.0	0.0	0.0	0.0	0.0	7	0.9989390574882802	-0.05204389155	0.7848458128	0.0179461695	-0.040677984199999996	0.79262248625	-0.0011964113	-0.0178678071	0.0288633807	0.0047342053	-0.0007635815	-0.0024434608	-0.0067195172000000004	-0.05628	0.23981999999999998	0.12011999999999999	0.017499999999999998	0.091	0.40502	-0.046360937874999994	0.788734149525	0.008374879100000001	-0.0093156943	0.013209959949999999	-0.0009926559500000004	-0.019389999999999998	0.16541	0.26256999999999997	-4.23648	6.11936	-964.03456	54.105000000000004
18847	4945705	0	-86	1313	25	-106	193	28	-402	1713	858	-67	1324	0	-10	-1	-42	125	650	2893	-80	304	-32768	55.24	0.9955489760671108	0.0	52.99	1.0023883543054528	0.0	4449.47900390625	-7309.8408203125	37.400001525878906	13.04551124572754	0	0.0	0.0	0.0	0.0	0.0	0.0	0.0	0.0	0.0	0.0	0.0	0.0	7	0.9989686651862818	-0.051445685899999996	0.78544401845	0.01495514125	-0.04007977855	0.7920242806	0.0	-0.0161879278	0.0294742459	0.0042760564000000004	-0.001527163	-0.0001527163	-0.0064140846	-0.05628	0.23981999999999998	0.12011999999999999	0.017499999999999998	0.091	0.40502	-0.045762732225	0.788734149525	0.007477570625	-0.008857545400000002	0.0146607648	-0.0010690140999999997	-0.019389999999999998	0.16541	0.26256999999999997	-2.3536	8.94368	-964.03456	54.115
18848	4945747	0	-92	1311	22	-102	191	33	-402	1713	858	-75	1329	0	5	-8	-43	140	656	2893	-32	288	-32768	55.24	0.9958055761164568	0.0	52.98	1.002408092770787	0.0	4449.47900390625	-7309.8408203125	37.400001525878906	13.04551124572754	0	0.0	0.0	0.0	0.0	0.0	0.0	0.0	0.0	0.0	0.0	0.0	0.0	7	0.9991068344436219	-0.0550349198	0.78424760715	0.0131605243	-0.04486542375	0.7950153088499999	0.0	-0.0155770626	0.0291688133	0.0050396379	0.0007635815	-0.0012217304	-0.0065668009	-0.05628	0.23981999999999998	0.12011999999999999	0.0196	0.09183999999999999	0.40502	-0.049950171774999996	0.7896314579999999	0.00658026215	-0.00740674055	0.01397354145	-0.0007635814999999999	-0.01834	0.16582999999999998	0.26256999999999997	-0.94144	8.47296	-964.03456	54.11
18849	4945791	0	-84	1310	21	-112	194	27	-432	1695	775	-70	1325	-1	3	-20	-47	140	656	2893	-48	336	-32768	55.24	0.9955983222304464	0.0	52.99	1.0024377004687886	0.0	4449.47900390625	-7309.8408203125	37.400001525878906	13.04551124572754	0	0.0	0.0	0.0	0.0	0.0	0.0	0.0	0.0	0.0	0.0	0.0	0.0	7	0.9990180113496174	-0.0502492746	0.7836494015	0.01256231865	-0.0418743955	0.79262248625	-0.00059820565	-0.017104225600000002	0.0296269622	0.0041233401	0.0004581489	-0.003054326	-0.0071776661	-0.06047999999999999	0.23729999999999998	0.10849999999999999	0.0196	0.09183999999999999	0.40502	-0.04606183505	0.788135943875	0.0059820565	-0.00832303835	0.0132863181	-0.0015271629999999998	-0.020439999999999996	0.16457	0.25676	-1.41216	9.88512	-964.03456	54.115
18850	4945833	0	-86	1307	27	-111	199	23	-432	1695	775	-69	1321	-8	4	-12	-44	140	656	2893	-16	304	-32768	55.23	0.995746360720454	0.0	53.0	1.00239822353812	0.0	4449.47900390625	-7309.8408203125	37.400001525878906	13.04551124572754	0	0.0	0.0	0.0	0.0	0.0	0.0	0.0	0.0	0.0	0.0	0.0	0.0	7	0.9990722921292869	-0.051445685899999996	0.78185478455	0.01615155255	-0.04127618985	0.79022966365	-0.0047856452	-0.0169515093	0.0303905437	0.0035124749	0.0006108652	-0.0018325956	-0.0067195172000000004	-0.06047999999999999	0.23729999999999998	0.10849999999999999	0.0196	0.09183999999999999	0.40502	-0.046360937874999994	0.7860422241	0.005682953675	-0.00817032205	0.01427897405	-0.0016035211500000002	-0.020439999999999996	0.16457	0.25676	-0.47072	8.94368	-964.03456	54.114999999999995
18851	4945877	0	-86	1313	24	-105	181	24	-432	1695	775	-69	1327	2	6	-9	-49	140	656	2893	16	320	-32768	55.24	0.9955983222304464	0.0	52.98	1.0024870466321243	0.0	4449.47900390625	-7309.8408203125	37.400001525878906	13.04551124572754	0	0.0	0.0	0.0	0.0	0.0	0.0	0.0	0.0	0.0	0.0	0.0	0.0	7	0.9990426844312854	-0.051445685899999996	0.78544401845	0.014356935599999999	-0.04127618985	0.79381889755	0.0011964113	-0.0160352115	0.0276416503	0.0036651912	0.0009162978	-0.0013744467	-0.0074830987	-0.06047999999999999	0.23729999999999998	0.10849999999999999	0.0196	0.09183999999999999	0.40502	-0.046360937874999994	0.789631458	0.0077766734499999995	-0.00755945685	0.0131336018	-0.0019089537500000002	-0.020439999999999996	0.16457	0.25676	0.47072	9.4144	-964.03456	54.11
18852	4945919	0	-93	1314	29	-114	193	18	-432	1695	775	-70	1326	-2	5	-1	-53	140	656	2893	-16	272	-32768	55.24	0.995440414507772	0.0	52.98	1.0025758697261289	0.0	4449.47900390625	-7309.8408203125	37.400001525878906	13.04551124572754	0	0.0	0.0	0.0	0.0	0.0	0.0	0.0	0.0	0.0	0.0	0.0	0.0	7	0.9990081421169504	-0.05563312545	0.7860422241	0.01734796385	-0.0418743955	0.7932206919	-0.0011964113	-0.0174096582	0.0294742459	0.0027488934	0.0007635815	-0.0001527163	-0.0080939639	-0.06047999999999999	0.23729999999999998	0.10849999999999999	0.0196	0.09183999999999999	0.40502	-0.048753760475000005	0.789631458	0.008075776275	-0.00832303835	0.0146607648	-0.0026725352500000005	-0.020439999999999996	0.16457	0.25676	-0.47072	8.00224	-964.03456	54.11
18853	4945963	0	-86	1315	31	-107	187	24	-432	1695	775	-68	1325	1	9	-9	-53	136	666	2886	32	240	-32768	55.22	0.9957660991857884	0.0	52.99	1.002595608191463	0.0	4449.47900390625	-7309.8408203125	37.400001525878906	13.04551124572754	0	0.0	0.0	0.0	0.0	0.0	0.0	0.0	0.0	0.0	0.0	0.0	0.0	7	0.9991808536886257	-0.051445685899999996	0.78664042975	0.01854437515	-0.040677984199999996	0.79262248625	0.00059820565	-0.0163406441	0.0285579481	0.0036651912	0.0013744467	-0.0013744467	-0.0080939639	-0.06047999999999999	0.23729999999999998	0.10849999999999999	0.019039999999999998	0.09323999999999999	0.40403999999999995	-0.04606183505	0.789631458	0.0095712904	-0.0074830986999999995	0.0135917507	-0.0022143863500000004	-0.020719999999999995	0.16526999999999997	0.25627	0.94144	7.0608	-964.03456	54.105000000000004
18854	4946005	0	-88	1311	30	-102	193	21	-418	1689	794	-68	1328	2	10	-2	-50	136	666	2886	-144	272	-32768	55.24	0.9957068837897852	0.0	53.0	1.0026844312854677	0.0	4449.47900390625	-7309.8408203125	37.400001525878906	13.04551124572754	0	0.0	0.0	0.0	0.0	0.0	0.0	0.0	0.0	0.0	0.0	0.0	0.0	7	0.9991956575376264	-0.0526420972	0.78424760715	0.0179461695	-0.040677984199999996	0.7944171032	0.0011964113	-0.0155770626	0.0294742459	0.0032070423	0.001527163	-0.0003054326	-0.007635815	-0.058519999999999996	0.23645999999999998	0.11116	0.019039999999999998	0.09323999999999999	0.40403999999999995	-0.0466600407	0.789332355175	0.0095712904	-0.0070249498	0.014584406650000001	-0.00221438635	-0.01974	0.16485	0.2576	-4.23648	8.00224	-964.03456	54.120000000000005
18855	4946047	0	-82	1313	34	-103	186	18	-418	1689	794	-63	1326	2	5	-17	-55	136	666	2886	-80	304	-32768	55.23	0.995627929928448	0.0	52.99	1.0023291389094495	0.0	4449.47900390625	-7309.8408203125	37.400001525878906	13.04551124572754	0	0.0	0.0	0.0	0.0	0.0	0.0	0.0	0.0	0.0	0.0	0.0	0.0	7	0.9989785344189488	-0.0490528633	0.78544401845	0.020338992099999998	-0.037686955949999996	0.7932206919	0.0011964113	-0.0157297789	0.0284052318	0.0027488934	0.0007635815	-0.0025961771	-0.0083993965	-0.058519999999999996	0.23645999999999998	0.11116	0.019039999999999998	0.09323999999999999	0.40403999999999995	-0.043369909624999994	0.789332355175	0.010767701699999998	-0.0074830987	0.01290452735	-0.00282525155	-0.01974	0.16485	0.2576	-2.3536	8.94368	-964.03456	54.11
18856	4946091	0	-80	1316	33	-100	192	20	-418	1689	794	-67	1329	1	7	-2	-50	136	666	2886	-16	272	-32768	55.24	0.9957660991857884	0.0	52.99	1.0025462620281274	0.0	4449.47900390625	-7309.8408203125	37.400001525878906	13.04551124572754	0	0.0	0.0	0.0	0.0	0.0	0.0	0.0	0.0	0.0	0.0	0.0	0.0	7	0.9991561806069579	-0.047856452	0.7872386353999999	0.01974078645	-0.04007977855	0.7950153088499999	0.00059820565	-0.01527163	0.0293215296	0.003054326	0.0010690141000000001	-0.0003054326	-0.007635815	-0.058519999999999996	0.23645999999999998	0.11116	0.019039999999999998	0.09323999999999999	0.40403999999999995	-0.043968115275	0.7911269721249999	0.010169496049999999	-0.00710130795	0.0145080485	-0.0022907444999999997	-0.01974	0.16485	0.2576	-0.47072	8.00224	-964.03456	54.115
18857	4946133	0	-83	1314	31	-106	195	24	-418	1689	794	-65	1325	4	5	-3	-46	110	658	2889	-16	352	-32768	55.23	0.9957957068837898	0.0	52.99	1.0026054774241302	0.0	4449.47900390625	-7309.8408203125	37.400001525878906	13.04551124572754	0	0.0	0.0	0.0	0.0	0.0	0.0	0.0	0.0	0.0	0.0	0.0	0.0	7	0.99920059215396	-0.04965106895	0.7860422241	0.01854437515	-0.03888336725	0.79262248625	0.0023928226	-0.0161879278	0.0297796785	0.0036651912	0.0007635815	-0.0004581489	-0.0070249498	-0.058519999999999996	0.23645999999999998	0.11116	0.015399999999999999	0.09212	0.40446	-0.044267218100000005	0.789332355175	0.010468598875	-0.00771217315	0.0146607648	-0.0016798793000000001	-0.02156	0.16429	0.25781	-0.47072	10.35584	-964.03456	54.11
18858	4946177	0	-81	1306	38	-115	190	30	-418	1689	794	-66	1324	1	-2	-5	-40	110	658	2889	-48	304	-32768	55.22	0.9955983222304464	0.0	52.98	1.0026350851221315	0.0	4449.47900390625	-7309.8408203125	37.400001525878906	13.04551124572754	0	0.0	0.0	0.0	0.0	0.0	0.0	0.0	0.0	0.0	0.0	0.0	0.0	7	0.9991167036762889	-0.048454657649999996	0.7812565789	0.0227318147	-0.0394815729	0.7920242806	0.00059820565	-0.0175623745	0.029016097	0.004581489	-0.0003054326	-0.0007635815	-0.006108652	-0.058519999999999996	0.23645999999999998	0.11116	0.015399999999999999	0.09212	0.40446	-0.043968115275	0.78664042975	0.011665010174999999	-0.008933903549999999	0.014126257750000001	-0.0007635814999999999	-0.02156	0.16429	0.25781	-1.41216	8.94368	-964.03456	54.099999999999994
18859	4946219	0	-79	1310	29	-109	186	27	-418	1697	814	-65	1324	1	-2	-9	-39	110	658	2889	-80	304	-32768	55.24	0.9957068837897852	0.0	52.99	1.002595608191463	0.0	4449.47900390625	-7309.8408203125	37.400001525878906	13.04551124572754	0	0.0	0.0	0.0	0.0	0.0	0.0	0.0	0.0	0.0	0.0	0.0	0.0	7	0.9991512459906242	-0.04725824635	0.7836494015	0.01734796385	-0.03888336725	0.7920242806	0.00059820565	-0.0166460767	0.0284052318	0.0041233401	-0.0003054326	-0.0013744467	-0.0059559357	-0.058519999999999996	0.23757999999999999	0.11395999999999999	0.015399999999999999	0.09212	0.40446	-0.0430708068	0.78783684105	0.008973084749999999	-0.00847575465	0.01351539255	-0.0009162977999999998	-0.02156	0.16485	0.25921	-2.3536	8.94368	-964.03456	54.115
18860	4946261	0	-86	1313	33	-119	191	35	-418	1697	814	-67	1325	4	-1	-7	-36	110	658	2889	-32	272	-32768	55.24	0.9955983222304464	0.0	52.98	1.002526523562793	0.0	4449.47900390625	-7309.8408203125	37.400001525878906	13.04551124572754	0	0.0	0.0	0.0	0.0	0.0	0.0	0.0	0.0	0.0	0.0	0.0	0.0	7	0.9990624228966196	-0.051445685899999996	0.78544401845	0.01974078645	-0.04007977855	0.79262248625	0.0023928226	-0.0181732397	0.0291688133	0.0053450705	-0.0001527163	-0.0010690141000000001	-0.0054977868	-0.058519999999999996	0.23757999999999999	0.11395999999999999	0.015399999999999999	0.09212	0.40446	-0.045762732225	0.78903325235	0.011066804525	-0.009162978	0.014049899599999999	-7.635814999999973e-05	-0.02156	0.16485	0.25921	-0.94144	8.00224	-964.03456	54.11
18861	4946305	0	-88	1311	33	-110	185	30	-418	1697	814	-70	1326	1	1	-13	-37	110	658	2889	-32	224	-32768	55.24	0.9957660991857884	0.0	52.99	1.0024377004687886	0.0	4449.47900390625	-7309.8408203125	37.400001525878906	13.04551124572754	0	0.0	0.0	0.0	0.0	0.0	0.0	0.0	0.0	0.0	0.0	0.0	0.0	7	0.9991018998272885	-0.0526420972	0.78424760715	0.01974078645	-0.0418743955	0.7932206919	0.00059820565	-0.016798793	0.0282525155	0.004581489	0.0001527163	-0.0019853119	-0.0056505031	-0.058519999999999996	0.23757999999999999	0.11395999999999999	0.015399999999999999	0.09212	0.40446	-0.047258246350000005	0.788734149525	0.010169496049999999	-0.008323038349999999	0.013133601799999998	-0.0005345070499999998	-0.02156	0.16485	0.25921	-0.94144	6.59008	-964.03456	54.115
18862	4946347	0	-88	1312	32	-118	188	29	-418	1697	814	-71	1324	2	-4	-12	-34	145	648	2891	-80	320	-32768	55.24	0.9957266222551197	0.0	52.98	1.0025363927954605	0.0	4449.47900390625	-7309.8408203125	37.400001525878906	13.04551124572754	0	0.0	0.0	0.0	0.0	0.0	0.0	0.0	0.0	0.0	0.0	0.0	0.0	7	0.99913150752529	-0.0526420972	0.7848458128	0.0191425808	-0.04247260115	0.7920242806	0.0011964113	-0.0180205234	0.0287106644	0.0044287727	-0.0006108652	-0.0018325956	-0.0051923542	-0.058519999999999996	0.23757999999999999	0.11395999999999999	0.0203	0.09072	0.40474	-0.047557349175	0.7884350467	0.010169496049999999	-0.0093156943	0.0134390344	-0.00038179074999999995	-0.01911	0.16415	0.25934999999999997	-2.3536	9.4144	-964.03456	54.11
18863	4946391	0	-86	1310	31	-112	176	27	-434	1696	856	-71	1324	-1	2	-10	-44	145	648	2891	128	352	-32768	55.24	0.9958055761164568	0.0	52.99	1.0025660004934616	0.0	4449.47900390625	-7309.8408203125	37.400001525878906	13.04551124572754	0	0.0	0.0	0.0	0.0	0.0	0.0	0.0	0.0	0.0	0.0	0.0	0.0	7	0.9991857883049592	-0.051445685899999996	0.7836494015	0.01854437515	-0.04247260115	0.7920242806	-0.00059820565	-0.017104225600000002	0.026878068800000002	0.0041233401	0.0003054326	-0.001527163	-0.0067195172000000004	-0.060759999999999995	0.23743999999999998	0.11983999999999999	0.0203	0.09072	0.40474	-0.046959143525	0.78783684105	0.00897308475	-0.008399396500000001	0.0126754529	-0.0012980885500000002	-0.020229999999999998	0.16408	0.26228999999999997	3.76576	10.35584	-964.03456	54.115
18864	4946433	0	-91	1309	24	-106	182	22	-434	1696	856	-71	1324	1	2	-2	-40	145	648	2891	-80	256	-32768	55.24	0.9955391068344436	0.0	52.99	1.0025067850974587	0.0	4449.47900390625	-7309.8408203125	37.400001525878906	13.04551124572754	0	0.0	0.0	0.0	0.0	0.0	0.0	0.0	0.0	0.0	0.0	0.0	0.0	7	0.9990229459659512	-0.054436714149999996	0.7830511958499999	0.014356935599999999	-0.04247260115	0.7920242806	0.00059820565	-0.0161879278	0.0277943666	0.0033597586000000002	0.0003054326	-0.0003054326	-0.006108652	-0.060759999999999995	0.23743999999999998	0.11983999999999999	0.0203	0.09072	0.40474	-0.048454657649999996	0.787537738225	0.007477570624999999	-0.007941247600000001	0.013744467	-0.0013744467	-0.020229999999999998	0.16408	0.26228999999999997	-2.3536	7.53152	-964.03456	54.115
18865	4946477	0	-88	1313	25	-92	183	27	-434	1696	856	-69	1323	-1	2	-14	-45	145	648	2891	-16	368	-32768	55.22	0.9956575376264496	0.0	52.99	1.0023390081421168	0.0	4449.47900390625	-7309.8408203125	37.400001525878906	13.04551124572754	0	0.0	0.0	0.0	0.0	0.0	0.0	0.0	0.0	0.0	0.0	0.0	0.0	7	0.9989982728842832	-0.0526420972	0.78544401845	0.01495514125	-0.04127618985	0.79142607495	-0.00059820565	-0.0140498996	0.0279470829	0.0041233401	0.0003054326	-0.0021380282000000002	-0.0068722335	-0.060759999999999995	0.23743999999999998	0.11983999999999999	0.0203	0.09072	0.40474	-0.046959143525	0.7884350467	0.0071784678	-0.0068722335	0.01290452735	-0.0013744467	-0.020229999999999998	0.16408	0.26228999999999997	-0.47072	10.82656	-964.03456	54.105000000000004
18866	4946519	0	-85	1319	25	-109	197	23	-434	1696	856	-68	1325	0	-4	-15	-53	145	648	2891	-32	-16	-32768	55.23	0.9956970145571182	0.0	52.97	1.0026054774241302	0.0	4449.47900390625	-7309.8408203125	37.400001525878906	13.04551124572754	0	0.0	0.0	0.0	0.0	0.0	0.0	0.0	0.0	0.0	0.0	0.0	0.0	7	0.9991512459906242	-0.05084748025	0.78903325235	0.01495514125	-0.040677984199999996	0.79262248625	0.0	-0.0166460767	0.0300851111	0.0035124749	-0.0006108652	-0.0022907445	-0.0080939639	-0.060759999999999995	0.23743999999999998	0.11983999999999999	0.0203	0.09072	0.40474	-0.045762732225	0.7908278692999999	0.007477570625	-0.008628470950000001	0.0138971833	-0.0022907445000000005	-0.020229999999999998	0.16408	0.26228999999999997	-0.94144	-0.47072	-964.03456	54.099999999999994
18867	4946561	0	-88	1313	23	-107	192	22	-434	1696	856	-63	1330	-1	2	-1	-52	124	652	2911	-16	176	-32768	55.23	0.995627929928448	0.0	52.99	1.002457438934123	0.0	4449.47900390625	-7309.8408203125	37.400001525878906	13.04551124572754	0	0.0	0.0	0.0	0.0	0.0	0.0	0.0	0.0	0.0	0.0	0.0	0.0	7	0.9990426844312854	-0.0526420972	0.78544401845	0.01375872995	-0.037686955949999996	0.7956135145	-0.00059820565	-0.0163406441	0.0293215296	0.0033597586000000002	0.0003054326	-0.0001527163	-0.0079412476	-0.060759999999999995	0.23743999999999998	0.11983999999999999	0.017359999999999997	0.09127999999999999	0.40753999999999996	-0.045164526575	0.790528766475	0.00658026215	-0.00801760575	0.01458440665	-0.0022907444999999997	-0.021699999999999997	0.16435999999999998	0.26369	-0.47072	5.17792	-964.03456	54.11
18868	4946605	0	-87	1307	35	-99	193	15	-442	1706	790	-72	1326	2	6	-13	-50	124	652	2911	-16	288	-32768	55.24	0.9955489760671108	0.0	52.99	1.0025462620281274	0.0	4449.47900390625	-7309.8408203125	37.400001525878906	13.04551124572754	0	0.0	0.0	0.0	0.0	0.0	0.0	0.0	0.0	0.0	0.0	0.0	0.0	7	0.9990476190476191	-0.05204389155	0.78185478455	0.02093719775	-0.0430708068	0.7932206919	0.0011964113	-0.0151189137	0.0294742459	0.0022907445	0.0009162978	-0.0019853119	-0.007635815	-0.06188	0.23883999999999997	0.11059999999999999	0.017359999999999997	0.09127999999999999	0.40753999999999996	-0.047557349175	0.787537738225	0.011066804525	-0.00710130795	0.013744467	-0.00267253525	-0.022260000000000002	0.16505999999999998	0.25906999999999997	-0.47072	8.47296	-964.03456	54.115
18869	4946647	0	-87	1309	32	-102	183	18	-442	1706	790	-73	1324	-2	4	-7	-50	124	652	2911	-48	176	-32768	55.22	0.9954897606711078	0.0	52.99	1.002457438934123	0.0	4449.47900390625	-7309.8408203125	37.400001525878906	13.04551124572754	0	0.0	0.0	0.0	0.0	0.0	0.0	0.0	0.0	0.0	0.0	0.0	0.0	7	0.9989735998026155	-0.05204389155	0.7830511958499999	0.0191425808	-0.043669012449999996	0.7920242806	-0.0011964113	-0.0155770626	0.0279470829	0.0027488934	0.0006108652	-0.0010690141000000001	-0.007635815	-0.06188	0.23883999999999997	0.11059999999999999	0.017359999999999997	0.09127999999999999	0.40753999999999996	-0.047856451999999994	0.787537738225	0.00897308475	-0.0074830987	0.0134390344	-0.0024434608	-0.022260000000000002	0.16505999999999998	0.25906999999999997	-1.41216	5.17792	-964.03456	54.105000000000004
18870	4946691	0	-81	1309	28	-90	194	20	-442	1706	790	-66	1326	4	4	3	-55	124	652	2911	48	320	-32768	55.24	0.9957266222551197	0.0	52.99	1.0025660004934616	0.0	4449.47900390625	-7309.8408203125	37.400001525878906	13.04551124572754	0	0.0	0.0	0.0	0.0	0.0	0.0	0.0	0.0	0.0	0.0	0.0	0.0	7	0.9991463113742907	-0.048454657649999996	0.7830511958499999	0.0167497582	-0.0394815729	0.7932206919	0.0023928226	-0.013744467	0.0296269622	0.003054326	0.0006108652	0.0004581489	-0.0083993965	-0.06188	0.23883999999999997	0.11059999999999999	0.017359999999999997	0.09127999999999999	0.40753999999999996	-0.043968115275	0.788135943875	0.0095712904	-0.0065668009	0.01504255555	-0.00267253525	-0.022260000000000002	0.16505999999999998	0.25906999999999997	1.41216	9.4144	-964.03456	54.115
18871	4946733	0	-78	1309	35	-104	182	22	-442	1706	790	-65	1324	2	6	0	-53	124	652	2911	-32	336	-32768	55.23	0.995677276091784	0.0	52.99	1.0026646928201333	0.0	4449.47900390625	-7309.8408203125	37.400001525878906	13.04551124572754	0	0.0	0.0	0.0	0.0	0.0	0.0	0.0	0.0	0.0	0.0	0.0	0.0	7	0.9991709844559586	-0.0466600407	0.7830511958499999	0.02093719775	-0.03888336725	0.7920242806	0.0011964113	-0.0158824952	0.0277943666	0.0033597586000000002	0.0009162978	0.0	-0.0080939639	-0.06188	0.23883999999999997	0.11059999999999999	0.017359999999999997	0.09127999999999999	0.40753999999999996	-0.042771703975000006	0.787537738225	0.011066804525	-0.0074830986999999995	0.0138971833	-0.0023671026500000003	-0.022260000000000002	0.16505999999999998	0.25906999999999997	-0.94144	9.88512	-964.03456	54.11
18872	4946777	0	-86	1311	32	-104	186	17	-442	1706	790	-67	1323	1	7	-10	-57	122	660	2878	-16	320	-32768	55.23	0.9955292376017764	0.0	52.98	1.002526523562793	0.0	4449.47900390625	-7309.8408203125	37.400001525878906	13.04551124572754	0	0.0	0.0	0.0	0.0	0.0	0.0	0.0	0.0	0.0	0.0	0.0	0.0	7	0.9990278805822846	-0.051445685899999996	0.78424760715	0.0191425808	-0.04007977855	0.79142607495	0.00059820565	-0.0158824952	0.0284052318	0.0025961771	0.0010690141000000001	-0.001527163	-0.0087048291	-0.06188	0.23883999999999997	0.11059999999999999	0.017079999999999998	0.0924	0.40291999999999994	-0.045762732225	0.78783684105	0.009870393225	-0.00740674055	0.0134390344	-0.0030543260000000004	-0.0224	0.16562	0.25676	-0.47072	9.4144	-964.03456	54.105
18873	4946819	0	-75	1314	34	-103	182	21	-425	1704	855	-65	1328	4	4	-11	-49	122	660	2878	-48	304	-32768	55.23	0.9959042684431284	0.0	52.98	1.002526523562793	0.0	4449.47900390625	-7309.8408203125	37.400001525878906	13.04551124572754	0	0.0	0.0	0.0	0.0	0.0	0.0	0.0	0.0	0.0	0.0	0.0	0.0	7	0.9992153960029606	-0.04486542375	0.7860422241	0.020338992099999998	-0.03888336725	0.7944171032	0.0023928226	-0.0157297789	0.0277943666	0.0032070423	0.0006108652	-0.0016798793000000001	-0.0074830987	-0.0595	0.23855999999999997	0.11969999999999999	0.017079999999999998	0.0924	0.40291999999999994	-0.0418743955	0.79022966365	0.01136590735	-0.007559456850000001	0.01305724365	-0.0021380282000000002	-0.02121	0.16548	0.26131	-1.41216	8.94368	-964.03456	54.105
18874	4946861	0	-84	1313	30	-110	188	25	-425	1704	855	-65	1321	4	-2	-5	-46	122	660	2878	-96	240	-32768	55.24	0.9955391068344436	0.0	52.99	1.0024969158647916	0.0	4449.47900390625	-7309.8408203125	37.400001525878906	13.04551124572754	0	0.0	0.0	0.0	0.0	0.0	0.0	0.0	0.0	0.0	0.0	0.0	0.0	7	0.9990180113496177	-0.0502492746	0.78544401845	0.0179461695	-0.03888336725	0.79022966365	0.0023928226	-0.016798793	0.0287106644	0.0038179075	-0.0003054326	-0.0007635815	-0.0070249498	-0.0595	0.23855999999999997	0.11969999999999999	0.017079999999999998	0.0924	0.40291999999999994	-0.044566320925	0.7878368410500001	0.01016949605	-0.0085521128	0.01397354145	-0.0016035211500000002	-0.02121	0.16548	0.26131	-2.82432	7.0608	-964.03456	54.115
18875	4946905	0	-85	1310	30	-111	182	32	-425	1704	855	-64	1330	2	6	-11	-36	122	660	2878	-16	240	-32768	55.24	0.9955193683691091	0.0	52.99	1.0026646928201333	0.0	4449.47900390625	-7309.8408203125	37.400001525878906	13.04551124572754	0	0.0	0.0	0.0	0.0	0.0	0.0	0.0	0.0	0.0	0.0	0.0	0.0	7	0.9990920305946211	-0.05084748025	0.7836494015	0.0179461695	-0.0382851616	0.7956135145	0.0011964113	-0.0169515093	0.0277943666	0.0048869216	0.0009162978	-0.0016798793000000001	-0.0054977868	-0.0595	0.23855999999999997	0.11969999999999999	0.017079999999999998	0.0924	0.40291999999999994	-0.044566320925	0.7896314579999999	0.0095712904	-0.00801760575	0.01305724365	-0.0003054325999999998	-0.02121	0.16548	0.26131	-0.47072	7.0608	-964.03456	54.115
18876	4946949	0	-86	1310	37	-113	196	39	-425	1704	855	-68	1323	3	-4	-7	-40	122	660	2878	-32	240	-32768	55.24	0.9956674068591168	0.0	52.99	1.0025067850974587	0.0	4449.47900390625	-7309.8408203125	37.400001525878906	13.04551124572754	0	0.0	0.0	0.0	0.0	0.0	0.0	0.0	0.0	0.0	0.0	0.0	0.0	7	0.9990870959782878	-0.051445685899999996	0.7836494015	0.02213360905	-0.040677984199999996	0.79142607495	0.0017946169499999999	-0.0172569419	0.0299323948	0.0059559357	-0.0006108652	-0.0010690141000000001	-0.006108652	-0.0595	0.23855999999999997	0.11969999999999999	0.017079999999999998	0.0924	0.40291999999999994	-0.04606183505	0.787537738225	0.011964113	-0.00893390355	0.01443169035	-7.635815000000016e-05	-0.02121	0.16548	0.26131	-0.94144	7.0608	-964.03456	54.115
18877	4946993	0	-87	1313	30	-117	194	27	-465	1698	834	-71	1322	1	-7	-8	-37	108	640	2917	-32	240	-32768	55.24	0.9955983222304464	0.0	52.99	1.0024377004687886	0.0	4449.47900390625	-7309.8408203125	37.400001525878906	13.04551124572754	0	0.0	0.0	0.0	0.0	0.0	0.0	0.0	0.0	0.0	0.0	0.0	0.0	7	0.9990180113496174	-0.05204389155	0.78544401845	0.0179461695	-0.04247260115	0.7908278692999999	0.00059820565	-0.0178678071	0.0296269622	0.0041233401	-0.0010690141000000001	-0.0012217304	-0.0056505031	-0.06509999999999999	0.23772	0.11675999999999999	0.015119999999999998	0.08959999999999999	0.40837999999999997	-0.04725824635	0.788135943875	0.009272187575	-0.009468410600000001	0.0142026159	-0.0007635814999999999	-0.02499	0.16365999999999997	0.26256999999999997	-0.94144	7.0608	-964.03456	54.115
18878	4947035	0	-91	1318	27	-121	185	28	-465	1698	834	-75	1325	0	-1	-8	-38	108	640	2917	-16	224	-32768	55.24	0.9958351838144583	0.0	52.99	1.0024969158647916	0.0	4449.47900390625	-7309.8408203125	37.400001525878906	13.04551124572754	0	0.0	0.0	0.0	0.0	0.0	0.0	0.0	0.0	0.0	0.0	0.0	0.0	7	0.999166049839625	-0.054436714149999996	0.7884350467	0.01615155255	-0.04486542375	0.79262248625	0.0	-0.0184786723	0.0282525155	0.0042760564000000004	-0.0001527163	-0.0012217304	-0.0058032194	-0.06509999999999999	0.23772	0.11675999999999999	0.015119999999999998	0.08959999999999999	0.40837999999999997	-0.04965106895	0.790528766475	0.008075776275	-0.0093156943	0.01351539255	-0.0007635814999999999	-0.02499	0.16365999999999997	0.26256999999999997	-0.47072	6.59008	-964.03456	54.115
18879	4947077	0	-89	1316	28	-108	182	32	-465	1698	834	-70	1324	-2	5	-7	-41	108	640	2917	-80	304	-32768	55.21	0.9957562299531212	0.0	52.97	1.0023488773747842	0.0	4449.47900390625	-7309.8408203125	37.400001525878906	13.04551124572754	0	0.0	0.0	0.0	0.0	0.0	0.0	0.0	0.0	0.0	0.0	0.0	0.0	7	0.9990525536639527	-0.05324030285	0.7872386353999999	0.0167497582	-0.0418743955	0.7920242806	-0.0011964113	-0.0164933604	0.0277943666	0.0048869216	0.0007635815	-0.0010690141000000001	-0.0062613683	-0.06509999999999999	0.23772	0.11675999999999999	0.015119999999999998	0.08959999999999999	0.40837999999999997	-0.047557349175	0.7896314579999999	0.0077766734499999995	-0.00786488945	0.013362676249999999	-0.0006872233500000002	-0.02499	0.16365999999999997	0.26256999999999997	-2.3536	8.94368	-964.03456	54.09
18880	4947119	0	-88	1313	25	-107	195	23	-465	1698	834	-71	1328	-4	0	-12	-55	108	640	2917	-16	496	-32768	55.23	0.995677276091784	0.0	52.97	1.0025660004934616	0.0	4449.47900390625	-7309.8408203125	37.400001525878906	13.04551124572754	0	0.0	0.0	0.0	0.0	0.0	0.0	0.0	0.0	0.0	0.0	0.0	0.0	7	0.9991216382926228	-0.0526420972	0.78544401845	0.01495514125	-0.04247260115	0.7944171032	-0.0023928226	-0.0163406441	0.0297796785	0.0035124749	0.0	-0.0018325956	-0.0083993965	-0.06509999999999999	0.23772	0.11675999999999999	0.015119999999999998	0.08959999999999999	0.40837999999999997	-0.047557349175	0.789930560825	0.006281159325	-0.00817032205	0.01397354145	-0.0024434608	-0.02499	0.16365999999999997	0.26256999999999997	-0.47072	14.59232	-964.03456	54.099999999999994
18881	4947161	0	-88	1314	20	-111	199	26	-465	1698	834	-71	1321	-2	4	-18	-45	109	662	2906	-80	272	-32768	55.22	0.9955983222304464	0.0	52.98	1.00246730816679	0.0	4449.47900390625	-7309.8408203125	37.400001525878906	13.04551124572754	0	0.0	0.0	0.0	0.0	0.0	0.0	0.0	0.0	0.0	0.0	0.0	0.0	7	0.9990328151986183	-0.0526420972	0.7860422241	0.011964113	-0.04247260115	0.79022966365	-0.0011964113	-0.0169515093	0.0303905437	0.0039706238	0.0006108652	-0.0027488934	-0.0068722335	-0.06509999999999999	0.23772	0.11675999999999999	0.01526	0.09268	0.40684	-0.047557349175	0.788135943875	0.00538385085	-0.00817032205	0.01382082515	-0.00145080485	-0.024919999999999998	0.16519999999999999	0.2618	-2.3536	8.00224	-964.03456	54.099999999999994
18882	4947205	0	-88	1309	30	-103	188	18	-451	1706	824	-78	1327	0	9	-8	-53	109	662	2906	80	272	-32768	55.23	0.9958055761164568	0.0	52.99	1.0024969158647916	0.0	4449.47900390625	-7309.8408203125	37.400001525878906	13.04551124572754	0	0.0	0.0	0.0	0.0	0.0	0.0	0.0	0.0	0.0	0.0	0.0	0.0	7	0.9991512459906242	-0.0526420972	0.7830511958499999	0.0179461695	-0.0466600407	0.79381889755	0.0	-0.0157297789	0.0287106644	0.0027488934	0.0013744467	-0.0012217304	-0.0080939639	-0.06313999999999999	0.23883999999999997	0.11535999999999999	0.01526	0.09268	0.40684	-0.04965106895	0.7884350467	0.00897308475	-0.0071776661000000005	0.013744467	-0.0026725352500000005	-0.023939999999999996	0.16576	0.2611	2.3536	8.00224	-964.03456	54.11
