timestampMs,pressurePa,tempK,accelX,accelY,accelZ,gyroX,gyroY,gyroZ,imuTemp,battV,altitudeM,velocityMS,accelerationMSS,unfiltAlt,flightState,drogueCont,drogueFired,mainCont,mainFired,tiltMagnitudeDeg,angularVelRadS_x,angularVelRadS_y,angularVelRadS_z,quaternion_a,quaternion_b,quaternion_c,quaternion_d
5116,101691.312500,278.92,-9.935936,0.158017,-0.148440,-0.009578,0.018091,0.003192,283.51,4.06,-0.36,0.09,0.11,-29.445154,0,1,0,1,0,,,,,,,,
10116,101696.546875,279.02,-9.926360,0.258573,-0.057460,-0.008513,0.012770,0.003192,283.65,4.03,-0.62,-0.08,0.11,-29.865283,0,1,0,1,0,,,,,,,,
15116,101683.828125,279.12,-9.921571,0.196324,-0.138863,-0.008513,0.018091,0.002128,283.80,4.06,0.24,0.53,0.11,-28.844402,0,1,0,1,0,,,,,,,,
20116,101689.046875,279.22,-9.916783,0.148440,-0.071826,-0.009578,0.012770,0.004256,283.90,4.03,-0.39,-0.19,0.11,-29.263301,0,1,0,1,0,,,,,,,,
25116,101676.281250,279.32,-9.931148,0.239420,-0.172382,-0.008513,0.011706,0.004256,284.04,4.06,0.26,0.23,0.11,-28.238594,0,1,0,1,0,,,,,,,,
30116,101677.625000,279.40,-9.940725,0.177170,-0.105344,-0.009578,0.011706,0.005321,284.24,4.05,0.50,0.33,0.11,-28.346464,0,1,0,1,0,,,,,,,,
35116,101682.828125,279.50,-9.931148,0.201112,-0.143652,-0.010642,0.012770,0.007449,284.39,4.03,0.35,0.19,0.11,-28.764131,0,1,0,1,0,,,,,,,,
40116,101684.156250,279.58,-9.916783,0.153228,-0.052672,-0.010642,0.012770,0.006385,284.19,4.05,0.32,-0.07,0.11,-28.870740,0,1,0,1,0,,,,,,,,
45116,101685.468750,279.66,-9.945513,0.196324,-0.138863,-0.013834,0.014899,0.008513,284.19,4.03,0.47,-0.01,0.11,-28.976093,0,1,0,1,0,,,,,,,,
50116,101668.796875,279.75,-9.892841,0.282515,-0.186747,-0.011706,0.011706,0.004256,284.44,4.05,0.85,0.27,0.10,-27.637769,0,1,0,1,0,,,,,,,,
55116,101670.109375,279.83,-9.931148,0.225054,-0.134075,-0.008513,0.009578,0.004256,284.53,4.03,0.76,0.01,0.10,-27.743135,0,1,0,1,0,,,,,,,,
60116,101685.562500,279.90,-9.892841,0.167594,-0.057460,-0.012770,0.011706,0.006385,284.44,4.05,0.46,-0.32,0.11,-28.983619,0,1,0,1,0,,,,,,,,
65116,101686.859375,279.98,-9.916783,0.225054,-0.124498,-0.009578,0.013834,0.009578,284.68,4.05,0.87,0.03,0.11,-29.087717,0,1,0,1,0,,,,,,,,
70116,101666.234375,280.04,-9.911994,0.220266,-0.100556,-0.012770,0.012770,0.005321,284.78,4.03,0.43,-0.43,0.10,-27.432050,0,1,0,1,0,,,,,,,,
75116,101663.671875,280.11,-9.931148,0.205901,-0.114921,-0.010642,0.009578,0.004256,284.73,4.05,1.50,0.42,0.11,-27.226327,0,1,0,1,0,,,,,,,,
80116,101661.093750,280.18,-9.959878,0.191536,-0.081402,-0.010642,0.012770,0.006385,284.78,4.03,1.60,0.49,0.11,-27.019346,0,1,0,1,0,,,,,,,,
85116,101676.531250,280.24,-9.921571,0.239420,-0.143652,-0.009578,0.013834,0.007449,284.88,4.05,1.08,-0.07,0.11,-28.258663,0,1,0,1,0,,,,,,,,
90116,101670.062500,280.29,-9.935936,0.167594,-0.105344,-0.011706,0.015963,0.004256,285.27,4.03,1.14,-0.12,0.11,-27.739372,0,1,0,1,0,,,,,,,,
95116,101667.484375,280.36,-9.935936,0.225054,-0.167594,-0.012770,0.013834,0.005321,285.22,4.05,1.64,0.45,0.11,-27.532402,0,1,0,1,0,,,,,,,,
100116,101661.000000,280.41,-9.921571,0.225054,-0.124498,-0.010642,0.010642,0.006385,285.07,4.05,1.43,0.01,0.10,-27.011819,0,1,0,1,0,,,,,,,,
105116,101668.718750,280.44,-9.935936,0.263362,-0.153228,-0.010642,0.012770,0.007449,285.12,4.03,1.34,-0.15,0.11,-27.631498,0,1,0,1,0,,,,,,,,
110116,101666.125000,280.51,-9.907206,0.186747,-0.090979,-0.008513,0.012770,0.007449,285.22,4.05,1.52,-0.08,0.11,-27.423269,0,1,0,1,0,,,,,,,,
115116,101655.796875,280.54,-9.878476,0.268150,-0.177170,-0.013834,0.012770,0.003192,285.27,4.03,2.36,0.75,0.10,-26.594079,0,1,0,1,0,,,,,,,,
120116,101667.343750,280.59,-9.969455,0.220266,-0.105344,-0.006385,0.012770,0.007449,285.46,4.05,1.76,0.14,0.11,-27.521112,0,1,0,1,0,,,,,,,,
125116,101660.875000,280.64,-9.897629,0.205901,-0.100556,-0.010642,0.010642,0.002128,285.32,4.03,2.26,0.54,0.10,-27.001783,0,1,0,1,0,,,,,,,,
130116,101650.531250,280.67,-9.916783,0.205901,-0.110133,-0.010642,0.012770,0.006385,285.32,4.05,0.22,0.37,0.11,-26.359176,0,1,0,1,0,,,,,,,,
135116,101658.265625,280.70,-9.921571,0.205901,-0.119710,-0.011706,0.014899,0.008513,285.42,4.05,0.14,0.21,0.10,-26.984617,0,1,0,1,0,,,,,,,,
140116,101669.796875,280.75,-9.940725,0.248996,-0.081402,-0.009578,0.011706,0.005321,285.61,4.02,-0.19,-0.08,0.10,-27.917024,0,1,0,1,0,,,,,,,,
145116,101659.484375,280.79,-9.907206,0.134075,-0.081402,-0.012770,0.014899,0.007449,285.81,4.05,0.07,0.09,0.11,-27.083169,0,1,0,1,0,,,,,,,,
150116,101671.015625,280.84,-9.916783,0.205901,-0.129286,-0.010642,0.012770,0.007449,285.51,4.03,0.07,0.12,0.11,-28.015565,0,1,0,1,0,,,,,,,,
155116,101674.875000,280.85,-9.916783,0.277727,-0.134075,-0.008513,0.011706,0.005321,285.66,4.05,-0.11,-0.07,0.11,-28.327610,0,1,0,1,0,,,,,,,,
160116,101650.343750,280.90,-9.907206,0.354341,-0.272938,-0.014899,0.012770,0.000000,285.66,4.02,0.73,0.71,0.10,-26.344013,0,1,0,1,0,,,,,,,,
165116,101654.171875,280.92,-9.931148,0.167594,-0.153228,-0.010642,0.010642,0.005321,285.95,4.05,0.37,0.40,0.10,-26.653581,0,1,0,1,0,,,,,,,,
170116,101661.906250,280.95,-9.911994,0.153228,-0.143652,-0.013834,0.014899,0.008513,285.81,4.05,0.05,0.11,0.10,-27.279005,0,1,0,1,0,,,,,,,,
175116,101669.593750,280.98,-9.868899,0.363918,-0.181959,-0.004256,0.014899,0.006385,285.51,4.03,0.16,0.19,0.10,-27.900600,0,1,0,1,0,,,,,,,,
180116,101659.218750,281.02,-9.878476,0.244208,-0.119710,-0.009578,0.011706,0.005321,285.81,4.05,0.07,0.12,0.11,-27.061689,0,1,0,1,0,,,,,,,,
185116,101663.109375,281.03,-9.911994,0.272938,-0.225054,-0.007449,0.006385,0.008513,285.61,4.03,0.20,0.19,0.10,-27.376289,0,1,0,1,0,,,,,,,,
190116,101652.734375,281.07,-9.859322,0.033518,0.134075,0.050018,0.008513,0.007449,285.95,4.05,0.27,0.20,0.13,-26.537336,0,1,0,1,0,,,,,,,,
195116,101660.421875,281.10,-9.907206,0.339976,-0.114921,-0.012770,0.011706,0.007449,286.05,4.02,-0.15,-0.17,0.11,-27.158977,0,1,0,1,0,,,,,,,,
200116,101664.265625,281.12,-9.926360,0.268150,-0.086191,-0.008513,0.011706,0.004256,285.95,4.05,0.15,0.15,0.11,-27.469783,0,1,0,1,0,,,,,,,,
205116,101653.921875,281.15,-9.888052,0.210689,-0.134075,-0.010642,0.012770,0.007449,285.76,4.05,0.16,0.03,0.10,-26.633363,0,1,0,1,0,,,,,,,,
210116,101657.765625,281.16,-9.940725,0.148440,-0.100556,-0.010642,0.009578,0.005321,285.86,4.03,-0.10,-0.14,0.10,-26.944187,0,1,0,1,0,,,,,,,,
215116,101643.546875,281.18,-9.916783,0.210689,-0.148440,-0.008513,0.014899,0.006385,286.05,4.05,0.71,0.54,0.11,-25.794349,0,1,0,1,0,,,,,,,,
220116,101669.328125,281.21,-9.955090,0.153228,0.028730,-0.011706,0.015963,0.006385,286.05,4.02,-0.04,-0.17,0.12,-27.879123,0,1,0,1,0,,,,,,,,
225116,101655.109375,281.23,-9.902418,0.181959,-0.105344,-0.010642,0.010642,0.004256,286.00,4.05,0.50,0.40,0.10,-26.729391,0,1,0,1,0,,,,,,,,
230116,101640.875000,281.25,-9.907206,0.215478,-0.114921,-0.011706,0.013834,0.005321,286.20,4.02,0.31,0.27,0.10,-25.578266,0,1,0,1,0,,,,,,,,
235116,101644.718750,281.26,-9.878476,0.225054,-0.158017,-0.008513,0.010642,0.000000,285.95,4.05,0.27,0.22,0.11,-25.889122,0,1,0,1,0,,,,,,,,
240116,101652.437500,281.30,-9.931148,0.253785,-0.129286,-0.014899,0.012770,0.008513,286.30,4.05,0.08,-0.07,0.11,-26.513328,0,1,0,1,0,,,,,,,,
245116,101656.281250,281.31,-9.883264,0.210689,-0.110133,-0.011706,0.012770,0.003192,286.00,4.02,0.12,0.00,0.10,-26.824153,0,1,0,1,0,,,,,,,,
250116,101660.125000,281.33,-9.897629,0.244208,-0.225054,-0.011706,0.012770,0.005321,286.20,4.05,-0.04,-0.21,0.11,-27.134971,0,1,0,1,0,,,,,,,,
255116,101663.953125,281.35,-9.911994,0.177170,-0.081402,-0.009578,0.008513,0.008513,286.20,4.02,-0.12,-0.22,0.11,-27.444515,0,1,0,1,0,,,,,,,,
260116,101649.734375,281.36,-9.916783,0.239420,-0.258573,-0.009578,0.011706,0.009578,286.15,4.05,0.25,0.19,0.11,-26.294734,0,1,0,1,0,,,,,,,,
265116,101653.578125,281.38,-9.916783,0.215478,-0.047884,-0.010642,0.008513,0.007449,286.00,4.02,0.40,0.29,0.10,-26.605566,0,1,0,1,0,,,,,,,,
270116,101657.437500,281.40,-9.983820,0.248996,-0.119710,-0.011706,0.012770,0.004256,286.20,4.05,0.09,-0.03,0.11,-26.917654,0,1,0,1,0,,,,,,,,
275116,101661.296875,281.41,-9.911994,0.186747,-0.129286,-0.009578,0.014899,0.006385,286.20,4.05,-0.27,-0.43,0.10,-27.229730,0,1,0,1,0,,,,,,,,
280116,101661.296875,281.41,-9.926360,0.220266,-0.014365,-0.018091,0.011706,0.005321,286.30,4.02,0.41,0.15,0.11,-27.229730,0,1,0,1,0,,,,,,,,
285116,101647.062500,281.43,-9.902418,0.248996,-0.196324,-0.013834,0.013834,0.007449,286.20,4.05,0.45,0.20,0.11,-26.078662,0,1,0,1,0,,,,,,,,
290116,101650.890625,281.45,-9.921571,0.201112,-0.167594,-0.011706,0.008513,0.001064,286.20,4.02,0.64,0.35,0.10,-26.388236,0,1,0,1,0,,,,,,,,
295116,101654.750000,281.46,-9.916783,0.167594,-0.100556,-0.011706,0.015963,0.008513,286.20,4.05,-0.06,-0.29,0.10,-26.700330,0,1,0,1,0,,,,,,,,
300116,101658.609375,281.48,-9.916783,0.205901,-0.134075,-0.011706,0.009578,0.005321,286.20,4.02,-0.13,-0.27,0.10,-27.012414,0,1,0,1,0,,,,,,,,
305116,101640.546875,281.48,-9.911994,0.239420,-0.162805,-0.009578,0.012770,0.003192,286.35,4.05,0.76,0.43,0.11,-25.551729,0,1,0,1,0,,,,,,,,
310116,101644.375000,281.49,-9.892841,0.177170,-0.124498,-0.011706,0.014899,0.005321,286.49,4.05,0.93,0.51,0.10,-25.861322,0,1,0,1,0,,,,,,,,
315116,101666.296875,281.51,-9.911994,0.220266,-0.114921,-0.009578,0.012770,0.008513,286.30,4.02,0.62,0.25,0.11,-27.634025,0,1,0,1,0,,,,,,,,
320116,101648.218750,281.51,-9.911994,0.181959,-0.076614,-0.009578,0.012770,0.006385,286.35,4.05,0.55,0.15,0.11,-26.172166,0,1,0,1,0,,,,,,,,
325116,101670.140625,281.53,-9.902418,0.244208,-0.143652,-0.011706,0.010642,0.005321,286.15,4.02,0.32,-0.03,0.11,-27.944818,0,1,0,1,0,,,,,,,,
330116,101652.062500,281.53,-9.926360,0.205901,-0.129286,-0.011706,0.012770,0.004256,286.39,4.05,0.56,-0.01,0.11,-26.483003,0,1,0,1,0,,,,,,,,
335116,101655.890625,281.54,-9.888052,0.234631,-0.158017,-0.011706,0.012770,0.003192,286.20,4.02,0.61,0.07,0.10,-26.792566,0,1,0,1,0,,,,,,,,
340116,101655.890625,281.54,-9.921571,0.205901,-0.110133,-0.012770,0.013834,0.006385,286.35,4.05,0.56,0.03,0.11,-26.792566,0,1,0,1,0,,,,,,,,
345116,101641.687500,281.56,-9.931148,0.191536,-0.134075,-0.009578,0.010642,0.004256,286.54,4.04,1.00,0.42,0.10,-25.643976,0,1,0,1,0,,,,,,,,
350116,101659.765625,281.56,-9.916783,0.167594,-0.138863,-0.010642,0.013834,0.006385,286.54,4.02,0.93,0.39,0.11,-27.105911,0,1,0,1,0,,,,,,,,
355116,101645.531250,281.58,-9.892841,0.220266,-0.119710,-0.010642,0.012770,0.005321,286.59,4.04,1.35,0.61,0.10,-25.954828,0,1,0,1,0,,,,,,,,
360116,101649.359375,281.59,-9.902418,0.225054,-0.095768,-0.010642,0.011706,0.005321,286.54,4.02,0.67,0.09,0.10,-26.264408,0,1,0,1,0,,,,,,,,
365116,101653.203125,281.61,-9.921571,0.186747,-0.110133,-0.010642,0.010642,0.006385,286.49,4.05,0.69,0.00,0.11,-26.575241,0,1,0,1,0,,,,,,,,
370116,101653.203125,281.61,-9.931148,0.177170,-0.110133,-0.008513,0.011706,0.005321,286.54,4.02,0.69,0.00,0.10,-26.575241,0,1,0,1,0,,,,,,,,
375116,101657.046875,281.63,-9.897629,0.215478,-0.138863,-0.009578,0.011706,0.005321,286.54,4.05,0.48,-0.19,0.10,-26.886066,0,1,0,1,0,,,,,,,,
380116,101657.046875,281.63,-9.911994,0.172382,-0.119710,-0.009578,0.011706,0.009578,286.59,4.05,0.46,-0.33,0.11,-26.886066,0,1,0,1,0,,,,,,,,
385116,101638.968750,281.63,-9.888052,0.229843,-0.119710,-0.012770,0.011706,0.003192,286.39,4.02,1.38,0.66,0.10,-25.424098,0,1,0,1,0,,,,,,,,
390116,101642.796875,281.64,-9.907206,0.234631,-0.119710,-0.008513,0.010642,0.006385,286.54,4.04,1.23,0.39,0.10,-25.733695,0,1,0,1,0,,,,,,,,
395116,101646.671875,281.66,-9.921571,0.205901,-0.119710,-0.008513,0.010642,0.005321,286.49,4.02,1.12,0.31,0.11,-26.047071,0,1,0,1,0,,,,,,,,
400116,101646.671875,281.66,-9.916783,0.244208,-0.119710,-0.011706,0.011706,0.005321,286.69,4.05,0.81,0.00,0.10,-26.047071,0,1,0,1,0,,,,,,,,
405116,101632.421875,281.68,-9.907206,0.191536,-0.105344,-0.009578,0.012770,0.004256,286.54,4.01,1.20,0.41,0.10,-24.894605,0,1,0,1,0,,,,,,,,
410116,101668.578125,281.68,-9.902418,0.186747,-0.081402,-0.010642,0.014899,0.005321,286.69,4.05,0.44,-0.35,0.10,-27.818481,0,1,0,1,0,,,,,,,,
415116,101650.500000,281.68,-9.921571,0.258573,-0.143652,-0.010642,0.013834,0.007449,286.49,4.04,0.88,0.04,0.11,-26.356649,0,1,0,1,0,,,,,,,,
420116,101636.265625,281.69,-9.911994,0.191536,-0.090979,-0.012770,0.012770,0.005321,286.59,4.02,0.79,-0.12,0.10,-25.205480,0,1,0,1,0,,,,,,,,
425116,101654.343750,281.69,-9.907206,0.220266,-0.134075,-0.006385,0.010642,0.003192,286.49,4.04,0.69,-0.26,0.10,-26.667478,0,1,0,1,0,,,,,,,,
430116,101640.109375,281.71,-9.926360,0.210689,-0.148440,-0.011706,0.012770,0.006385,286.69,4.02,1.35,0.47,0.10,-25.516347,0,1,0,1,0,,,,,,,,
435116,101658.187500,281.71,-9.945513,0.215478,-0.095768,-0.010642,0.012770,0.006385,286.54,4.05,1.17,0.17,0.11,-26.978300,0,1,0,1,0,,,,,,,,
440116,101658.187500,281.71,-9.902418,0.177170,-0.105344,-0.008513,0.011706,0.006385,286.59,4.01,0.99,0.00,0.10,-26.978300,0,1,0,1,0,,,,,,,,
445116,101643.937500,281.73,-9.931148,0.196324,-0.138863,-0.010642,0.013834,0.007449,286.84,4.05,1.04,0.02,0.11,-25.825941,0,1,0,1,0,,,,,,,,
450116,101662.015625,281.73,-9.902418,0.205901,-0.105344,-0.010642,0.011706,0.008513,286.54,4.04,0.69,-0.31,0.10,-27.287849,0,1,0,1,0,,,,,,,,
455116,101647.796875,281.74,-9.940725,0.196324,-0.143652,-0.010642,0.012770,0.004256,286.59,4.02,1.00,-0.03,0.10,-26.138050,0,1,0,1,0,,,,,,,,
460116,101647.796875,281.74,-9.902418,0.220266,-0.095768,-0.009578,0.013834,0.004256,286.54,4.04,0.83,-0.25,0.10,-26.138050,0,1,0,1,0,,,,,,,,
465116,101651.640625,281.76,-9.911994,0.205901,-0.100556,-0.011706,0.012770,0.006385,286.30,4.01,0.81,-0.21,0.10,-26.448888,0,1,0,1,0,,,,,,,,
470116,101633.562500,281.76,-9.902418,0.210689,-0.105344,-0.011706,0.010642,0.006385,286.54,4.04,1.44,0.46,0.10,-24.986858,0,1,0,1,0,,,,,,,,
475116,101633.562500,281.76,-9.964667,0.191536,-0.124498,-0.010642,0.012770,0.006385,286.54,4.02,1.61,0.43,0.11,-24.986858,0,1,0,1,0,,,,,,,,
480116,101633.562500,281.76,-9.911994,0.220266,-0.105344,-0.010642,0.011706,0.005321,286.59,4.04,1.41,0.19,0.10,-24.986858,0,1,0,1,0,,,,,,,,
485116,101655.468750,281.78,-9.940725,0.201112,-0.119710,-0.009578,0.013834,0.007449,286.54,4.05,1.37,0.18,0.10,-26.758453,0,1,0,1,0,,,,,,,,
490116,101637.390625,281.78,-9.911994,0.220266,-0.090979,-0.008513,0.012770,0.005321,286.59,4.01,1.67,0.41,0.10,-25.296466,0,1,0,1,0,,,,,,,,
495116,101637.390625,281.78,-9.931148,0.196324,-0.081402,-0.011706,0.011706,0.008513,286.74,4.04,1.58,0.34,0.10,-25.296466,0,1,0,1,0,,,,,,,,
500116,101641.234375,281.79,-9.926360,0.201112,-0.100556,-0.012770,0.013834,0.006385,286.59,4.01,1.69,0.37,0.10,-25.607330,0,1,0,1,0,,,,,,,,
505116,101641.234375,281.79,-9.888052,0.215478,-0.076614,-0.009578,0.013834,0.006385,286.54,4.04,1.67,0.28,0.10,-25.607330,0,1,0,1,0,,,,,,,,
510116,101641.234375,281.79,-9.897629,0.268150,-0.148440,-0.008513,0.014899,0.006385,286.59,4.01,1.18,-0.10,0.10,-25.607330,0,1,0,1,0,,,,,,,,
515116,101626.984375,281.81,-9.926360,0.172382,-0.100556,-0.012770,0.013834,0.005321,286.74,4.05,1.66,0.32,0.11,-24.454814,0,1,0,1,0,,,,,,,,
520116,101645.078125,281.81,-9.902418,0.229843,-0.095768,-0.011706,0.011706,0.003192,286.54,4.04,1.19,-0.13,0.11,-25.918184,0,1,0,1,0,,,,,,,,
525116,101645.078125,281.81,-9.892841,0.191536,-0.114921,-0.009578,0.012770,0.008513,286.69,4.01,1.36,0.03,0.10,-25.918184,0,1,0,1,0,,,,,,,,
530116,101630.843750,281.82,-9.950302,0.205901,-0.138863,-0.011706,0.011706,0.005321,286.74,4.05,1.56,0.11,0.10,-24.766967,0,1,0,1,0,,,,,,,,
535116,101648.921875,281.82,-9.897629,0.215478,-0.114921,-0.011706,0.012770,0.005321,286.69,4.01,1.30,-0.13,0.10,-26.229028,0,1,0,1,0,,,,,,,,
540116,101630.843750,281.82,-9.926360,0.215478,-0.100556,-0.008513,0.012770,0.005321,286.69,4.04,1.61,0.11,0.10,-24.766967,0,1,0,1,0,,,,,,,,
545116,101634.687500,281.84,-9.902418,0.201112,-0.129286,-0.009578,0.012770,0.004256,286.59,4.01,1.97,0.52,0.11,-25.077846,0,1,0,1,0,,,,,,,,
550116,101634.687500,281.84,-9.921571,0.210689,-0.138863,-0.008513,0.014899,0.008513,286.59,4.04,1.55,0.09,0.11,-25.077846,0,1,0,1,0,,,,,,,,
555116,101652.765625,281.84,-9.907206,0.220266,-0.143652,-0.011706,0.010642,0.005321,286.69,4.04,1.14,-0.38,0.10,-26.539863,0,1,0,1,0,,,,,,,,
560116,101634.687500,281.84,-9.916783,0.196324,-0.105344,-0.008513,0.013834,0.009578,286.88,4.01,1.88,0.26,0.10,-25.077846,0,1,0,1,0,,,,,,,,
565116,101638.531250,281.86,-9.888052,0.225054,-0.105344,-0.012770,0.012770,0.004256,286.93,4.04,1.52,-0.08,0.10,-25.388715,0,1,0,1,0,,,,,,,,
570116,101652.765625,281.84,-9.926360,0.239420,-0.124498,-0.010642,0.010642,0.006385,286.54,4.01,1.21,-0.32,0.10,-26.539863,0,1,0,1,0,,,,,,,,
575116,101638.531250,281.86,-9.916783,0.234631,-0.124498,-0.009578,0.013834,0.007449,286.69,4.04,1.96,0.32,0.10,-25.388715,0,1,0,1,0,,,,,,,,
580116,101642.343750,281.87,-9.897629,0.215478,-0.110133,-0.008513,0.013834,0.004256,286.84,4.01,1.35,-0.25,0.11,-25.697050,0,1,0,1,0,,,,,,,,
585116,101638.531250,281.86,-9.921571,0.210689,-0.119710,-0.009578,0.012770,0.007449,286.74,4.04,1.54,-0.15,0.11,-25.388715,0,1,0,1,0,,,,,,,,
590116,101638.531250,281.86,-9.902418,0.220266,-0.062249,-0.010642,0.015963,0.007449,286.54,4.03,1.72,0.16,0.11,-25.388715,0,1,0,1,0,,,,,,,,
595116,101624.265625,281.87,-9.916783,0.181959,-0.148440,-0.012770,0.009578,0.004256,286.54,4.02,2.24,0.54,0.11,-24.234910,0,1,0,1,0,,,,,,,,
600116,101642.343750,281.87,-9.873687,0.229843,-0.143652,-0.010642,0.014899,0.008513,286.69,4.04,1.84,0.17,0.10,-25.697050,0,1,0,1,0,,,,,,,,
605116,101642.343750,281.87,-9.888052,0.162805,-0.086191,-0.010642,0.013834,0.006385,286.69,4.01,1.65,-0.11,0.10,-25.697050,0,1,0,1,0,,,,,,,,
610116,101624.265625,281.87,-9.883264,0.225054,-0.129286,-0.009578,0.012770,0.006385,286.74,4.05,1.83,0.12,0.09,-24.234910,0,1,0,1,0,,,,,,,,
615116,101624.265625,281.87,-9.921571,0.248996,-0.105344,-0.011706,0.013834,0.007449,286.59,4.01,2.12,0.34,0.10,-24.234910,0,1,0,1,0,,,,,,,,
620116,101628.109375,281.89,-9.921571,0.181959,-0.095768,-0.009578,0.013834,0.006385,286.69,4.04,1.95,0.16,0.11,-24.545806,0,1,0,1,0,,,,,,,,
625116,101628.109375,281.89,-9.907206,0.210689,-0.110133,-0.010642,0.009578,0.004256,286.54,4.03,2.27,0.46,0.10,-24.545806,0,1,0,1,0,,,,,,,,
630116,101646.187500,281.89,-9.897629,0.234631,-0.110133,-0.011706,0.011706,0.007449,286.84,4.01,1.53,-0.21,0.10,-26.007900,0,1,0,1,0,,,,,,,,
635116,101628.109375,281.89,-9.921571,0.244208,-0.114921,-0.011706,0.014899,0.006385,286.88,4.04,2.10,0.30,0.10,-24.545806,0,1,0,1,0,,,,,,,,
640116,101646.187500,281.89,-9.907206,0.196324,-0.143652,-0.010642,0.010642,0.008513,286.74,4.01,-0.74,-0.39,0.11,-26.122043,0,1,0,1,0,,,,,,,,
645116,101646.187500,281.89,-9.911994,0.215478,-0.119710,-0.010642,0.013834,0.005321,286.54,4.04,0.10,0.27,0.10,-26.122043,0,1,0,1,0,,,,,,,,
650116,101628.109375,281.89,-9.911994,0.201112,-0.138863,-0.011706,0.013834,0.008513,286.88,4.01,-0.02,0.17,0.11,-24.653533,0,1,0,1,0,,,,,,,,
655116,101628.109375,281.89,-9.931148,0.196324,-0.090979,-0.010642,0.011706,0.006385,286.84,4.04,0.03,0.38,0.10,-24.653533,0,1,0,1,0,,,,,,,,
660116,101628.109375,281.89,-9.902418,0.229843,-0.100556,-0.010642,0.014899,0.006385,286.54,4.04,0.16,0.41,0.10,-24.653533,0,1,0,1,0,,,,,,,,
665116,101631.937500,281.91,-9.931148,0.196324,-0.143652,-0.008513,0.011706,0.006385,286.59,4.01,-0.48,-0.19,0.11,-24.964515,0,1,0,1,0,,,,,,,,
670116,101628.109375,281.89,-9.926360,0.229843,-0.119710,-0.011706,0.011706,0.007449,286.88,4.04,0.01,0.25,0.11,-24.653533,0,1,0,1,0,,,,,,,,
675116,101631.937500,281.91,-9.902418,0.225054,-0.143652,-0.009578,0.011706,0.005321,286.74,4.01,-0.30,0.06,0.10,-24.964515,0,1,0,1,0,,,,,,,,
680116,101635.796875,281.92,-9.892841,0.196324,-0.119710,-0.008513,0.012770,0.007449,286.84,4.04,-0.62,-0.37,0.11,-25.278026,0,1,0,1,0,,,,,,,,
685116,101635.796875,281.92,-9.907206,0.196324,-0.105344,-0.008513,0.012770,0.005321,286.88,4.01,0.24,0.43,0.10,-25.278026,0,1,0,1,0,,,,,,,,
690116,101631.937500,281.91,-9.950302,0.191536,-0.090979,-0.005321,0.014899,0.007449,286.54,4.03,-0.24,0.01,0.11,-24.964515,0,1,0,1,0,,,,,,,,
695116,101631.937500,281.91,-9.921571,0.196324,-0.110133,-0.010642,0.012770,0.007449,286.84,4.04,0.01,0.14,0.11,-24.964515,0,1,0,1,0,,,,,,,,
700116,101631.937500,281.91,-9.902418,0.263362,-0.148440,-0.011706,0.014899,0.010642,286.74,4.01,-0.10,0.02,0.10,-24.964515,0,1,0,1,0,,,,,,,,
705116,101617.703125,281.92,-9.935936,0.191536,-0.090979,-0.009578,0.010642,0.003192,286.88,4.04,0.28,0.52,0.11,-23.808124,0,1,0,1,0,,,,,,,,
710116,101650.031250,281.91,-9.950302,0.215478,-0.124498,-0.009578,0.011706,0.005321,286.84,4.01,-0.49,-0.27,0.12,-26.434249,0,1,0,1,0,,,,,,,,
715116,101635.796875,281.92,-9.907206,0.196324,-0.100556,-0.012770,0.013834,0.006385,286.69,4.04,0.05,0.29,0.10,-25.278026,0,1,0,1,0,,,,,,,,
720116,101635.796875,281.92,-9.864110,0.248996,-0.153228,-0.007449,0.011706,0.004256,286.88,4.01,-0.09,0.19,0.11,-25.278026,0,1,0,1,0,,,,,,,,
723836,101617.703125,281.92,-86.875999,-1.570596,2.308010,0.126642,0.035119,0.034055,286.88,4.01,0.33,11.46,61.45,-23.808124,1,1,0,1,0,,,,,,,,
723846,101617.703125,281.92,-87.192039,-0.086191,-0.440533,0.008513,0.001064,0.035119,286.74,4.02,0.64,12.40,62.96,-23.808124,1,1,0,1,0,,,,,,,,
723856,101617.703125,281.92,-87.742698,2.461239,-0.153228,0.126642,0.059596,0.014899,286.88,4.03,0.89,13.26,64.38,-23.808124,1,1,0,1,0,,,,,,,,
723866,101635.796875,281.92,-88.369979,-2.475604,1.982398,-0.119193,0.019156,-0.023412,286.84,4.03,0.71,13.72,65.73,-25.278026,1,1,0,1,0,,,,,,,,
723876,101613.859375,281.91,-89.155281,-2.159569,-3.112462,-0.040440,0.055339,-0.019156,286.74,4.03,1.03,14.66,67.03,-23.495838,1,1,0,1,0,,,,,,,,
723886,101617.703125,281.92,-90.275764,0.191536,1.110909,-0.177725,0.006385,-0.007449,286.93,4.03,1.19,15.46,68.30,-23.808124,1,1,0,1,0,,,,,,,,
723896,101617.703125,281.92,-88.211967,0.191536,4.515464,0.145798,0.075559,0.013834,286.69,4.03,1.33,16.20,69.26,-23.808124,1,1,0,1,0,,,,,,,,
723906,101617.703125,281.92,-87.900718,-1.187524,5.267243,-0.088330,-0.023412,0.020220,286.69,4.03,1.44,16.91,70.10,-23.808124,1,1,0,1,0,,,,,,,,
723916,101617.703125,281.92,-93.857490,-5.310339,-4.419696,0.160697,0.044697,-0.004256,286.49,4.04,1.52,17.64,71.43,-23.808124,1,1,0,1,0,,,,,,,,
723926,101599.609375,281.92,-80.124351,1.493981,4.003105,-0.102165,0.006385,0.034055,286.84,4.04,1.97,18.60,71.32,-22.338012,1,1,0,1,0,,,,,,,,
723936,101599.609375,281.92,-92.885444,-5.166687,0.857124,-0.095780,0.024477,-0.002128,286.69,4.04,2.30,19.55,72.44,-22.338012,1,1,0,1,0,,,,,,,,
723946,101595.765625,281.91,-90.941352,-2.715024,3.418920,-0.424625,0.064917,-0.007449,286.59,4.03,2.63,20.48,73.26,-22.025680,1,1,0,1,0,,,,,,,,
723956,101599.609375,281.92,-92.248588,-2.437297,0.656011,-0.337359,0.096844,0.001064,286.49,4.03,2.81,21.26,74.14,-22.338012,1,1,0,1,0,,,,,,,,
723966,101581.515625,281.92,-92.191131,-2.317587,-1.924938,-0.346937,0.131963,-0.045761,286.69,4.04,3.32,22.35,74.92,-20.867687,1,1,0,1,0,,,,,,,,
723976,101581.515625,281.92,-93.211059,-2.154781,1.173158,-0.359708,0.172404,-0.057468,286.74,4.03,3.71,23.33,75.72,-20.867687,1,1,0,1,0,,,,,,,,
723986,101581.515625,281.92,-94.360275,-2.384624,-1.249773,-0.362900,0.219230,-0.100037,286.88,4.04,4.01,24.22,76.56,-20.867687,1,1,0,1,0,,,,,,,,
723996,101581.515625,281.92,-94.714614,-1.015141,1.374271,-0.376735,0.256478,-0.111743,286.88,4.04,4.25,25.04,77.36,-20.867687,1,1,0,1,0,,,,,,,,
724006,101581.515625,281.92,-92.942909,-2.873042,-0.612915,-0.387377,0.290533,-0.138349,286.88,4.03,4.43,25.79,77.90,-20.867687,1,1,0,1,0,,,,,,,,
724016,101581.515625,281.92,-92.909393,-1.211466,0.545877,-0.408662,0.328845,-0.153248,286.84,4.01,4.57,26.50,78.40,-20.867687,1,1,0,1,0,,,,,,,,
724026,101563.421875,281.92,-93.158386,-2.638410,-0.234631,-0.424625,0.359708,-0.180918,286.93,4.00,5.05,27.53,78.87,-19.397150,1,1,0,1,0,,,,,,,,
724036,101563.421875,281.92,-93.809608,-0.962469,-1.173158,-0.461873,0.419304,-0.194753,286.88,4.00,5.42,28.44,79.36,-19.397150,1,1,0,1,0,,,,,,,,
724046,101563.421875,281.92,-93.254158,-2.509123,0.517147,-0.481029,0.437396,-0.212845,286.84,4.00,5.70,29.27,79.74,-19.397150,1,1,0,1,0,,,,,,,,
724056,101563.421875,281.92,-93.776092,-1.656787,-0.067037,-0.489543,0.474644,-0.239450,286.69,4.00,5.92,30.02,80.15,-19.397150,1,1,0,1,0,,,,,,,,
724066,101545.343750,281.92,-94.537445,-1.872265,-0.119710,-0.518277,0.508699,-0.264992,286.74,4.00,6.46,31.09,80.58,-17.927671,1,1,0,1,0,,,,,,,,
724076,101545.343750,281.92,-95.289222,-1.470039,0.943315,-0.545947,0.539562,-0.284148,286.84,3.99,6.87,32.03,81.05,-17.927671,1,1,0,1,0,,,,,,,,
724086,101527.250000,281.92,-95.720184,-1.991975,0.229843,-0.556589,0.573617,-0.308625,286.69,3.99,7.55,33.22,81.51,-16.456710,1,1,0,1,0,,,,,,,,
724096,101527.250000,281.92,-95.892562,-1.546654,0.766144,-0.576810,0.610865,-0.338423,286.84,4.00,8.07,34.26,81.94,-16.456710,1,1,0,1,0,,,,,,,,
724106,101527.250000,281.92,-95.605262,-2.063801,0.593762,-0.616186,0.639599,-0.356515,286.88,3.99,8.47,35.16,82.31,-16.456710,1,1,0,1,0,,,,,,,,
724116,101527.250000,281.92,-96.467170,-1.905784,0.641646,-0.640663,0.665140,-0.374607,286.69,3.99,8.78,35.97,82.72,-16.456710,1,1,0,1,0,,,,,,,,
724126,101527.250000,281.92,-95.844680,-1.163581,1.206677,-0.665140,0.689617,-0.385249,286.84,3.99,9.02,36.70,83.04,-16.456710,1,1,0,1,0,,,,,,,,
724136,101509.156250,281.92,-97.046569,-1.838746,1.019929,-0.703452,0.716223,-0.401212,286.84,3.99,9.57,37.74,83.43,-14.985536,1,1,0,1,0,,,,,,,,
724146,101509.156250,281.92,-96.783210,-1.436521,1.297657,-0.728994,0.723673,-0.405469,286.88,3.99,9.99,38.64,83.77,-14.985536,1,1,0,1,0,,,,,,,,
724156,101491.062500,281.92,-96.342674,-1.824381,0.526724,-0.752407,0.739636,-0.425690,286.84,3.99,10.68,39.79,84.03,-13.514151,1,1,0,1,0,,,,,,,,
724166,101491.062500,281.92,-97.472740,-1.364694,1.513135,-0.790719,0.773691,-0.437396,286.74,3.99,11.20,40.78,84.38,-13.514151,1,1,0,1,0,,,,,,,,
724176,101491.062500,281.92,-99.258811,-0.857124,2.193088,-0.835416,0.767306,-0.437396,286.93,3.98,11.60,41.66,84.86,-13.514151,1,1,0,1,0,,,,,,,,
724186,101472.968750,281.92,-98.808700,-1.292868,1.484405,-0.867343,0.774755,-0.444846,286.69,4.00,12.28,42.79,85.25,-12.042552,1,1,0,1,0,,,,,,,,
724196,101454.875000,281.92,-98.794334,-0.972045,2.207453,-0.897141,0.787526,-0.452295,286.69,3.98,13.16,44.11,85.60,-10.570742,1,1,0,1,0,,,,,,,,
724206,101472.968750,281.92,-97.989883,-0.948103,1.867477,-0.943967,0.789655,-0.454424,286.84,3.99,13.47,44.85,85.85,-12.042552,1,1,0,1,0,,,,,,,,
724216,101454.875000,281.92,-98.511817,-0.335188,2.671929,-0.972701,0.783269,-0.453359,286.88,4.01,14.07,45.88,86.12,-10.570742,1,1,0,1,0,,,,,,,,
724226,101454.875000,281.92,-99.254020,-0.933738,2.810792,-1.011013,0.793911,-0.451231,286.84,4.01,14.53,46.76,86.44,-10.570742,1,1,0,1,0,,,,,,,,
724236,101436.781250,281.92,-99.641883,-0.679953,3.141192,-1.042940,0.788590,-0.453359,286.84,4.02,15.25,47.89,86.76,-9.098718,1,1,0,1,0,,,,,,,,
724246,101418.687500,281.92,-99.196563,-0.914585,2.686294,-1.070610,0.785398,-0.455488,286.69,4.03,16.17,49.20,87.01,-7.626482,1,1,0,1,0,,,,,,,,
724256,101418.687500,281.92,-99.665824,-0.047884,3.481169,-1.087638,0.784333,-0.448038,286.84,4.03,16.86,50.29,87.28,-7.626482,1,1,0,1,0,,,,,,,,
724266,101400.609375,281.92,-99.268386,-0.292092,3.394978,-1.097216,0.771563,-0.449103,286.74,4.03,17.76,51.56,87.48,-6.155306,1,1,0,1,0,,,,,,,,
724276,101400.609375,281.92,-99.488655,-0.215478,3.869029,-1.124885,0.765177,-0.443781,286.84,4.03,18.45,52.61,87.69,-6.155306,1,1,0,1,0,,,,,,,,
724286,101400.609375,281.92,-100.886871,-0.430956,4.165910,-1.137656,0.754535,-0.437396,286.84,4.03,18.97,53.51,88.01,-6.155306,1,1,0,1,0,,,,,,,,
724296,101382.515625,281.92,-100.551681,0.272938,4.175487,-1.162133,0.732186,-0.429946,286.84,4.03,19.73,54.63,88.27,-4.682645,1,1,0,1,0,,,,,,,,
724306,101382.515625,281.92,-101.155021,-0.162805,3.883395,-1.173840,0.720480,-0.415047,286.54,4.03,20.31,55.57,88.56,-4.682645,1,1,0,1,0,,,,,,,,
724316,101364.421875,281.92,-101.590766,0.119710,5.181052,-1.194060,0.699195,-0.411855,286.84,4.03,21.13,56.72,88.87,-3.209771,1,1,0,1,0,,,,,,,,
724326,101364.421875,281.92,-101.576400,0.603338,4.932055,-1.219602,0.674718,-0.416112,286.74,4.03,21.74,57.68,89.14,-3.209771,1,1,0,1,0,,,,,,,,
724336,101346.328125,281.92,-101.720054,0.220266,5.774814,-1.233436,0.648113,-0.407598,286.69,4.03,22.58,58.84,89.40,-1.736684,1,1,0,1,0,,,,,,,,
724346,101346.328125,281.92,-101.466262,0.660799,5.971138,-1.260042,0.618314,-0.401212,286.54,4.03,23.22,59.80,89.62,-1.736684,1,1,0,1,0,,,,,,,,
724356,101328.234375,281.92,-102.845329,0.699106,6.330269,-1.253657,0.590645,-0.391634,286.74,4.03,24.07,60.97,89.94,-0.263384,1,1,0,1,0,,,,,,,,
724366,101310.140625,281.92,-102.409584,0.555454,6.478709,-1.263235,0.565103,-0.382056,286.84,4.03,25.09,62.28,90.19,1.210128,1,1,0,1,0,,,,,,,,
724376,101310.140625,281.92,-102.337753,1.000776,6.933608,-1.269620,0.509763,-0.376735,286.69,4.03,25.86,63.34,90.41,1.210128,1,1,0,1,0,,,,,,,,
724386,101310.140625,281.92,-102.735191,0.986411,6.947973,-1.304739,0.471451,-0.368221,286.74,4.03,26.45,64.22,90.65,1.210128,1,1,0,1,0,,,,,,,,
724396,101292.046875,281.92,-102.663368,0.177170,8.532935,-1.322831,0.401212,-0.360772,286.88,4.03,27.27,65.31,90.86,2.683854,1,1,0,1,0,,,,,,,,
724406,101292.046875,281.92,-101.672164,1.800439,6.272808,-1.360079,0.406534,-0.330974,286.84,4.03,27.89,66.19,90.96,2.683854,1,1,0,1,0,,,,,,,,
724416,101273.953125,281.92,-101.743995,0.952892,8.207323,-1.379235,0.386313,-0.303304,286.69,4.01,28.73,67.28,91.05,4.157793,1,1,0,1,0,,,,,,,,
724426,101255.875000,281.92,-102.155799,1.714248,7.570465,-1.436704,0.368221,-0.267120,286.84,4.00,29.74,68.52,91.17,5.630672,1,1,0,1,0,,,,,,,,
724436,101255.875000,281.92,-101.336982,1.671152,7.388506,-1.478208,0.343744,-0.239450,286.59,4.00,30.50,69.51,91.20,5.630672,1,1,0,1,0,,,,,,,,
724446,101237.781250,281.92,-102.184524,1.144428,8.327033,-1.510135,0.318203,-0.213909,286.93,4.00,31.45,70.67,91.31,7.105038,1,1,0,1,0,,,,,,,,
724456,101237.781250,281.92,-102.241989,1.369483,8.236053,-1.558025,0.303304,-0.190496,286.54,4.00,32.18,71.60,91.42,7.105038,1,1,0,1,0,,,,,,,,
724466,101237.781250,281.92,-102.615486,1.249773,9.050082,-1.604851,0.259670,-0.177725,286.59,4.00,32.72,72.36,91.55,7.105038,1,1,0,1,0,,,,,,,,
724476,101219.687500,281.92,-102.974617,1.407790,8.418012,-1.629328,0.210716,-0.163890,286.84,3.99,33.51,73.35,91.70,8.579617,1,1,0,1,0,,,,,,,,
724486,101219.687500,281.92,-102.950668,0.857124,9.701305,-1.651677,0.190496,-0.157505,286.74,3.99,34.10,74.14,91.84,8.579617,1,1,0,1,0,,,,,,,,
724496,101201.593750,281.92,-103.290649,1.120486,8.901641,-1.672961,0.152184,-0.147927,286.93,3.99,34.93,75.14,92.00,10.054409,1,1,0,1,0,,,,,,,,
724506,101183.500000,281.92,-102.352119,0.852335,9.222464,-1.713402,0.094716,-0.142606,286.74,3.99,35.92,76.30,92.05,11.529416,1,1,0,1,0,,,,,,,,
724516,101147.312500,281.92,-102.730407,0.948103,9.203310,-1.769806,0.065981,-0.138349,286.84,3.99,37.41,77.92,92.13,14.480069,1,1,0,1,0,,,,,,,,
724526,101165.406250,281.92,-105.565139,0.861912,9.208099,-1.800668,0.022348,-0.141541,286.69,3.99,38.17,78.85,92.47,13.004635,1,1,0,1,0,,,,,,,,
724536,101147.312500,281.92,-106.637741,0.268150,9.342174,-1.825146,-0.012770,-0.151119,286.84,3.99,39.11,79.96,92.89,14.480069,1,1,0,1,0,,,,,,,,
724546,101143.484375,281.91,-103.132629,1.039083,8.805873,-1.901770,-0.096844,-0.148991,286.74,3.99,39.91,80.89,92.93,14.792256,1,1,0,1,0,,,,,,,,
724556,101111.140625,281.92,-102.921943,0.679953,9.370904,-1.944339,-0.079816,-0.155376,286.84,4.00,41.18,82.25,92.94,17.430301,1,1,0,1,0,,,,,,,,
724566,101111.140625,281.92,-101.188537,0.814028,9.131484,-2.026284,-0.150055,-0.171340,286.88,3.99,42.14,83.30,92.79,17.430301,1,1,0,1,0,,,,,,,,
724576,101093.046875,281.92,-101.365707,0.181959,9.131484,-2.075239,-0.170276,-0.160697,286.84,3.99,43.23,84.47,92.67,18.906375,1,1,0,1,0,,,,,,,,
724586,101093.046875,281.92,-101.739204,0.325611,9.141061,-2.118872,-0.213909,-0.187303,286.69,3.98,44.07,85.37,92.60,18.906375,1,1,0,1,0,,,,,,,,
724596,101056.859375,281.92,-102.323387,0.392649,8.532935,-2.183790,-0.253285,-0.210716,286.84,3.99,45.43,86.79,92.59,21.859167,1,1,0,1,0,,,,,,,,
724606,101056.859375,281.92,-102.026512,0.009576,8.686163,-2.259350,-0.276698,-0.212845,286.69,3.99,46.47,87.88,92.56,21.859167,1,1,0,1,0,,,,,,,,
724616,101038.765625,281.92,-102.486198,0.517147,7.422025,-2.337038,-0.285212,-0.235193,286.69,4.01,47.62,89.07,92.57,23.335884,1,1,0,1,0,,,,,,,,
724626,101020.671875,281.92,-102.007354,0.052672,8.710105,-2.403020,-0.311817,-0.269248,286.69,4.01,48.87,90.33,92.53,24.812814,1,1,0,1,0,,,,,,,,
724636,101020.671875,281.92,-102.380851,0.363918,8.279149,-2.484965,-0.325652,-0.268184,286.54,4.02,49.81,91.29,92.53,24.812814,1,1,0,1,0,,,,,,,,
724646,100984.500000,281.92,-101.518936,-0.019153,7.378929,-2.570103,-0.324588,-0.290533,286.74,4.02,51.26,92.72,92.45,27.766042,1,1,0,1,0,,,,,,,,
724656,100966.406250,281.92,-101.174171,0.909796,7.565677,-2.649920,-0.323524,-0.315010,286.74,4.03,52.73,94.16,92.35,29.243616,1,1,0,1,0,,,,,,,,
724666,100948.312500,281.92,-101.878067,-0.009576,6.162674,-2.732930,-0.335230,-0.322460,286.74,4.03,54.21,95.60,92.32,30.721403,1,1,0,1,0,,,,,,,,
724676,100948.312500,281.92,-101.485420,1.139639,6.373364,-2.798912,-0.359708,-0.338423,286.69,4.03,55.34,96.68,92.26,30.721403,1,1,0,1,0,,,,,,,,
724686,100930.218750,281.92,-101.461479,0.665588,6.517016,-2.894692,-0.333102,-0.358643,286.74,4.03,56.56,97.84,92.20,32.199405,1,1,0,1,0,,,,,,,,
724696,100912.125000,281.92,-101.111923,1.661575,6.890512,-2.965995,-0.325652,-0.353322,286.69,4.03,57.85,99.05,92.11,33.677623,1,1,0,1,0,,,,,,,,
724706,100890.218750,281.91,-100.963485,0.153228,6.335057,-3.080931,-0.316074,-0.371414,286.69,4.03,59.28,100.38,92.02,35.467597,1,1,0,1,0,,,,,,,,
724716,100875.937500,281.92,-100.384086,2.082955,6.579266,-3.160748,-0.312882,-0.378864,286.74,4.03,60.65,101.65,91.88,36.634700,1,1,0,1,0,,,,,,,,
724726,100857.843750,281.92,-100.206916,2.073378,6.665457,-3.269299,-0.305432,-0.378864,286.74,4.03,62.06,102.93,91.74,38.113559,1,1,0,1,0,,,,,,,,
724736,100839.765625,281.92,-100.460700,1.853112,5.904101,-3.371465,-0.283083,-0.384185,286.74,4.03,63.49,104.23,91.63,39.591358,1,1,0,1,0,,,,,,,,
724746,100817.843750,281.91,-100.058479,1.671152,6.119579,-3.503429,-0.273505,-0.382056,286.59,4.03,65.03,105.60,91.50,41.383651,1,1,0,1,0,,,,,,,,
724756,100821.671875,281.92,-100.757583,2.758120,6.354211,-3.623686,-0.258606,-0.367157,286.74,4.03,66.11,106.54,91.45,41.070648,1,1,0,1,0,,,,,,,,
724766,100785.484375,281.92,-100.235649,2.557007,5.770026,-3.748201,-0.230936,-0.351194,286.69,4.03,67.67,107.92,91.35,44.029876,1,1,0,1,0,,,,,,,,
724776,100767.390625,281.92,-100.417602,2.834734,5.506663,-3.907835,-0.232001,-0.330974,286.74,4.03,69.22,109.27,91.27,45.509811,1,1,0,1,0,,,,,,,,
724786,100767.390625,281.92,-99.206138,3.303998,5.549759,-4.062147,-0.204331,-0.319267,286.74,4.03,70.39,110.25,91.10,45.509811,1,1,0,1,0,,,,,,,,
724796,100731.203125,281.92,-99.024177,2.964021,6.052541,-4.233487,-0.187303,-0.279891,286.74,4.03,72.02,111.65,90.91,48.470329,1,1,0,1,0,,,,,,,,
724806,100731.203125,281.92,-99.277969,3.711012,6.402095,-4.393121,-0.168147,-0.242643,286.84,4.03,73.25,112.65,90.78,48.470329,1,1,0,1,0,,,,,,,,
724816,100713.125000,281.92,-98.119171,2.935291,5.956773,-4.498479,-0.166019,-0.246900,286.84,4.01,74.55,113.70,90.54,49.949630,1,1,0,1,0,,,,,,,,
724826,100695.031250,281.92,-98.497459,3.849876,6.847416,-4.617672,-0.136220,-0.213909,286.74,4.01,75.90,114.80,90.36,51.430427,1,1,0,1,0,,,,,,,,
724836,100695.031250,281.92,-98.483093,2.992752,5.492298,-4.765600,-0.130899,-0.199010,286.84,4.00,76.93,115.57,90.20,51.430427,1,1,0,1,0,,,,,,,,
724846,100655.031250,281.91,-98.574073,3.471592,7.532158,-4.845417,-0.138349,-0.183046,286.69,4.00,78.52,116.87,90.07,54.704799,1,1,0,1,0,,,,,,,,
724856,100622.656250,281.92,-97.918060,3.107673,6.569689,-4.944390,-0.133028,-0.167083,286.69,4.00,80.38,118.43,89.88,57.355770,1,1,0,1,0,,,,,,,,
724866,100622.656250,281.92,-96.855033,3.122039,7.182604,-5.029528,-0.131963,-0.163890,286.74,4.00,81.80,119.52,89.61,57.355770,1,1,0,1,0,,,,,,,,
724876,100604.562500,281.92,-97.238105,3.385401,8.106766,-5.125308,-0.121321,-0.145798,286.84,3.99,83.23,120.63,89.40,58.837642,1,1,0,1,0,,,,,,,,
724886,100582.671875,281.91,-96.462387,2.868253,7.431602,-5.176391,-0.131963,-0.138349,286.84,3.99,84.77,121.82,89.14,60.630771,1,1,0,1,0,,,,,,,,
724896,100586.468750,281.92,-96.658706,3.557783,7.536946,-5.227474,-0.139413,-0.130899,286.54,3.99,85.85,122.56,88.92,60.319736,1,1,0,1,0,,,,,,,,
724906,100568.390625,281.92,-96.323524,2.863465,6.751648,-5.279621,-0.157505,-0.123450,286.84,4.00,87.04,123.38,88.69,61.800762,1,1,0,1,0,,,,,,,,
724916,100550.296875,281.92,-95.787223,2.643198,7.872135,-5.334960,-0.191560,-0.133028,286.88,3.99,88.31,124.28,88.43,63.283283,1,1,0,1,0,,,,,,,,
724926,100532.203125,281.92,-95.662719,3.155557,7.867346,-5.359437,-0.164954,-0.125578,286.74,3.99,89.64,125.22,88.19,64.766021,1,1,0,1,0,,,,,,,,
724936,100514.109375,281.92,-95.452033,2.006340,7.852981,-5.411584,-0.200074,-0.136220,286.69,3.98,91.01,126.19,87.94,66.248977,1,1,0,1,0,,,,,,,,
724946,100514.109375,281.92,-95.413726,2.130839,6.574477,-5.436061,-0.233065,-0.146863,286.88,3.99,92.05,126.83,87.72,66.248977,1,1,0,1,0,,,,,,,,
724956,100492.203125,281.91,-95.255706,2.566584,8.068459,-5.511622,-0.233065,-0.160697,286.59,3.99,93.28,127.65,87.51,68.044692,1,1,0,1,0,,,,,,,,
724966,100459.828125,281.92,-94.403373,2.451662,6.646303,-5.521200,-0.271377,-0.171340,286.84,3.99,94.87,128.81,87.23,70.699134,1,1,0,1,0,,,,,,,,
724976,100459.828125,281.92,-94.843902,2.197877,8.599972,-5.573347,-0.253285,-0.191560,286.74,3.99,96.08,129.58,87.02,70.699134,1,1,0,1,0,,,,,,,,
724986,100423.656250,281.92,-94.824752,1.781286,6.382941,-5.625494,-0.309689,-0.205395,286.93,3.98,97.73,130.77,86.83,73.665710,1,1,0,1,0,,,,,,,,
724996,100401.750000,281.91,-94.436889,1.824381,8.542511,-5.712760,-0.258606,-0.228808,286.74,3.99,99.42,131.99,86.62,75.462730,1,1,0,1,0,,,,,,,,
725006,100401.750000,281.91,-93.158386,2.542642,5.808333,-5.759586,-0.286276,-0.247964,286.69,3.98,100.70,132.79,86.31,75.462730,1,1,0,1,0,,,,,,,,
725016,100383.656250,281.91,-92.904602,1.905784,6.282385,-5.793642,-0.280955,-0.243707,286.88,4.01,102.04,133.63,86.00,76.947250,1,1,0,1,0,,,,,,,,
725026,100369.375000,281.92,-92.157608,3.241749,6.196193,-5.873458,-0.258606,-0.261799,286.69,4.01,103.35,134.43,85.65,78.119117,1,1,0,1,0,,,,,,,,
725036,100329.390625,281.91,-93.196693,2.154781,6.837840,-5.936247,-0.233065,-0.260735,286.74,4.02,105.15,135.70,85.44,81.400810,1,1,0,1,0,,,,,,,,
725046,100311.296875,281.91,-93.000366,2.849099,6.746860,-6.000101,-0.211780,-0.263927,286.54,4.03,106.88,136.90,85.22,82.886192,1,1,0,1,0,,,,,,,,
725056,100315.093750,281.92,-91.496810,3.519476,7.120355,-6.051184,-0.209652,-0.258606,286.59,4.03,108.11,137.59,84.89,82.574470,1,1,0,1,0,,,,,,,,
725066,100275.125000,281.91,-92.387451,3.462015,7.354987,-6.113974,-0.213909,-0.254349,286.88,4.03,109.86,138.77,84.66,85.856323,1,1,0,1,0,,,,,,,,
725076,100242.734375,281.92,-92.990791,3.610455,7.977479,-6.160799,-0.192624,-0.234129,286.74,4.03,111.85,140.18,84.52,88.516700,1,1,0,1,0,,,,,,,,
725086,100242.734375,281.92,-91.563850,3.404554,7.876923,-6.244873,-0.188367,-0.225615,286.74,4.03,113.35,141.10,84.26,88.516700,1,1,0,1,0,,,,,,,,
725096,100224.640625,281.92,-91.573425,4.146757,7.445967,-6.335332,-0.181982,-0.203267,286.88,4.03,114.85,142.01,84.02,90.003128,1,1,0,1,0,,,,,,,,
725106,100206.546875,281.92,-91.458503,3.098096,8.073247,-6.398121,-0.199010,-0.197945,286.69,4.03,116.36,142.91,83.79,91.489761,1,1,0,1,0,,,,,,,,
725116,100188.453125,281.92,-91.539909,4.438849,8.532935,-6.375773,-0.179854,-0.180918,286.69,4.03,117.86,143.80,83.60,92.976623,1,1,0,1,0,,,,,,,,
725126,100170.359375,281.92,-90.912628,3.519476,8.116343,-6.440690,-0.190496,-0.170276,286.74,4.03,119.37,144.68,83.36,94.463691,1,1,0,1,0,,,,,,,,
725136,100170.359375,281.92,-89.830444,4.170699,6.962338,-6.526892,-0.209652,-0.161762,286.88,4.03,120.52,145.19,83.04,94.463691,1,1,0,1,0,,,,,,,,
725146,100112.296875,281.91,-89.849601,3.145981,8.844181,-6.625865,-0.199010,-0.151119,286.54,4.03,122.56,146.57,82.76,99.237152,1,1,0,1,0,,,,,,,,
725156,100098.000000,281.92,-90.519973,3.869029,7.589619,-6.623737,-0.226679,-0.150055,286.59,4.03,124.41,147.74,82.56,100.412879,1,1,0,1,0,,,,,,,,
725166,100076.109375,281.91,-90.519973,3.366247,8.422801,-6.624801,-0.239450,-0.152184,286.54,4.03,126.25,148.90,82.38,102.213348,1,1,0,1,0,,,,,,,,
725176,100079.906250,281.92,-89.715522,2.657563,9.126696,-6.698233,-0.272441,-0.184110,286.74,4.03,127.56,149.53,82.15,101.901039,1,1,0,1,0,,,,,,,,
725186,100061.812500,281.92,-90.524765,2.715024,8.504204,-6.701425,-0.269248,-0.205395,286.59,4.03,128.92,150.20,82.01,103.389419,1,1,0,1,0,,,,,,,,
725196,100025.625000,281.92,-90.256614,2.542642,8.705317,-6.763150,-0.284148,-0.230936,286.69,4.03,130.69,151.26,81.86,106.366828,1,1,0,1,0,,,,,,,,
725206,100007.546875,281.92,-91.659614,3.667917,8.911218,-6.838711,-0.291597,-0.257542,286.69,4.04,132.39,152.26,81.86,107.854576,1,1,0,1,0,,,,,,,,
725216,99985.656250,281.91,-92.679542,3.045424,8.667010,-6.905757,-0.280955,-0.270313,286.84,4.01,134.13,153.29,81.95,109.656372,1,1,0,1,0,,,,,,,,
725226,99953.265625,281.92,-92.880661,4.156333,8.054094,-7.046234,-0.310753,-0.287340,286.93,4.00,136.10,154.55,82.06,112.322990,1,1,0,1,0,,,,,,,,
725236,99953.265625,281.92,-94.628425,3.189076,9.121908,-7.067519,-0.322460,-0.286276,286.74,4.00,137.59,155.33,82.32,112.322990,1,1,0,1,0,,,,,,,,
725246,99913.296875,281.91,-93.474418,3.280056,11.482591,-7.132437,-0.293726,-0.309689,286.84,4.00,139.54,156.55,82.45,115.614456,1,1,0,1,0,,,,,,,,
725256,99895.203125,281.91,-90.357170,4.620809,7.920019,-7.218639,-0.262863,-0.317139,286.69,4.00,141.39,157.62,82.27,117.104843,1,1,0,1,0,,,,,,,,
725266,99880.906250,281.92,-85.463424,3.227383,9.184157,-7.323997,-0.293726,-0.319267,286.69,3.99,143.08,158.50,81.64,118.282638,1,1,0,1,0,,,,,,,,
725276,99862.812500,281.92,-75.786056,4.438849,10.381258,-7.420841,-0.270313,-0.326717,286.74,3.99,144.73,159.25,80.15,119.773414,1,1,0,1,0,,,,,,,,
725286,99826.625000,281.92,-62.910041,4.989516,7.575253,-7.457025,-0.326717,-0.321395,286.74,3.99,146.74,160.23,77.57,122.755630,1,1,0,1,0,,,,,,,,
725296,99808.531250,281.92,-48.281471,5.310339,9.308655,-7.552806,-0.341616,-0.306496,286.69,4.00,148.63,160.96,73.86,124.247070,1,1,0,1,0,,,,,,,,
725306,99808.531250,281.92,-35.362358,6.086060,9.457096,-7.598567,-0.370350,-0.283083,286.84,3.98,150.07,161.14,69.27,124.247070,1,1,0,1,0,,,,,,,,
725316,99790.437500,281.92,-23.611616,6.617573,8.221688,-7.657100,-0.451231,-0.243707,286.69,3.99,151.53,161.22,63.99,125.738723,1,1,0,1,0,,,,,,,,
725326,99754.250000,281.92,-15.188815,6.464344,9.500192,-7.704990,-0.459745,-0.214973,286.54,3.99,153.37,161.60,58.42,128.722702,1,1,0,1,0,,,,,,,,
725336,99736.171875,281.92,-8.901641,7.168239,8.370128,-7.809284,-0.519341,-0.196881,286.59,3.99,155.13,161.84,52.78,130.213714,1,1,0,1,0,,,,,,,,
725346,99696.203125,281.91,-2.375048,6.665457,6.761225,-7.868880,-0.583195,-0.177725,286.74,3.98,157.27,162.38,47.05,133.510986,1,1,0,1,0,,,,,,,,
725356,99699.984375,281.92,-0.311246,6.215347,5.588066,-7.916770,-0.626828,-0.166019,286.69,3.99,158.80,162.29,41.68,133.199005,1,0,0,1,0,,,,,,,,
725366,99681.890625,281.92,2.183511,6.052541,5.334281,-7.977431,-0.614057,-0.166019,286.84,3.98,160.32,162.17,36.58,134.691970,1,0,0,1,0,,,,,,,,
725376,99645.703125,281.92,2.887407,6.301538,4.443638,-8.045542,-0.619379,-0.150055,286.59,3.99,162.20,162.38,31.89,137.678573,1,0,0,1,0,,,,,,,,
725386,99663.796875,281.92,3.663128,5.535394,4.276044,-8.064698,-0.659819,-0.145798,286.88,3.99,163.24,161.76,27.58,136.185165,1,0,0,1,0,,,,,,,,
725396,99627.609375,281.92,2.978386,6.277596,3.347093,-8.216882,-0.683232,-0.140477,286.74,3.99,164.75,161.60,23.74,139.172195,1,0,0,1,0,,,,,,,,
725406,99623.843750,281.91,9.169792,6.430825,3.179499,-8.264772,-0.722608,-0.133028,286.84,3.99,165.97,161.10,19.68,139.483078,1,0,0,1,0,,,,,,,,
725416,99573.343750,281.92,10.405200,6.847416,2.609679,-8.345653,-0.668333,-0.118128,286.84,4.01,167.91,161.29,15.89,143.653121,1,0,0,1,0,,,,,,,,
725426,99569.562500,281.91,11.238382,6.809109,0.670376,-8.495709,-0.660883,-0.107486,286.84,4.01,169.45,161.07,12.38,143.965423,1,0,0,1,0,,,,,,,,
725436,99551.468750,281.91,11.367669,7.287950,1.182735,-8.571269,-0.620443,-0.088330,286.84,4.02,170.97,160.83,9.19,145.459976,1,0,0,1,0,,,,,,,,
725446,99537.156250,281.92,11.286266,7.627926,0.790086,-8.752187,-0.577874,-0.064917,286.74,4.02,172.40,160.50,6.31,146.642349,1,0,0,1,0,,,,,,,,
725456,99519.062500,281.92,11.511322,7.694963,0.521935,-8.892665,-0.557653,-0.031926,286.84,4.03,173.84,160.18,3.68,148.137298,1,0,0,1,0,,,,,,,,
725466,99497.203125,281.91,11.927912,8.638279,-0.076614,-9.035271,-0.521470,0.009578,286.69,4.02,175.37,159.94,1.27,149.943664,1,0,0,1,0,,,,,,,,
725476,99464.796875,281.92,11.372457,8.647856,-0.517147,-9.151272,-0.493800,0.051082,286.69,4.03,177.18,159.97,-0.86,152.622177,1,0,0,1,0,,,,,,,,
725486,99442.937500,281.91,11.516110,8.781931,-0.435744,-9.275787,-0.441653,0.102165,286.93,4.03,178.99,160.00,-2.80,154.429336,1,0,0,1,0,,,,,,,,
725496,99442.937500,281.91,11.736376,8.078036,-0.019153,-9.346025,-0.418240,0.147927,286.88,4.03,180.34,159.58,-4.58,154.429336,1,0,0,1,0,,,,,,,,
725506,99442.937500,281.91,11.793837,8.537723,-0.689530,-9.474796,-0.389506,0.191560,286.69,4.03,181.35,158.83,-6.20,154.429336,1,0,0,1,0,,,,,,,,
725516,99428.609375,281.92,12.057199,8.149862,-0.052672,-9.588668,-0.370350,0.237322,286.84,4.03,182.40,158.11,-7.68,155.614059,1,1,0,1,0,,,,,,,,
725526,99410.515625,281.92,11.626243,7.105990,1.206677,-9.607824,-0.353322,0.276698,286.93,4.03,183.56,157.51,-8.99,157.110321,1,1,0,1,0,,,,,,,,
725536,99392.421875,281.92,11.401187,7.316680,1.278503,-9.657843,-0.339487,0.318203,286.84,4.03,184.79,156.99,-10.15,158.606811,1,1,0,1,0,,,,,,,,
725546,99370.562500,281.91,12.392387,7.082048,0.708683,-9.679127,-0.355451,0.339487,286.69,4.03,186.16,156.60,-11.29,160.415039,1,1,0,1,0,,,,,,,,
725556,99352.468750,281.91,12.430694,6.957550,1.221042,-9.764266,-0.357579,0.386313,286.59,4.03,187.56,156.23,-12.33,161.912017,1,1,0,1,0,,,,,,,,
725566,99356.234375,281.92,12.512098,6.464344,1.795651,-9.760008,-0.403341,0.399084,286.88,4.03,188.53,155.45,-13.28,161.600463,1,1,0,1,0,,,,,,,,
725576,99352.468750,281.91,12.124237,5.329493,0.699106,-9.753623,-0.382056,0.402277,286.84,4.04,189.33,154.51,-14.10,161.912017,1,1,0,1,0,,,,,,,,
725586,99338.140625,281.92,12.081141,5.568912,1.709460,-9.727018,-0.406534,0.400148,286.74,4.03,190.21,153.67,-14.84,163.097610,1,1,0,1,0,,,,,,,,
725596,99334.390625,281.91,11.846509,3.217807,1.077390,-9.707862,-0.427818,0.368221,286.84,4.03,190.95,152.69,-15.48,163.407928,1,1,0,1,0,,,,,,,,
725606,99320.062500,281.92,11.726799,3.107673,1.522712,-9.673807,-0.398020,0.336295,286.84,4.03,191.79,151.82,-16.05,164.593688,1,1,0,1,0,,,,,,,,
725616,99301.968750,281.92,12.239158,2.916137,-0.512359,-9.661036,-0.412919,0.296918,286.59,4.01,192.79,151.11,-16.62,166.091278,1,1,0,1,0,,,,,,,,
725626,99298.203125,281.91,11.947066,2.537853,0.450109,-9.581219,-0.370350,0.257542,286.54,4.00,193.61,150.23,-17.10,166.402984,1,1,0,1,0,,,,,,,,
725636,99298.203125,281.91,11.669339,2.595314,0.282515,-9.521622,-0.351194,0.211780,286.69,4.00,194.22,149.15,-17.52,166.402984,1,1,0,1,0,,,,,,,,
725646,99265.781250,281.92,11.439495,2.868253,-0.440533,-9.462025,-0.334166,0.171340,286.69,4.00,195.33,148.59,-17.87,169.087127,1,1,0,1,0,,,,,,,,
725656,99262.015625,281.91,11.511322,2.456450,-0.229843,-9.426906,-0.311817,0.136220,286.54,4.00,196.24,147.82,-18.19,169.398925,1,1,0,1,0,,,,,,,,
725666,99247.687500,281.92,11.434706,3.557783,1.139639,-9.364117,-0.276698,0.098972,287.03,3.99,197.22,147.13,-18.48,170.585388,1,1,0,1,0,,,,,,,,
725676,99225.843750,281.91,11.243170,2.600102,0.210689,-9.324741,-0.244771,0.086202,286.69,4.00,198.39,146.64,-18.72,172.394470,1,1,0,1,0,,,,,,,,
725686,99225.843750,281.91,11.688492,4.194641,-0.565031,-9.326869,-0.229872,0.086202,286.88,3.99,199.27,145.86,-18.98,172.394470,1,1,0,1,0,,,,,,,,
725696,99207.750000,281.91,11.525687,2.240972,0.804451,-9.242795,-0.175597,0.069174,286.69,4.00,200.30,145.23,-19.21,173.893203,1,1,0,1,0,,,,,,,,
725706,99171.562500,281.91,11.224017,3.988739,1.632845,-9.216189,-0.160697,0.054275,286.69,3.99,201.82,145.08,-19.38,176.891357,1,1,0,1,0,,,,,,,,
725716,99153.468750,281.91,11.769895,3.610455,1.010353,-9.178942,-0.157505,0.059596,286.88,3.99,203.33,144.93,-19.59,178.390777,1,1,0,1,0,,,,,,,,
725726,99135.390625,281.91,11.228805,3.720589,1.503558,-9.122537,-0.140477,0.060660,286.93,3.99,204.83,144.78,-19.72,179.889114,1,1,0,1,0,,,,,,,,
725736,99135.390625,281.91,11.367669,4.405331,3.136404,-9.090612,-0.148991,0.063853,286.69,3.98,205.96,144.26,-19.86,179.889114,1,1,0,1,0,,,,,,,,
725746,99102.953125,281.92,11.429918,3.998316,1.594538,-9.081032,-0.156441,0.072367,286.84,3.98,207.47,144.12,-19.99,182.578125,1,1,0,1,0,,,,,,,,
725756,99099.203125,281.91,11.429918,3.778050,3.672705,-8.974611,-0.170276,0.090459,286.59,3.99,208.68,143.69,-20.11,182.889038,1,1,0,1,0,,,,,,,,
725766,99063.015625,281.91,11.482591,4.189852,2.863465,-8.957582,-0.180918,0.085138,286.49,3.99,210.34,143.69,-20.22,185.889846,1,1,0,1,0,,,,,,,,
725776,99063.015625,281.91,11.401187,3.102885,2.839523,-8.934170,-0.203267,0.086202,286.93,3.98,211.58,143.29,-20.31,185.889846,1,1,0,1,0,,,,,,,,
725786,99048.687500,281.92,11.650185,3.098096,3.849876,-8.901179,-0.253285,0.074495,286.74,3.98,212.81,142.88,-20.42,187.078247,1,1,0,1,0,,,,,,,,
725796,99044.921875,281.91,11.128249,3.691859,3.433285,-8.822426,-0.258606,0.070238,286.69,3.98,213.80,142.25,-20.47,187.390594,1,1,0,1,0,,,,,,,,
725806,99026.843750,281.91,11.506533,3.591302,3.327940,-8.785179,-0.272441,0.051082,286.84,3.99,214.92,141.74,-20.55,188.890258,1,1,0,1,0,,,,,,,,
725816,99008.750000,281.91,11.276689,3.433285,2.815581,-8.756444,-0.300111,0.037247,286.84,4.01,216.13,141.33,-20.60,190.391433,1,1,0,1,0,,,,,,,,
725826,98990.656250,281.91,10.864887,3.078943,3.787626,-8.725582,-0.299047,0.024477,286.54,4.01,217.40,140.99,-20.60,191.892852,1,1,0,1,0,,,,,,,,
725836,98994.406250,281.92,11.013327,3.356670,2.351105,-8.653214,-0.328845,0.011706,286.74,4.02,218.28,140.27,-20.62,191.581649,1,1,0,1,0,,,,,,,,
725846,98972.562500,281.91,11.137825,3.227383,2.044648,-8.660664,-0.324588,-0.002128,286.59,4.02,219.39,139.77,-20.65,193.394470,1,1,0,1,0,,,,,,,,
725856,98954.468750,281.91,10.678139,3.591302,2.590526,-8.652151,-0.295854,-0.005321,287.03,4.03,220.59,139.38,-20.63,194.896331,1,1,0,1,0,,,,,,,,
725866,98918.296875,281.91,11.123460,2.954444,2.217030,-8.607453,-0.349065,-0.027669,286.59,4.03,222.24,139.42,-20.66,197.899398,1,1,0,1,0,,,,,,,,
725876,98918.296875,281.91,10.678139,4.165910,1.915361,-8.560627,-0.328845,-0.034055,286.54,4.03,223.47,139.06,-20.64,197.899398,1,1,0,1,0,,,,,,,,
725886,98900.203125,281.91,10.898406,3.519476,1.800439,-8.571269,-0.310753,-0.053211,286.74,4.03,224.78,138.77,-20.65,199.401916,1,1,0,1,0,,,,,,,,
725896,98903.953125,281.92,10.668562,4.314351,1.762132,-8.523379,-0.312882,-0.056403,286.88,4.03,225.67,138.09,-20.63,199.090499,1,1,0,1,0,,,,,,,,
725906,98900.203125,281.91,11.008539,4.022258,2.207453,-8.541471,-0.293726,-0.051082,286.84,4.03,226.42,137.26,-20.64,199.401916,1,1,0,1,0,,,,,,,,
725916,98864.015625,281.91,10.539276,3.873818,2.791639,-8.523379,-0.291597,-0.055339,286.69,4.03,227.72,136.99,-20.62,202.407623,1,1,0,1,0,,,,,,,,
725926,98864.015625,281.91,10.582371,4.175487,2.006340,-8.525507,-0.276698,-0.051082,286.74,4.03,228.70,136.41,-20.59,202.407623,1,1,0,1,0,,,,,,,,
725936,98845.921875,281.91,10.611102,4.673481,2.130839,-8.530828,-0.275634,-0.040440,286.74,4.03,229.80,135.95,-20.57,203.910797,1,1,0,1,0,,,,,,,,
725946,98827.828125,281.91,10.548852,5.075707,1.934514,-8.557435,-0.266056,-0.025541,286.88,4.03,231.00,135.59,-20.55,205.414215,1,1,0,1,0,,,,,,,,
725956,98809.750000,281.91,10.539276,4.759673,1.968033,-8.574461,-0.269248,-0.007449,286.74,4.03,232.27,135.31,-20.53,206.916549,1,1,0,1,0,,,,,,,,
725966,98791.656250,281.91,9.782708,4.912901,2.044648,-8.546792,-0.257542,0.013834,286.69,4.03,233.60,135.08,-20.44,208.420394,1,1,0,1,0,,,,,,,,
725976,98773.562500,281.91,9.701305,4.616020,2.154781,-8.555306,-0.255414,0.026605,286.88,4.03,234.97,134.91,-20.35,209.924468,1,1,0,1,0,,,,,,,,
725986,98759.218750,281.92,9.749189,5.185840,2.738966,-8.574461,-0.269248,0.042569,286.74,4.03,236.29,134.69,-20.28,211.116989,1,1,0,1,0,,,,,,,,
725996,98737.375000,281.91,9.797073,4.309563,2.317587,-8.553177,-0.270313,0.052147,286.74,4.03,237.74,134.59,-20.21,212.933303,1,1,0,1,0,,,,,,,,
726006,98719.296875,281.91,9.931148,4.539406,2.810792,-8.561691,-0.277762,0.062789,286.93,4.04,239.20,134.50,-20.17,214.436752,1,1,0,1,0,,,,,,,,
726016,98719.296875,281.91,9.557653,4.405331,2.987963,-8.534022,-0.293726,0.071303,286.54,4.01,240.29,134.06,-20.09,214.436752,1,1,0,1,0,,,,,,,,
726026,98704.937500,281.92,9.624691,3.912125,2.772485,-8.553177,-0.323524,0.077688,286.69,4.01,241.41,133.65,-20.03,215.631088,1,1,0,1,0,,,,,,,,
726036,98683.109375,281.91,9.409212,4.161122,2.197877,-8.515930,-0.325652,0.065981,286.84,4.00,242.69,133.41,-19.95,217.446914,1,1,0,1,0,,,,,,,,
726046,98665.015625,281.91,9.658209,3.806780,3.428496,-8.509544,-0.323524,0.056403,286.74,4.00,244.03,133.22,-19.90,218.952331,1,1,0,1,0,,,,,,,,
726056,98665.015625,281.91,9.514557,3.476380,2.193088,-8.494645,-0.340552,0.041504,286.84,4.00,245.04,132.71,-19.84,218.952331,1,1,0,1,0,,,,,,,,
726066,98665.015625,281.91,9.528923,3.351882,2.327163,-8.460590,-0.351194,0.038312,286.69,4.00,245.79,131.96,-19.79,218.952331,1,1,0,1,0,,,,,,,,
726076,98628.828125,281.91,9.097966,3.620033,1.819593,-8.487195,-0.346937,0.018091,286.59,3.99,247.10,131.75,-19.71,221.963836,1,1,0,1,0,,,,,,,,
726086,98628.828125,281.91,9.375693,3.481169,2.365471,-8.458461,-0.349065,0.004256,286.54,4.00,248.08,131.24,-19.66,221.963836,1,1,0,1,0,,,,,,,,
726096,98628.828125,281.91,8.949525,3.394978,1.900996,-8.466975,-0.343744,-0.008513,286.74,3.99,248.81,130.48,-19.57,221.963836,1,1,0,1,0,,,,,,,,
726106,98592.656250,281.91,9.112331,3.399766,1.393425,-8.461654,-0.319267,-0.020220,286.74,3.99,250.10,130.29,-19.51,224.974929,1,1,0,1,0,,,,,,,,
726116,98574.562500,281.91,9.078812,3.385401,2.552218,-8.408443,-0.322460,-0.030862,286.54,3.99,251.45,130.14,-19.45,226.481460,1,1,0,1,0,,,,,,,,
726126,98556.468750,281.91,9.054870,3.998316,1.991975,-8.423341,-0.319267,-0.039376,286.69,3.99,252.84,130.03,-19.39,227.988220,1,1,0,1,0,,,,,,,,
726136,98560.203125,281.92,8.983044,3.145981,2.719813,-8.421214,-0.322460,-0.038312,287.03,3.98,253.80,129.51,-19.33,227.677230,1,1,0,1,0,,,,,,,,
726146,98538.375000,281.91,8.729259,4.003105,1.431732,-8.405250,-0.310753,-0.046825,286.84,3.99,254.97,129.21,-19.26,229.495208,1,1,0,1,0,,,,,,,,
726156,98520.281250,281.91,8.872911,3.620033,2.264914,-8.410572,-0.312882,-0.054275,286.54,3.99,256.22,128.98,-19.20,231.002410,1,1,0,1,0,,,,,,,,
726166,98520.281250,281.91,8.987833,3.921702,1.312022,-8.402057,-0.308625,-0.051082,286.74,3.99,257.16,128.45,-19.16,231.002410,1,1,0,1,0,,,,,,,,
726176,98487.843750,281.92,8.853757,3.849876,2.221819,-8.397800,-0.304368,-0.045761,286.88,3.98,258.53,128.35,-19.11,233.705017,1,1,0,1,0,,,,,,,,
726186,98484.109375,281.91,8.508993,3.964797,1.671152,-8.376516,-0.287340,-0.052147,286.69,3.99,259.64,128.00,-19.04,234.016204,1,1,0,1,0,,,,,,,,
726196,98466.015625,281.91,8.805873,4.620809,2.279279,-8.397800,-0.286276,-0.037247,286.59,3.98,260.85,127.74,-18.99,235.524078,1,1,0,1,0,,,,,,,,
726206,98429.828125,281.91,8.499416,3.921702,1.963245,-8.383966,-0.288405,-0.028734,286.74,3.98,262.50,127.92,-18.93,238.540512,1,1,0,1,0,,,,,,,,
726216,98433.562500,281.92,8.556877,4.553771,2.408566,-8.394608,-0.291597,-0.018091,286.69,4.01,263.67,127.63,-18.88,238.229187,1,1,0,1,0,,,,,,,,
726226,98429.828125,281.91,8.542511,4.122815,1.742978,-8.393544,-0.293726,-0.015963,286.54,4.01,264.62,127.13,-18.82,238.540512,1,1,0,1,0,,,,,,,,
726236,98411.750000,281.91,8.556877,5.090072,2.877830,-8.415892,-0.293726,-0.004256,286.84,4.02,265.71,126.77,-18.78,240.047760,1,1,0,1,0,,,,,,,,
726246,98393.656250,281.91,8.437166,4.328716,2.106897,-8.422277,-0.308625,0.009578,286.54,4.03,266.89,126.51,-18.73,241.556549,1,1,0,1,0,,,,,,,,
726256,98393.656250,281.91,8.418012,4.774038,2.398990,-8.416956,-0.304368,0.018091,286.69,4.03,267.79,125.96,-18.68,241.556549,1,1,0,1,0,,,,,,,,
726266,98393.656250,281.91,8.547300,4.261679,2.394201,-8.409507,-0.316074,0.026605,286.84,4.03,268.45,125.20,-18.64,241.556549,1,1,0,1,0,,,,,,,,
726276,98357.468750,281.91,8.470685,4.314351,2.298433,-8.394608,-0.316074,0.031926,286.74,4.03,269.70,125.01,-18.61,244.574768,1,1,0,1,0,,,,,,,,
726286,98357.468750,281.91,8.346186,4.266467,3.069366,-8.385030,-0.333102,0.037247,286.84,4.03,270.63,124.52,-18.56,244.574768,1,1,0,1,0,,,,,,,,
726296,98339.375000,281.91,8.293514,4.079719,2.461239,-8.386094,-0.336295,0.039376,286.74,4.03,271.70,124.18,-18.52,246.084228,1,1,0,1,0,,,,,,,,
726306,98321.281250,281.91,8.298302,3.778050,2.485181,-8.411635,-0.350130,0.036183,286.69,4.03,272.88,123.94,-18.48,247.593902,1,1,0,1,0,,,,,,,,
726316,98321.281250,281.91,8.250418,3.739742,1.747767,-8.376516,-0.355451,0.032990,286.49,4.03,273.77,123.41,-18.44,247.593902,1,1,0,1,0,,,,,,,,
726326,98303.203125,281.91,8.192957,3.888183,1.446097,-8.377580,-0.355451,0.023412,286.59,4.03,274.80,123.04,-18.39,249.102493,1,1,0,1,0,,,,,,,,
726336,98267.015625,281.91,8.111555,3.955221,1.513135,-8.342461,-0.341616,0.012770,286.84,4.03,276.33,123.15,-18.35,252.122970,1,1,0,1,0,,,,,,,,
726346,98267.015625,281.91,8.145073,3.950432,1.493981,-8.346717,-0.349065,0.007449,286.54,4.03,277.48,122.89,-18.31,252.122970,1,1,0,1,0,,,,,,,,
726356,98267.015625,281.91,7.790732,3.825934,1.163581,-8.343525,-0.334166,0.006385,286.84,4.03,278.34,122.35,-18.24,252.122970,1,1,0,1,0,,,,,,,,
726366,98267.015625,281.91,7.967903,3.926490,1.810016,-8.339268,-0.327781,0.003192,286.69,4.03,278.98,121.61,-18.19,252.122970,1,1,0,1,0,,,,,,,,
726376,98230.828125,281.91,8.001421,4.390965,1.206677,-8.339268,-0.315010,0.017027,286.74,4.04,280.21,121.44,-18.16,255.144348,1,1,0,1,0,,,,,,,,
726386,98230.828125,281.91,8.078036,4.290409,1.570596,-8.352039,-0.315010,0.014899,286.69,4.03,281.13,120.98,-18.13,255.144348,1,1,0,1,0,,,,,,,,
726396,98194.656250,281.91,8.006210,4.367023,1.369483,-8.364809,-0.305432,0.020220,286.88,4.03,282.57,121.03,-18.10,258.165344,1,1,0,1,0,,,,,,,,
726406,98194.656250,281.91,7.867346,4.381389,1.355118,-8.349910,-0.308625,0.031926,286.84,4.03,283.65,120.73,-18.06,258.165344,1,1,0,1,0,,,,,,,,
726416,98180.281250,281.92,7.852981,4.563348,1.312022,-8.346717,-0.300111,0.044697,286.88,4.01,284.76,120.45,-18.02,259.366149,1,1,0,1,0,,,,,,,,
726426,98158.468750,281.91,7.910442,4.276044,2.106897,-8.383966,-0.292661,0.047890,286.88,4.00,286.05,120.36,-17.99,261.188507,1,1,0,1,0,,,,,,,,
726436,98140.375000,281.91,7.781155,4.314351,1.824381,-8.364809,-0.296918,0.054275,286.74,4.00,287.39,120.31,-17.95,262.700439,1,1,0,1,0,,,,,,,,
726446,98122.281250,281.91,7.915230,4.467580,1.503558,-8.366938,-0.302239,0.069174,286.69,4.00,288.77,120.31,-17.93,264.212585,1,1,0,1,0,,,,,,,,
726456,98122.281250,281.91,7.972691,4.127603,2.164358,-8.368002,-0.302239,0.073431,286.54,4.00,289.81,119.97,-17.92,264.212585,1,1,0,1,0,,,,,,,,
726466,98104.187500,281.91,7.881711,4.702211,1.991975,-8.372259,-0.303304,0.077688,286.84,4.00,290.96,119.75,-17.89,265.724975,1,1,0,1,0,,,,,,,,
726476,98086.109375,281.91,7.852981,4.074931,2.264914,-8.363745,-0.311817,0.086202,286.84,3.99,292.20,119.62,-17.87,267.236267,1,1,0,1,0,,,,,,,,
726486,98086.109375,281.91,7.843404,4.529829,2.159569,-8.388222,-0.320331,0.093651,286.84,3.99,293.14,119.19,-17.85,267.236267,1,1,0,1,0,,,,,,,,
726496,98068.015625,281.91,7.838616,3.878606,2.020706,-8.365874,-0.317139,0.093651,286.69,3.99,294.21,118.90,-17.83,268.749114,1,1,0,1,0,,,,,,,,
726506,98049.921875,281.91,7.972691,4.472368,2.078166,-8.368002,-0.336295,0.089394,286.88,3.99,295.39,118.71,-17.82,270.262176,1,1,0,1,0,,,,,,,,
726516,98049.921875,281.91,7.771578,3.734954,1.403002,-8.340332,-0.339487,0.096844,286.84,3.98,296.27,118.24,-17.80,270.262176,1,1,0,1,0,,,,,,,,
726526,98031.828125,281.91,7.943961,3.902548,1.958456,-8.332882,-0.355451,0.094716,286.69,3.99,297.31,117.92,-17.79,271.775451,1,1,0,1,0,,,,,,,,
726536,98013.734375,281.91,7.886500,3.505111,1.417367,-8.314790,-0.349065,0.087266,286.88,3.98,298.47,117.72,-17.78,273.288970,1,1,0,1,0,,,,,,,,
726546,98013.734375,281.91,7.580042,3.696647,1.762132,-8.294570,-0.352258,0.085138,286.88,3.99,299.33,117.25,-17.74,273.288970,1,1,0,1,0,,,,,,,,
726556,98013.734375,281.91,7.738059,3.414131,1.335964,-8.249874,-0.352258,0.075559,286.84,3.99,299.98,116.56,-17.72,273.288970,1,1,0,1,0,,,,,,,,
726566,97995.656250,281.91,7.685387,3.596090,1.728613,-8.275415,-0.338423,0.062789,286.88,3.98,300.83,116.09,-17.70,274.801391,1,1,0,1,0,,,,,,,,
726576,97977.562500,281.91,7.771578,3.165134,1.110909,-8.264772,-0.336295,0.052147,286.84,3.99,301.85,115.77,-17.69,276.315368,1,1,0,1,0,,,,,,,,
726586,97959.468750,281.91,7.924807,3.687070,1.139639,-8.258387,-0.327781,0.053211,286.88,3.98,302.99,115.58,-17.69,277.829559,1,1,0,1,0,,,,,,,,
726596,97941.375000,281.91,7.742848,3.404554,1.316810,-8.238166,-0.317139,0.047890,286.74,3.98,304.22,115.47,-17.68,279.343963,1,1,0,1,0,,,,,,,,
726606,97941.375000,281.91,7.958326,4.046200,0.995987,-8.217947,-0.301175,0.043633,286.69,3.98,305.14,115.07,-17.68,279.343963,1,1,0,1,0,,,,,,,,
726616,97923.281250,281.91,8.087613,3.687070,1.393425,-8.210497,-0.297983,0.048954,286.54,4.00,306.21,114.81,-17.70,280.858612,1,1,0,1,0,,,,,,,,
726626,97905.187500,281.91,7.920019,4.041412,1.345541,-8.219011,-0.293726,0.048954,286.88,4.01,307.39,114.67,-17.70,282.373474,1,1,0,1,0,,,,,,,,
726636,97887.109375,281.91,8.049305,3.782838,1.283292,-8.188148,-0.288405,0.054275,286.84,4.02,308.65,114.60,-17.72,283.887268,1,1,0,1,0,,,,,,,,
726646,97890.812500,281.92,7.958326,4.357447,0.905008,-8.172184,-0.283083,0.068110,286.84,4.02,309.52,114.15,-17.72,283.577178,1,1,0,1,0,,,,,,,,
726656,97887.109375,281.91,8.398859,4.022258,1.891419,-8.167928,-0.266056,0.074495,286.74,4.03,310.24,113.57,-17.77,283.887268,1,1,0,1,0,,,,,,,,
726666,97850.921875,281.91,8.188169,4.534617,1.307234,-8.192405,-0.268184,0.084073,286.54,4.03,311.54,113.55,-17.79,286.918151,1,1,0,1,0,,,,,,,,
726676,97850.921875,281.91,8.365340,3.811568,2.178723,-8.161542,-0.263927,0.096844,286.54,4.03,312.51,113.21,-17.82,286.918151,1,1,0,1,0,,,,,,,,
726686,97832.828125,281.91,8.216899,4.410119,1.771709,-8.166864,-0.274570,0.110679,286.84,4.03,313.62,113.00,-17.84,288.433929,1,1,0,1,0,,,,,,,,
726696,97814.734375,281.91,8.346186,3.682282,1.632845,-8.136001,-0.288405,0.120257,286.88,4.03,314.82,112.90,-17.87,289.949920,1,1,0,1,0,,,,,,,,
726706,97814.734375,281.91,8.547300,3.979163,3.040636,-8.112588,-0.295854,0.138349,286.74,4.03,315.73,112.50,-17.92,289.949920,1,1,0,1,0,,,,,,,,
726716,97814.734375,281.91,8.398859,3.615244,1.288080,-8.091303,-0.313946,0.142606,286.88,4.03,316.40,111.88,-17.94,289.949920,1,1,0,1,0,,,,,,,,
726726,97796.640625,281.91,8.245630,3.533841,2.590526,-8.077468,-0.313946,0.148991,286.54,4.03,317.29,111.47,-17.95,291.466156,1,1,0,1,0,,,,,,,,
726736,97778.562500,281.91,8.149862,2.882618,0.756567,-8.058313,-0.324588,0.138349,286.84,4.03,318.32,111.22,-17.95,292.981292,1,1,0,1,0,,,,,,,,
726746,97760.468750,281.91,8.331821,3.122039,2.619256,-8.054056,-0.341616,0.138349,286.84,4.03,319.48,111.08,-17.97,294.497985,1,1,0,1,0,,,,,,,,
726756,97742.375000,281.91,8.140285,2.676717,0.751779,-8.013615,-0.336295,0.121321,286.74,4.03,320.72,111.03,-17.97,296.014892,1,1,0,1,0,,,,,,,,
726766,97742.375000,281.91,8.255207,3.390189,1.326387,-7.996588,-0.342680,0.118128,286.59,4.03,321.65,110.67,-17.97,296.014892,1,1,0,1,0,,,,,,,,
726776,97724.281250,281.91,8.049305,2.470816,1.283292,-7.959340,-0.354386,0.100037,286.69,4.03,322.73,110.47,-17.96,297.532043,1,1,0,1,0,,,,,,,,
726786,97724.281250,281.91,8.221688,3.289633,1.474828,-7.944440,-0.346937,0.087266,286.59,4.03,323.53,110.00,-17.97,297.532043,1,1,0,1,0,,,,,,,,
726796,97724.281250,281.91,7.900865,1.977610,0.909796,-7.913578,-0.322460,0.065981,286.88,4.03,324.13,109.34,-17.94,297.532043,1,1,0,1,0,,,,,,,,
726806,97706.187500,281.91,7.987056,3.088520,1.264138,-7.866752,-0.327781,0.057468,286.93,4.03,324.96,108.90,-17.92,299.049407,1,1,0,1,0,,,,,,,,
726816,97706.187500,281.91,8.063671,2.849099,-0.095768,-7.859302,-0.322460,0.040440,286.84,4.01,325.58,108.26,-17.92,299.049407,1,1,0,1,0,,,,,,,,
726826,97688.109375,281.91,8.288725,2.461239,1.422155,-7.828440,-0.317139,0.032990,286.88,4.00,326.41,107.84,-17.93,300.565673,1,1,0,1,0,,,,,,,,
726836,97670.015625,281.91,7.886500,2.810792,0.134075,-7.796514,-0.288405,0.030862,286.84,4.00,327.41,107.59,-17.91,302.083496,1,1,0,1,0,,,,,,,,
726846,97670.015625,281.91,8.078036,2.753331,0.995987,-7.801834,-0.262863,0.019156,286.69,4.00,328.16,107.10,-17.90,302.083496,1,1,0,1,0,,,,,,,,
726856,97615.734375,281.91,8.010998,3.289633,0.502782,-7.782678,-0.257542,0.018091,286.59,4.00,329.86,107.53,-17.90,306.638336,1,1,0,1,0,,,,,,,,
726866,97615.734375,281.91,7.795520,3.078943,0.861912,-7.766715,-0.245836,0.034055,286.69,3.99,331.14,107.54,-17.87,306.638336,1,1,0,1,0,,,,,,,,
726876,97597.640625,281.91,7.752425,3.514688,0.972045,-7.773100,-0.224551,0.038312,286.84,3.99,332.47,107.62,-17.84,308.157073,1,1,0,1,0,,,,,,,,
726886,97597.640625,281.91,7.704540,3.160346,0.881066,-7.746494,-0.220294,0.045761,286.84,3.99,333.48,107.38,-17.81,308.157073,1,1,0,1,0,,,,,,,,
726896,97597.640625,281.91,7.795520,3.040636,1.742978,-7.740109,-0.213909,0.042569,286.54,3.99,334.23,106.89,-17.79,308.157073,1,1,0,1,0,,,,,,,,
726906,97561.468750,281.91,8.111555,4.209006,0.799663,-7.739045,-0.216037,0.070238,286.59,3.99,335.55,106.95,-17.80,311.193908,1,1,0,1,0,,,,,,,,
726916,97543.375000,281.91,8.078036,3.241749,1.570596,-7.715632,-0.210716,0.083009,286.74,3.99,336.91,107.07,-17.81,312.713348,1,1,0,1,0,,,,,,,,
726926,97543.375000,281.91,8.202534,3.931279,1.158793,-7.726274,-0.233065,0.096844,286.88,3.99,337.94,106.85,-17.83,312.713348,1,1,0,1,0,,,,,,,,
726936,97543.375000,281.91,7.766790,2.509123,0.694318,-7.698605,-0.241579,0.100037,286.54,3.99,338.71,106.38,-17.80,312.713348,1,1,0,1,0,,,,,,,,
726946,97507.187500,281.91,7.781155,4.271255,2.331952,-7.710311,-0.212845,0.116000,286.84,3.98,340.05,106.47,-17.78,315.752868,1,1,0,1,0,,,,,,,,
726956,97507.187500,281.91,7.694963,2.705447,1.752555,-7.671999,-0.250092,0.126642,286.84,3.98,341.05,106.23,-17.75,315.752868,1,1,0,1,0,,,,,,,,
726966,97489.093750,281.91,7.613561,3.672705,2.533065,-7.660292,-0.259670,0.139413,287.03,3.99,342.17,106.12,-17.72,317.272949,1,1,0,1,0,,,,,,,,
726976,97489.093750,281.91,7.690175,2.681505,2.432508,-7.616659,-0.285212,0.138349,286.74,3.98,343.02,105.74,-17.70,317.272949,1,1,0,1,0,,,,,,,,
726986,97471.015625,281.91,7.570465,3.088520,2.274491,-7.595375,-0.307561,0.121321,286.54,3.99,344.03,105.52,-17.67,318.791961,1,1,0,1,0,,,,,,,,
726996,97452.921875,281.91,7.876923,2.705447,1.915361,-7.564512,-0.324588,0.123450,286.54,3.99,345.17,105.42,-17.67,320.312530,1,1,0,1,0,,,,,,,,
727006,97452.921875,281.91,7.465120,3.165134,1.422155,-7.531521,-0.345873,0.123450,286.84,3.98,346.02,105.05,-17.63,320.312530,1,1,0,1,0,,,,,,,,
727016,97434.828125,281.91,7.589619,2.442085,1.570596,-7.513430,-0.323524,0.113872,286.54,4.01,347.04,104.85,-17.61,321.833312,1,1,0,1,0,,,,,,,,
727026,97434.828125,281.91,7.680598,2.920926,1.565807,-7.495337,-0.345873,0.103229,286.84,4.01,347.80,104.39,-17.59,321.833312,1,1,0,1,0,,,,,,,,
727036,97416.734375,281.91,7.498639,1.891419,2.116474,-7.451704,-0.338423,0.083009,287.03,4.02,348.75,104.13,-17.57,323.354339,1,1,0,1,0,,,,,,,,
727046,97398.640625,281.91,7.398083,2.614468,0.995987,-7.437869,-0.355451,0.077688,286.54,4.02,349.83,104.00,-17.53,324.875579,1,1,0,1,0,,,,,,,,
727056,97416.734375,281.91,7.541735,1.436521,1.312022,-7.407007,-0.348001,0.058532,286.74,4.03,350.27,103.24,-17.51,323.354339,1,1,0,1,0,,,,,,,,
727066,97380.546875,281.91,7.187393,2.494758,0.646434,-7.393172,-0.333102,0.045761,286.59,4.03,351.35,103.12,-17.46,326.397064,1,1,0,1,0,,,,,,,,
727076,97362.468750,281.91,7.460332,1.915361,1.173158,-7.369759,-0.326717,0.030862,286.84,4.03,352.54,103.10,-17.44,327.917449,1,1,0,1,0,,,,,,,,
727086,97362.468750,281.91,7.594407,2.652775,-0.090979,-7.376144,-0.317139,0.024477,286.88,4.03,353.43,102.79,-17.44,327.917449,1,1,0,1,0,,,,,,,,
727096,97362.468750,281.91,7.149085,1.838746,0.435744,-7.354859,-0.295854,0.018091,286.93,4.03,354.10,102.27,-17.39,327.917449,1,1,0,1,0,,,,,,,,
727106,97344.375000,281.91,7.469909,2.681505,0.450109,-7.347410,-0.279891,0.006385,286.59,4.03,354.98,101.96,-17.38,329.439392,1,1,0,1,0,,,,,,,,
727116,97326.281250,281.91,7.201758,2.868253,0.742202,-7.349538,-0.246900,-0.001064,286.84,4.03,356.02,101.81,-17.34,330.961547,1,1,0,1,0,,,,,,,,
727126,97326.281250,281.91,7.331045,2.729389,0.363918,-7.377208,-0.242643,0.010642,286.59,4.03,356.79,101.40,-17.32,330.961547,1,1,0,1,0,,,,,,,,
727136,97308.187500,281.91,7.120355,2.676717,0.000000,-7.387851,-0.230936,0.031926,286.69,4.03,357.75,101.18,-17.28,332.483917,1,1,0,1,0,,,,,,,,
727146,97290.093750,281.91,7.019799,2.691082,0.651222,-7.376144,-0.219230,0.031926,286.74,4.03,358.85,101.09,-17.24,334.006561,1,1,0,1,0,,,,,,,,
727156,97290.093750,281.91,7.216123,3.007117,0.210689,-7.355924,-0.195817,0.046825,286.84,4.03,359.67,100.74,-17.22,334.006561,1,1,0,1,0,,,,,,,,
727166,97272.015625,281.91,7.158662,3.031059,1.019929,-7.368695,-0.189432,0.069174,286.74,4.03,360.67,100.56,-17.19,335.528076,1,1,0,1,0,,,,,,,,
727176,97272.015625,281.91,7.168239,3.083731,0.162805,-7.364438,-0.179854,0.059596,286.69,4.03,361.41,100.14,-17.17,335.528076,1,1,0,1,0,,,,,,,,
727186,97253.921875,281.91,7.235277,2.796427,0.814028,-7.368695,-0.170276,0.076624,286.69,4.03,362.35,99.90,-17.16,337.051147,1,1,0,1,0,,,,,,,,
727196,97217.734375,281.91,6.986280,2.954444,0.301669,-7.380401,-0.163890,0.100037,286.74,4.03,363.81,100.18,-17.13,340.097991,1,1,0,1,0,,,,,,,,
727206,97217.734375,281.91,7.264008,3.246537,1.489193,-7.364438,-0.157505,0.106422,286.88,4.03,364.91,100.11,-17.12,340.097991,1,1,0,1,0,,,,,,,,
727216,97217.734375,281.91,7.048529,1.757344,0.531512,-7.335704,-0.153248,0.106422,286.74,4.01,365.73,99.77,-17.09,340.097991,1,1,0,1,0,,,,,,,,
727226,97217.734375,281.91,7.005434,3.414131,0.972045,-7.328254,-0.161762,0.116000,286.59,4.01,366.35,99.23,-17.06,340.097991,1,1,0,1,0,,,,,,,,
727236,97199.640625,281.91,7.311892,1.886630,0.684741,-7.301649,-0.170276,0.114936,286.54,4.00,367.19,98.91,-17.07,341.621765,1,1,0,1,0,,,,,,,,
727246,97181.546875,281.91,7.024587,2.849099,1.699883,-7.271851,-0.157505,0.119193,286.88,4.00,368.19,98.76,-17.05,343.145782,1,1,0,1,0,,,,,,,,
727256,97181.546875,281.91,7.149085,2.015917,0.373495,-7.250566,-0.171340,0.124514,286.84,4.00,368.95,98.37,-17.04,343.145782,1,1,0,1,0,,,,,,,,
727266,97163.468750,281.91,6.900089,2.351105,1.580173,-7.229281,-0.183046,0.108550,286.88,4.00,369.89,98.16,-17.00,344.668670,1,1,0,1,0,,,,,,,,
727276,97145.375000,281.91,6.756437,2.336740,0.943315,-7.212254,-0.176661,0.121321,286.69,4.00,370.98,98.10,-16.96,346.193145,1,1,0,1,0,,,,,,,,
727286,97145.375000,281.91,6.909666,1.594538,1.561019,-7.186712,-0.178789,0.119193,286.74,3.99,371.79,97.77,-16.94,346.193145,1,1,0,1,0,,,,,,,,
727296,97127.281250,281.91,7.067683,2.384624,1.307234,-7.134565,-0.181982,0.097908,286.59,4.00,372.78,97.61,-16.93,347.717803,1,1,0,1,0,,,,,,,,
727306,97109.187500,281.91,6.967126,1.757344,0.794874,-7.107959,-0.185175,0.089394,286.93,3.99,373.91,97.59,-16.92,349.242736,1,1,0,1,0,,,,,,,,
727316,97109.187500,281.91,6.785167,2.245761,1.661575,-7.104767,-0.203267,0.094716,286.69,3.99,374.75,97.29,-16.88,349.242736,1,1,0,1,0,,,,,,,,
727326,97091.093750,281.91,6.732494,1.991975,0.967257,-7.054749,-0.196881,0.068110,286.59,3.99,375.76,97.16,-16.85,350.767883,1,1,0,1,0,,,,,,,,
727336,97073.000000,281.91,6.818686,1.383848,1.628057,-7.053684,-0.197945,0.058532,286.74,3.99,376.89,97.16,-16.83,352.293243,1,1,0,1,0,,,,,,,,
727346,97073.000000,281.91,6.785167,2.743755,1.201889,-7.047298,-0.211780,0.063853,286.69,3.99,377.75,96.88,-16.81,352.293243,1,1,0,1,0,,,,,,,,
727356,97054.921875,281.91,6.631938,1.805227,1.982398,-7.016436,-0.200074,0.064917,286.69,3.99,378.77,96.76,-16.77,353.817535,1,1,0,1,0,,,,,,,,
727366,97036.828125,281.91,6.866570,3.102885,1.388636,-7.006858,-0.219230,0.059596,286.74,3.99,379.91,96.77,-16.76,355.343383,1,1,0,1,0,,,,,,,,
727376,97036.828125,281.91,6.751648,1.728613,0.852335,-6.982381,-0.224551,0.064917,286.84,3.99,380.77,96.50,-16.74,355.343383,1,1,0,1,0,,,,,,,,
727386,97036.828125,281.91,6.914454,2.331952,0.981622,-6.949390,-0.210716,0.059596,286.93,3.99,381.41,96.02,-16.74,355.343383,1,1,0,1,0,,,,,,,,
727396,97018.734375,281.91,6.789956,1.991975,1.364694,-6.941940,-0.223487,0.050018,286.74,3.98,382.27,95.75,-16.72,356.869445,1,1,0,1,0,,,,,,,,
727406,96982.546875,281.91,6.684610,1.446097,1.144428,-6.917463,-0.213909,0.035119,286.84,3.99,383.68,96.02,-16.70,359.922271,1,1,0,1,0,,,,,,,,
727416,96982.546875,281.91,6.655880,2.432508,0.497993,-6.888729,-0.227744,0.027669,286.59,4.01,384.73,95.95,-16.68,359.922271,1,1,0,1,0,,,,,,,,
727426,96982.546875,281.91,6.579266,1.249773,0.818816,-6.873830,-0.214973,0.024477,286.54,4.01,385.53,95.63,-16.65,359.922271,1,1,0,1,0,,,,,,,,
727436,96982.546875,281.91,6.449979,2.264914,1.096544,-6.849353,-0.221358,0.017027,286.69,4.02,386.12,95.11,-16.61,359.922271,1,1,0,1,0,,,,,,,,
727446,96964.468750,281.91,6.473921,2.188300,0.790086,-6.832325,-0.212845,0.005321,286.54,4.03,386.94,94.82,-16.58,361.447723,1,1,0,1,0,,,,,,,,
727456,96946.375000,281.91,6.536170,1.987187,1.618480,-6.819554,-0.214973,0.011706,286.88,4.02,387.94,94.70,-16.56,362.974700,1,1,0,1,0,,,,,,,,
727466,96946.375000,281.91,6.402095,2.097320,0.517147,-6.798270,-0.217101,0.012770,286.69,4.03,388.68,94.35,-16.52,362.974700,1,1,0,1,0,,,,,,,,
727476,96910.187500,281.91,6.287173,2.102108,1.431732,-6.792949,-0.213909,0.004256,286.69,4.03,390.00,94.55,-16.48,366.029357,1,1,0,1,0,,,,,,,,
727486,96910.187500,281.91,6.574477,2.078166,0.818816,-6.791885,-0.222423,0.012770,286.59,4.03,390.99,94.43,-16.47,366.029357,1,1,0,1,0,,,,,,,,
727496,96892.093750,281.91,6.244078,2.049436,1.110909,-6.775921,-0.214973,0.015963,286.69,4.03,392.12,94.45,-16.43,367.557037,1,1,0,1,0,,,,,,,,
727506,96892.093750,281.91,6.411672,2.049436,0.909796,-6.751444,-0.210716,0.011706,286.59,4.03,392.96,94.19,-16.41,367.557037,1,1,0,1,0,,,,,,,,
727516,96874.000000,281.91,6.263231,2.116474,0.938527,-6.753572,-0.207523,0.018091,286.84,4.03,393.97,94.09,-16.38,369.084960,1,1,0,1,0,,,,,,,,
727526,96874.000000,281.91,6.373364,1.843535,1.623268,-6.731224,-0.207523,0.015963,286.54,4.03,394.73,93.76,-16.36,369.084960,1,1,0,1,0,,,,,,,,
727536,96874.000000,281.91,6.344634,2.293645,1.570596,-6.714196,-0.211780,0.023412,286.84,4.03,395.30,93.24,-16.34,369.084960,1,1,0,1,0,,,,,,,,
727546,96855.921875,281.91,6.493074,1.790862,0.909796,-6.718453,-0.218166,0.014899,286.84,4.03,396.10,92.95,-16.33,370.611785,1,1,0,1,0,,,,,,,,
727556,96837.828125,281.91,6.411672,2.518700,1.067813,-6.696104,-0.221358,0.014899,286.74,4.03,397.09,92.84,-16.32,372.140167,1,1,0,1,0,,,,,,,,
727566,96837.828125,281.91,6.373364,2.078166,0.914585,-6.701425,-0.228808,0.020220,286.69,4.03,397.82,92.49,-16.31,372.140167,1,1,0,1,0,,,,,,,,
727576,96819.734375,281.91,6.320692,2.221819,1.651999,-6.667370,-0.220294,-0.001064,286.59,4.03,398.75,92.34,-16.29,373.668762,1,1,0,1,0,,,,,,,,
727586,96801.640625,281.91,6.406883,2.513911,0.981622,-6.666306,-0.218166,0.010642,286.84,4.03,399.83,92.32,-16.28,375.197601,1,1,0,1,0,,,,,,,,
727596,96801.640625,281.91,6.258443,1.838746,1.211466,-6.668435,-0.226679,0.026605,286.74,4.03,400.64,92.05,-16.26,375.197601,1,1,0,1,0,,,,,,,,
727606,96783.546875,281.91,6.162674,2.580949,0.852335,-6.660985,-0.207523,0.018091,286.69,4.03,401.63,91.96,-16.23,376.726684,1,1,0,1,0,,,,,,,,
727616,96783.546875,281.91,6.153098,2.365471,0.866701,-6.665242,-0.210716,0.018091,286.88,4.01,402.37,91.63,-16.21,376.726684,1,1,0,1,0,,,,,,,,
727626,96765.453125,281.91,6.105214,2.317587,1.273715,-6.669499,-0.218166,0.034055,286.84,4.00,403.30,91.48,-16.18,378.255981,1,1,0,1,0,,,,,,,,
727636,96747.375000,281.91,6.028599,2.202665,0.545877,-6.646086,-0.222423,0.029798,286.69,4.00,404.38,91.49,-16.14,379.784179,1,1,0,1,0,,,,,,,,
727646,96747.375000,281.91,6.038176,1.843535,0.742202,-6.647150,-0.203267,0.027669,286.59,4.00,405.20,91.23,-16.12,379.784179,1,1,0,1,0,,,,,,,,
727656,96729.281250,281.91,6.234500,2.015917,0.799663,-6.651407,-0.209652,0.052147,286.88,4.00,406.18,91.14,-16.11,381.313934,1,1,0,1,0,,,,,,,,
727666,96729.281250,281.91,5.971138,1.853112,0.660799,-6.633315,-0.207523,0.043633,286.69,3.99,406.93,90.82,-16.08,381.313934,1,1,0,1,0,,,,,,,,
727676,96693.093750,281.91,5.928043,1.388636,1.053448,-6.616288,-0.188367,0.026605,286.59,4.00,408.24,91.06,-16.04,384.374176,1,1,0,1,0,,,,,,,,
727686,96693.093750,281.91,5.937620,2.523488,0.981622,-6.626930,-0.200074,0.044697,286.54,3.99,409.23,90.98,-16.02,384.374176,1,1,0,1,0,,,,,,,,
727696,96693.093750,281.91,5.966350,1.450886,0.660799,-6.618416,-0.207523,0.040440,286.84,3.99,409.98,90.66,-15.99,384.374176,1,1,0,1,0,,,,,,,,
727706,96675.000000,281.91,5.918466,2.858676,0.727837,-6.609902,-0.201138,0.040440,286.84,3.99,410.91,90.54,-15.97,385.904632,1,1,0,1,0,,,,,,,,
727716,96675.000000,281.91,6.052541,1.762132,0.033518,-6.612030,-0.196881,0.054275,286.74,3.99,411.62,90.18,-15.95,385.904632,1,1,0,1,0,,,,,,,,
727726,96656.906250,281.91,6.062118,2.322375,0.790086,-6.607774,-0.187303,0.050018,286.88,3.99,412.52,90.03,-15.95,387.435333,1,1,0,1,0,,,,,,,,
727736,96638.828125,281.91,5.918466,1.675941,-0.033518,-6.592874,-0.181982,0.053211,286.93,3.99,413.58,90.03,-15.93,388.964904,1,1,0,1,0,,,,,,,,
727746,96620.734375,281.91,5.999869,1.867477,1.355118,-6.585425,-0.180918,0.050018,286.84,3.99,414.76,90.14,-15.91,390.496063,1,1,0,1,0,,,,,,,,
727756,96620.734375,281.91,5.798756,2.604891,0.507570,-6.571590,-0.188367,0.050018,286.54,3.99,415.65,89.97,-15.88,390.496063,1,1,0,1,0,,,,,,,,
727766,96624.390625,281.92,5.908889,1.268926,0.799663,-6.562012,-0.184110,0.044697,286.84,3.98,416.23,89.50,-15.87,390.186645,1,1,0,1,0,,,,,,,,
727776,96584.546875,281.91,5.736507,2.336740,0.833182,-6.527957,-0.179854,0.050018,286.93,3.99,417.51,89.72,-15.84,393.559082,1,1,0,1,0,,,,,,,,
727786,96602.640625,281.91,5.669469,1.824381,0.713472,-6.523700,-0.176661,0.044697,286.74,3.98,418.09,89.26,-15.80,392.027465,1,1,0,1,0,,,,,,,,
727796,96602.640625,281.91,5.621585,2.178723,1.216254,-6.511993,-0.178789,0.053211,286.69,3.99,418.52,88.65,-15.76,392.027465,1,1,0,1,0,,,,,,,,
727806,96566.453125,281.91,5.573701,1.953668,0.967257,-6.501351,-0.184110,0.062789,286.54,3.98,419.60,88.69,-15.73,395.090942,1,1,0,1,0,,,,,,,,
727816,96566.453125,281.91,5.698199,1.359906,1.154005,-6.503479,-0.185175,0.048954,286.84,4.01,420.41,88.46,-15.71,395.090942,1,1,0,1,0,,,,,,,,
727826,96566.453125,281.91,5.784391,2.221819,0.723048,-6.498158,-0.185175,0.057468,286.74,4.02,421.02,88.04,-15.69,395.090942,1,1,0,1,0,,,,,,,,
727836,96548.375000,281.91,5.870582,1.532289,0.459686,-6.485388,-0.178789,0.048954,286.59,4.01,421.86,87.84,-15.69,396.621704,1,1,0,1,0,,,,,,,,
727846,96512.187500,281.91,5.635950,2.269703,0.962469,-6.474745,-0.180918,0.061725,286.88,4.02,423.25,88.18,-15.67,399.686553,1,1,0,1,0,,,,,,,,
727856,96512.187500,281.91,5.588066,1.771709,0.497993,-6.460910,-0.179854,0.058532,286.59,4.02,424.29,88.19,-15.64,399.686553,1,1,0,1,0,,,,,,,,
727866,96494.093750,281.91,5.698199,2.082955,0.780509,-6.460910,-0.172404,0.046825,286.84,4.03,425.46,88.31,-15.63,401.219329,1,1,0,1,0,,,,,,,,
727876,96512.187500,281.91,5.592854,2.470816,0.387860,-6.454525,-0.172404,0.065981,286.84,4.03,425.96,87.78,-15.61,399.686553,1,1,0,1,0,,,,,,,,
727886,96476.000000,281.91,5.544970,1.838746,0.737414,-6.443883,-0.168147,0.065981,286.88,4.03,427.09,87.87,-15.58,402.752349,1,1,0,1,0,,,,,,,,
727896,96476.000000,281.91,5.497087,2.528276,0.799663,-6.441755,-0.166019,0.068110,286.88,4.03,427.94,87.69,-15.56,402.752349,1,1,0,1,0,,,,,,,,
727906,96457.906250,281.91,5.564124,2.451662,0.588973,-6.458782,-0.170276,0.089394,286.84,4.03,428.96,87.68,-15.54,404.285583,1,1,0,1,0,,,,,,,,
727916,96439.828125,281.91,5.588066,2.509123,0.392649,-6.448140,-0.170276,0.102165,286.74,4.03,430.11,87.79,-15.53,405.817749,1,1,0,1,0,,,,,,,,
727926,96439.828125,281.91,5.559336,2.341529,0.871489,-6.440690,-0.163890,0.111743,286.59,4.03,430.97,87.62,-15.51,405.817749,1,1,0,1,0,,,,,,,,
727936,96439.828125,281.91,5.487510,2.523488,0.459686,-6.430048,-0.171340,0.116000,286.88,4.03,431.61,87.24,-15.49,405.817749,1,1,0,1,0,,,,,,,,
727946,96421.734375,281.91,5.238513,1.891419,0.320823,-6.431112,-0.164954,0.117064,286.69,4.03,432.48,87.08,-15.44,407.351470,1,1,0,1,0,,,,,,,,
727956,96421.734375,281.91,5.521028,2.183511,0.521935,-6.421535,-0.173468,0.125578,286.59,4.03,433.13,86.71,-15.43,407.351470,1,1,0,1,0,,,,,,,,
727966,96403.640625,281.91,5.612008,2.437297,0.421379,-6.420470,-0.176661,0.131963,286.84,4.03,433.99,86.56,-15.43,408.885406,1,1,0,1,0,,,,,,,,
727976,96385.546875,281.91,5.506663,2.552218,0.632069,-6.409828,-0.175597,0.145798,286.59,4.03,435.02,86.57,-15.42,410.419586,1,1,0,1,0,,,,,,,,
727986,96367.453125,281.91,5.415684,2.394201,0.004788,-6.411956,-0.179854,0.144734,286.69,4.03,436.18,86.70,-15.40,411.954010,1,1,0,1,0,,,,,,,,
727996,96385.546875,281.91,5.300762,1.934514,1.063025,-6.402379,-0.180918,0.143670,286.74,4.03,436.67,86.18,-15.37,410.419586,1,1,0,1,0,,,,,,,,
728006,96367.453125,281.91,5.425261,2.652775,-0.038307,-6.390672,-0.184110,0.147927,286.69,4.04,437.41,85.91,-15.36,411.954010,1,1,0,1,0,,,,,,,,
728016,96349.359375,281.91,5.310339,1.455674,0.905008,-6.388543,-0.180918,0.158569,286.69,4.01,438.35,85.84,-15.33,413.488647,1,1,0,1,0,,,,,,,,
728026,96349.359375,281.91,5.358223,2.561795,0.081402,-6.381094,-0.185175,0.155376,286.59,4.01,439.05,85.54,-15.32,413.488647,1,1,0,1,0,,,,,,,,
728036,96349.359375,281.91,5.305551,1.651999,0.660799,-6.386415,-0.181982,0.166019,286.69,4.00,439.58,85.07,-15.30,413.488647,1,1,0,1,0,,,,,,,,
728046,96331.281250,281.91,5.329493,2.533065,0.545877,-6.386415,-0.191560,0.168147,286.93,4.00,440.35,84.84,-15.28,415.022186,1,1,0,1,0,,,,,,,,
728056,96331.281250,281.91,5.281609,1.742978,1.125274,-6.372580,-0.191560,0.167083,286.69,4.00,440.93,84.43,-15.26,415.022186,1,1,0,1,0,,,,,,,,
728066,96313.187500,281.91,5.233724,2.351105,0.708683,-6.366195,-0.195817,0.166019,286.59,4.00,441.75,84.25,-15.24,416.557312,1,1,0,1,0,,,,,,,,
728076,96295.093750,281.91,5.257667,1.824381,1.144428,-6.368323,-0.209652,0.171340,286.59,4.00,442.74,84.25,-15.22,418.092651,1,1,0,1,0,,,,,,,,
728086,96277.000000,281.91,5.176263,2.456450,0.746990,-6.349167,-0.207523,0.172404,286.69,3.99,443.87,84.38,-15.20,419.628234,1,1,0,1,0,,,,,,,,
728096,96277.000000,281.91,5.348646,2.102108,0.914585,-6.357681,-0.217101,0.181982,286.69,3.99,444.72,84.23,-15.20,419.628234,1,1,0,1,0,,,,,,,,
728106,96262.562500,281.92,5.267243,2.346317,0.617704,-6.357681,-0.230936,0.178789,286.69,3.99,445.66,84.17,-15.18,420.853668,1,1,0,1,0,,,,,,,,
728116,96258.906250,281.91,5.233724,2.437297,0.526724,-6.343846,-0.234129,0.191560,286.84,3.99,446.44,83.97,-15.17,421.164031,1,1,0,1,0,,,,,,,,
728126,96240.828125,281.91,5.185840,1.254561,0.761356,-6.327882,-0.233065,0.179854,286.93,3.98,447.41,83.94,-15.15,422.698760,1,1,0,1,0,,,,,,,,
728136,96240.828125,281.91,5.037400,2.456450,0.474051,-6.327882,-0.249028,0.175597,286.59,3.99,448.14,83.69,-15.12,422.698760,1,1,0,1,0,,,,,,,,
728146,96240.828125,281.91,5.094861,1.316810,0.694318,-6.315112,-0.246900,0.175597,286.69,3.99,448.68,83.25,-15.10,422.698760,1,1,0,1,0,,,,,,,,
728156,96226.375000,281.92,5.142745,2.149993,0.440533,-6.299149,-0.255414,0.170276,286.93,3.99,449.39,82.99,-15.08,423.925903,1,1,0,1,0,,,,,,,,
728166,96222.734375,281.91,4.955997,0.876277,1.120486,-6.291699,-0.253285,0.159633,286.59,3.99,450.00,82.62,-15.05,424.235046,1,1,0,1,0,,,,,,,,
728176,96204.640625,281.91,4.879383,1.556231,0.181959,-6.272543,-0.263927,0.142606,286.49,3.99,450.84,82.49,-15.02,425.771575,1,1,0,1,0,,,,,,,,
728186,96186.546875,281.91,4.994304,1.666364,0.440533,-6.250194,-0.255414,0.139413,286.74,3.99,451.85,82.52,-15.00,427.308319,1,1,0,1,0,,,,,,,,
728196,96172.093750,281.92,5.023035,1.302445,0.191536,-6.241680,-0.245836,0.129835,286.84,3.99,452.92,82.61,-14.98,428.536010,1,1,0,1,0,,,,,,,,
728206,96168.453125,281.91,4.630385,1.340752,0.512359,-6.233166,-0.230936,0.117064,286.74,3.99,453.79,82.51,-14.93,428.845306,1,1,0,1,0,,,,,,,,
728216,96168.453125,281.91,4.888959,1.288080,0.699106,-6.208689,-0.228808,0.104294,286.54,4.01,454.45,82.20,-14.91,428.845306,1,1,0,1,0,,,,,,,,
728226,96150.359375,281.91,4.984727,1.853112,0.435744,-6.193790,-0.232001,0.098972,286.84,4.01,455.33,82.11,-14.90,430.382507,1,1,0,1,0,,,,,,,,
728236,96150.359375,281.91,4.845864,1.393425,-0.263362,-6.184212,-0.225615,0.093651,286.69,4.02,455.98,81.80,-14.87,430.382507,1,1,0,1,0,,,,,,,,
728246,96132.281250,281.91,4.936843,1.589749,0.421379,-6.169313,-0.214973,0.080881,286.88,4.02,456.85,81.71,-14.86,431.918640,1,1,0,1,0,,,,,,,,
728256,96114.187500,281.91,4.668693,1.776497,-0.387860,-6.161863,-0.197945,0.088330,286.69,4.03,457.89,81.78,-14.82,433.456329,1,1,0,1,0,,,,,,,,
728266,96114.187500,281.91,5.027823,1.307234,0.871489,-6.149093,-0.204331,0.078752,286.69,4.03,458.67,81.59,-14.82,433.456329,1,1,0,1,0,,,,,,,,
728276,96096.093750,281.91,5.032611,1.584961,0.148440,-6.135257,-0.203267,0.081945,286.84,4.03,459.64,81.59,-14.82,434.994232,1,1,0,1,0,,,,,,,,
728286,96096.093750,281.91,4.869806,1.326387,0.119710,-6.135257,-0.184110,0.074495,286.88,4.03,460.37,81.36,-14.81,434.994232,1,1,0,1,0,,,,,,,,
728296,96096.093750,281.91,4.831499,1.939303,0.579396,-6.123551,-0.199010,0.079816,286.74,4.03,460.91,80.95,-14.79,434.994232,1,1,0,1,0,,,,,,,,
728306,96078.000000,281.91,4.692635,1.230619,0.057460,-6.119295,-0.178789,0.078752,286.74,4.03,461.70,80.78,-14.76,436.532379,1,1,0,1,0,,,,,,,,
728316,96059.906250,281.91,4.616020,1.881842,0.407014,-6.100138,-0.174532,0.074495,286.84,4.03,462.67,80.80,-14.73,438.070770,1,1,0,1,0,,,,,,,,
728326,96059.906250,281.91,4.831499,1.671152,0.076614,-6.104395,-0.161762,0.072367,286.88,4.03,463.40,80.58,-14.72,438.070770,1,1,0,1,0,,,,,,,,
728336,96059.906250,281.91,4.821922,1.977610,0.885854,-6.088431,-0.160697,0.079816,286.74,4.03,463.95,80.18,-14.71,438.070770,1,1,0,1,0,,,,,,,,
728346,96041.812500,281.91,4.778826,1.225831,0.100556,-6.091624,-0.167083,0.074495,286.59,4.03,464.74,80.03,-14.70,439.609405,1,1,0,1,0,,,,,,,,
728356,96027.359375,281.92,4.869806,1.522712,1.000776,-6.067147,-0.160697,0.070238,286.59,4.03,465.64,79.98,-14.70,440.838592,1,1,0,1,0,,,,,,,,
728366,96023.734375,281.91,4.879383,2.202665,0.842759,-6.043734,-0.167083,0.076624,286.84,4.03,466.39,79.79,-14.69,441.146942,1,1,0,1,0,,,,,,,,
728376,95987.546875,281.91,4.592078,1.082179,0.837970,-6.041606,-0.166019,0.074495,286.59,4.03,467.72,80.16,-14.67,444.225341,1,1,0,1,0,,,,,,,,
728386,95987.546875,281.91,4.678269,2.312798,0.603338,-6.021386,-0.169211,0.079816,286.59,4.04,468.73,80.21,-14.65,444.225341,1,1,0,1,0,,,,,,,,
728396,95987.546875,281.91,4.525041,1.479616,0.881066,-6.016065,-0.163890,0.080881,286.93,4.03,469.48,80.02,-14.62,444.225341,1,1,0,1,0,,,,,,,,
728406,95987.546875,281.91,4.668693,2.082955,1.120486,-6.007551,-0.176661,0.083009,286.84,4.03,470.04,79.64,-14.61,444.225341,1,1,0,1,0,,,,,,,,
728416,95969.453125,281.91,4.563348,1.580173,0.445321,-6.004358,-0.172404,0.086202,286.54,4.01,470.84,79.51,-14.58,445.764923,1,1,0,1,0,,,,,,,,
728426,95951.359375,281.91,4.687846,1.838746,1.029506,-5.985202,-0.181982,0.085138,286.84,4.01,471.83,79.55,-14.57,447.304718,1,1,0,1,0,,,,,,,,
728436,95951.359375,281.91,4.635174,1.675941,0.948103,-5.976688,-0.181982,0.086202,286.84,4.00,472.57,79.35,-14.56,447.304718,1,1,0,1,0,,,,,,,,
728446,95955.000000,281.92,4.548983,1.254561,0.981622,-5.958596,-0.189432,0.076624,286.69,4.00,473.05,78.90,-14.54,446.994873,1,1,0,1,0,,,,,,,,
728456,95933.265625,281.91,4.563348,1.628057,0.636857,-5.945826,-0.197945,0.081945,286.69,4.00,473.86,78.78,-14.52,448.844726,1,1,0,1,0,,,,,,,,
728466,95933.265625,281.91,4.568136,1.618480,1.106121,-5.919220,-0.197945,0.074495,286.54,4.00,474.48,78.47,-14.51,448.844726,1,1,0,1,0,,,,,,,,
728476,95915.187500,281.91,4.568136,1.642422,0.565031,-5.910706,-0.202202,0.068110,286.74,3.99,475.32,78.38,-14.50,450.383666,1,1,0,1,0,,,,,,,,
728486,95897.093750,281.91,4.592078,1.086967,1.082179,-5.892614,-0.205395,0.073431,286.84,3.98,476.33,78.46,-14.49,451.924163,1,1,0,1,0,,,,,,,,
728496,95897.093750,281.91,4.568136,1.393425,0.885854,-5.876651,-0.214973,0.070238,286.69,4.00,477.09,78.29,-14.48,451.924163,1,1,0,1,0,,,,,,,,
728506,95879.000000,281.91,4.525041,1.661575,0.622492,-5.857495,-0.211780,0.062789,286.84,3.99,478.05,78.32,-14.46,453.464904,1,1,0,1,0,,,,,,,,
728516,95879.000000,281.91,4.357447,0.962469,0.651222,-5.854302,-0.221358,0.056403,286.84,3.99,478.77,78.11,-14.43,453.464904,1,1,0,1,0,,,,,,,,
728526,95864.531250,281.92,4.462791,1.546654,-0.138863,-5.830890,-0.212845,0.053211,286.74,3.98,479.61,78.03,-14.42,454.697143,1,1,0,1,0,,,,,,,,
728536,95860.906250,281.91,4.515464,1.130063,1.450886,-5.818119,-0.213909,0.045761,286.54,3.98,480.32,77.82,-14.41,455.005889,1,1,0,1,0,,,,,,,,
728546,95864.531250,281.92,4.472368,1.661575,0.095768,-5.800027,-0.218166,0.035119,286.74,3.99,480.77,77.36,-14.39,454.697143,1,1,0,1,0,,,,,,,,
728556,95842.812500,281.91,4.510675,1.082179,1.039083,-5.790449,-0.211780,0.032990,286.54,3.99,481.57,77.25,-14.39,456.547088,1,1,0,1,0,,,,,,,,
728566,95846.453125,281.92,4.347870,1.024718,0.248996,-5.763843,-0.212845,0.022348,286.69,3.99,482.09,76.86,-14.36,456.236968,1,1,0,1,0,,,,,,,,
728576,95828.359375,281.92,4.295197,0.852335,0.861912,-5.750008,-0.199010,0.011706,286.74,3.99,482.87,76.72,-14.34,457.778381,1,1,0,1,0,,,,,,,,
728586,95824.734375,281.91,4.261679,1.431732,0.205901,-5.739366,-0.199010,0.009578,286.69,3.98,483.52,76.48,-14.31,458.087219,1,1,0,1,0,,,,,,,,
728596,95806.640625,281.91,4.328716,1.331176,1.067813,-5.730852,-0.192624,0.010642,286.69,3.98,484.40,76.44,-14.29,459.628906,1,1,0,1,0,,,,,,,,
728606,95806.640625,281.91,4.252102,0.976834,-0.258573,-5.718081,-0.188367,-0.002128,286.74,3.98,485.06,76.20,-14.27,459.628906,1,1,0,1,0,,,,,,,,
728616,95806.640625,281.91,4.218583,1.546654,1.058237,-5.705311,-0.184110,0.002128,286.69,4.00,485.55,75.79,-14.25,459.628906,1,1,0,1,0,,,,,,,,
728626,95792.171875,281.92,4.252102,0.986411,0.244208,-5.698925,-0.183046,-0.008513,286.59,4.01,486.22,75.57,-14.23,460.861877,1,1,0,1,0,,,,,,,,
728636,95770.453125,281.91,4.232948,1.508347,0.723048,-5.680834,-0.177725,-0.001064,286.93,4.02,487.18,75.63,-14.21,462.712951,1,1,0,1,0,,,,,,,,
728646,95752.359375,281.91,4.280832,1.005564,0.627280,-5.670191,-0.178789,-0.006385,286.59,4.02,488.29,75.84,-14.20,464.255340,1,1,0,1,0,,,,,,,,
728656,95755.984375,281.92,4.218583,1.632845,0.407014,-5.660614,-0.172404,-0.005321,286.88,4.03,489.05,75.70,-14.18,463.946319,1,1,0,1,0,,,,,,,,
728666,95752.359375,281.91,4.132391,1.201889,0.459686,-5.647842,-0.164954,-0.008513,286.54,4.03,489.70,75.45,-14.16,464.255340,1,1,0,1,0,,,,,,,,
728676,95734.265625,281.91,4.170699,1.551442,0.220266,-5.642521,-0.160697,-0.006385,286.54,4.03,490.56,75.42,-14.14,465.797973,1,1,0,1,0,,,,,,,,
728686,95734.265625,281.91,4.266467,1.340752,0.972045,-5.627622,-0.160697,-0.006385,286.69,4.03,491.21,75.18,-14.13,465.797973,1,1,0,1,0,,,,,,,,
728696,95716.187500,281.91,4.189852,1.288080,0.656011,-5.625494,-0.158569,-0.006385,286.59,4.03,492.08,75.15,-14.12,467.339508,1,1,0,1,0,,,,,,,,
728706,95716.187500,281.91,4.180275,1.546654,0.890643,-5.615916,-0.161762,-0.002128,286.54,4.03,492.74,74.92,-14.11,467.339508,1,1,0,1,0,,,,,,,,
728716,95698.093750,281.91,4.151545,1.704671,0.723048,-5.613788,-0.164954,0.002128,286.49,4.03,493.61,74.90,-14.09,468.882598,1,1,0,1,0,,,,,,,,
728726,95680.000000,281.91,4.170699,1.450886,0.761356,-5.611659,-0.155376,0.003192,286.59,4.03,494.65,75.04,-14.08,470.425933,1,1,0,1,0,,,,,,,,
728736,95680.000000,281.91,4.098873,1.580173,0.565031,-5.607402,-0.162826,0.010642,286.74,4.03,495.43,74.93,-14.07,470.425933,1,1,0,1,0,,,,,,,,
728746,95683.625000,281.92,4.022258,1.580173,0.737414,-5.605273,-0.159633,0.018091,286.93,4.03,495.94,74.56,-14.04,470.116699,1,1,0,1,0,,,,,,,,
728756,95665.531250,281.92,4.084507,1.489193,0.837970,-5.592503,-0.161762,0.019156,286.74,4.03,496.71,74.44,-14.03,471.660217,1,1,0,1,0,,,,,,,,
728766,95661.906250,281.91,4.098873,1.254561,0.881066,-5.587182,-0.158569,0.026605,286.88,4.03,497.36,74.21,-14.01,471.969482,1,1,0,1,0,,,,,,,,
728776,95661.906250,281.91,4.022258,1.379060,1.019929,-5.582925,-0.172404,0.025541,286.88,4.03,497.84,73.83,-14.00,471.969482,1,1,0,1,0,,,,,,,,
728786,95647.437500,281.92,4.055777,1.450886,1.312022,-5.575475,-0.166019,0.028734,286.59,4.04,498.51,73.62,-13.98,473.203979,1,1,0,1,0,,,,,,,,
728796,95643.812500,281.91,4.022258,1.532289,0.727837,-5.559512,-0.177725,0.025541,286.74,4.03,499.09,73.33,-13.97,473.513305,1,1,0,1,0,,,,,,,,
728806,95625.718750,281.91,4.141968,1.484405,1.067813,-5.545677,-0.188367,0.032990,286.69,4.03,499.91,73.27,-13.96,475.057342,1,1,0,1,0,,,,,,,,
728816,95625.718750,281.91,3.998316,1.134851,0.028730,-5.535035,-0.181982,0.030862,286.88,4.01,500.52,73.02,-13.95,475.057342,1,1,0,1,0,,,,,,,,
728826,95607.640625,281.91,4.003105,1.470039,1.149216,-5.524392,-0.183046,0.024477,286.54,4.01,501.36,72.99,-13.94,476.600280,1,1,0,1,0,,,,,,,,
728836,95607.640625,281.91,3.979163,1.154005,0.320823,-5.514814,-0.186239,0.023412,286.93,4.00,502.00,72.76,-13.92,476.600280,1,1,0,1,0,,,,,,,,
728846,95611.250000,281.92,3.983951,1.403002,1.307234,-5.495658,-0.181982,0.025541,286.54,4.00,502.39,72.30,-13.91,476.292205,1,1,0,1,0,,,,,,,,
728856,95593.156250,281.92,3.897760,1.201889,0.397437,-5.467988,-0.183046,0.014899,286.74,4.00,503.07,72.12,-13.89,477.836669,1,1,0,1,0,,,,,,,,
728866,95571.453125,281.91,3.854664,1.259350,0.962469,-5.473309,-0.183046,0.015963,286.74,4.00,504.04,72.22,-13.87,479.689544,1,1,0,1,0,,,,,,,,
728876,95556.984375,281.92,3.816357,0.823605,0.402225,-5.452025,-0.186239,0.011706,286.54,3.99,505.08,72.39,-13.84,480.924987,1,1,0,1,0,,,,,,,,
728886,95556.984375,281.92,3.854664,1.690306,0.603338,-5.449897,-0.176661,0.010642,286.84,3.99,505.86,72.31,-13.83,480.924987,1,1,0,1,0,,,,,,,,
728896,95553.359375,281.91,3.979163,1.163581,0.598550,-5.443511,-0.186239,0.007449,286.84,3.99,506.52,72.11,-13.82,481.234527,1,1,0,1,0,,,,,,,,
728906,95538.890625,281.92,3.907337,1.738190,0.622492,-5.446704,-0.178789,0.011706,286.74,3.99,507.32,72.06,-13.81,482.470153,1,1,0,1,0,,,,,,,,
728916,95538.890625,281.92,3.763684,0.933738,0.512359,-5.432869,-0.180918,0.010642,286.88,3.99,507.93,71.81,-13.79,482.470153,1,1,0,1,0,,,,,,,,
728926,95517.187500,281.91,3.854664,1.671152,0.689530,-5.417970,-0.172404,0.005321,286.74,3.99,508.84,71.86,-13.78,484.323883,1,1,0,1,0,,,,,,,,
728936,95517.187500,281.91,3.821145,1.584961,0.330399,-5.421163,-0.184110,0.014899,286.84,3.99,509.53,71.69,-13.76,484.323883,1,1,0,1,0,,,,,,,,
728946,95499.093750,281.91,3.778050,1.498770,0.421379,-5.425419,-0.166019,0.020220,286.88,3.98,510.42,71.73,-13.74,485.869598,1,1,0,1,0,,,,,,,,
728956,95502.703125,281.92,3.816357,1.666364,0.569819,-5.423291,-0.177725,0.024477,286.69,3.99,511.02,71.48,-13.73,485.561218,1,1,0,1,0,,,,,,,,
728966,95484.609375,281.92,3.835510,1.249773,0.052672,-5.423291,-0.172404,0.028734,286.69,3.98,511.85,71.46,-13.72,487.107116,1,1,0,1,0,,,,,,,,
728976,95481.000000,281.91,3.845087,1.498770,1.125274,-5.427548,-0.170276,0.035119,286.69,3.98,512.56,71.31,-13.72,487.415527,1,1,0,1,0,,,,,,,,
728986,95462.906250,281.91,3.778050,1.426944,0.268150,-5.423291,-0.163890,0.034055,286.69,3.99,513.47,71.37,-13.70,488.961700,1,1,0,1,0,,,,,,,,
728996,95481.000000,281.91,3.821145,1.508347,0.646434,-5.429677,-0.164954,0.038312,286.74,3.99,513.77,70.83,-13.69,487.415527,1,1,0,1,0,,,,,,,,
729006,95444.812500,281.91,3.730166,1.149216,-0.210689,-5.423291,-0.164954,0.042569,286.69,3.98,514.76,70.97,-13.68,490.508117,1,1,0,1,0,,,,,,,,
729016,95444.812500,281.91,3.739742,1.019929,0.967257,-5.422227,-0.161762,0.048954,286.84,4.00,515.50,70.87,-13.67,490.508117,1,1,0,1,0,,,,,,,,
729026,95444.812500,281.91,3.600879,1.221042,0.469263,-5.415841,-0.166019,0.047890,286.84,4.01,516.06,70.59,-13.64,490.508117,1,1,0,1,0,,,,,,,,
729036,95426.718750,281.91,3.715801,1.580173,0.454898,-5.417970,-0.157505,0.048954,286.59,4.02,516.86,70.55,-13.63,492.054748,1,1,0,1,0,,,,,,,,
729046,95408.640625,281.91,3.711012,1.029506,0.244208,-5.407328,-0.170276,0.056403,286.74,4.02,517.85,70.69,-13.62,493.600311,1,1,0,1,0,,,,,,,,
729056,95412.250000,281.92,3.797203,1.771709,0.368707,-5.412649,-0.158569,0.058532,286.88,4.03,518.52,70.51,-13.62,493.291717,1,1,0,1,0,,,,,,,,
729066,95412.250000,281.92,3.816357,1.235408,0.354341,-5.404135,-0.166019,0.064917,286.84,4.03,519.02,70.18,-13.62,493.291717,1,1,0,1,0,,,,,,,,
729076,95412.250000,281.92,3.643975,1.642422,0.081402,-5.411584,-0.153248,0.067046,286.84,4.03,519.39,69.72,-13.60,493.291717,1,1,0,1,0,,,,,,,,
729086,95372.453125,281.91,3.758896,1.489193,0.287304,-5.406263,-0.158569,0.070238,286.69,4.03,520.51,70.00,-13.60,496.694793,1,1,0,1,0,,,,,,,,
729096,95390.546875,281.91,3.811568,1.561019,0.857124,-5.408392,-0.158569,0.077688,286.59,4.03,520.97,69.63,-13.60,495.147430,1,1,0,1,0,,,,,,,,
729106,95376.062500,281.92,3.768473,1.292868,0.248996,-5.398814,-0.153248,0.080881,286.88,4.03,521.62,69.45,-13.60,496.386108,1,1,0,1,0,,,,,,,,
729116,95372.453125,281.91,3.634398,1.695094,0.622492,-5.402007,-0.148991,0.087266,286.74,4.03,522.19,69.19,-13.58,496.694793,1,1,0,1,0,,,,,,,,
729126,95357.968750,281.92,3.567360,1.134851,0.493205,-5.400942,-0.156441,0.090459,286.69,4.03,522.92,69.10,-13.56,497.933654,1,1,0,1,0,,,,,,,,
729136,95354.359375,281.91,3.538630,1.680729,0.579396,-5.399878,-0.156441,0.093651,286.69,4.03,523.54,68.90,-13.54,498.242401,1,1,0,1,0,,,,,,,,
729146,95339.875000,281.92,3.485957,1.216254,0.248996,-5.394557,-0.163890,0.098972,286.88,4.03,524.32,68.85,-13.52,499.481445,1,1,0,1,0,,,,,,,,
729156,95318.171875,281.91,3.509899,1.374271,0.478840,-5.397750,-0.160697,0.100037,286.84,4.03,525.37,69.07,-13.50,501.338287,1,1,0,1,0,,,,,,,,
729166,95321.781250,281.92,3.529053,1.374271,0.512359,-5.384979,-0.162826,0.106422,286.84,4.04,526.07,68.95,-13.48,501.029479,1,1,0,1,0,,,,,,,,
729176,95336.265625,281.91,3.505111,1.154005,0.675164,-5.383914,-0.160697,0.106422,287.08,4.03,526.30,68.37,-13.46,499.790222,1,1,0,1,0,,,,,,,,
729186,95300.093750,281.91,3.442862,1.024718,0.531512,-5.371144,-0.168147,0.105358,286.74,4.04,527.23,68.48,-13.44,502.885284,1,1,0,1,0,,,,,,,,
729196,95300.093750,281.91,3.495534,0.799663,0.158017,-5.358373,-0.173468,0.096844,286.84,4.03,527.93,68.36,-13.43,502.885284,1,1,0,1,0,,,,,,,,
729206,95303.703125,281.92,3.294421,1.225831,0.713472,-5.346667,-0.166019,0.091523,286.59,4.03,528.38,68.00,-13.40,502.576385,1,1,0,1,0,,,,,,,,
729216,95282.000000,281.91,3.327940,1.000776,0.114921,-5.334960,-0.174532,0.087266,286.84,4.01,529.18,67.99,-13.37,504.433807,1,1,0,1,0,,,,,,,,
729226,95285.609375,281.92,3.375824,1.134851,0.569819,-5.320061,-0.167083,0.084073,286.59,4.01,529.70,67.70,-13.35,504.124908,1,1,0,1,0,,,,,,,,
729236,95285.609375,281.92,3.380612,1.177947,-0.239420,-5.305162,-0.160697,0.077688,286.88,4.00,530.09,67.29,-13.34,504.124908,1,1,0,1,0,,,,,,,,
729246,95282.000000,281.91,3.380612,1.307234,0.603338,-5.300905,-0.164954,0.077688,286.69,4.00,530.46,66.86,-13.32,504.433807,1,1,0,1,0,,,,,,,,
729256,95249.421875,281.92,3.337517,0.885854,0.383072,-5.290263,-0.159633,0.075559,286.84,4.00,531.43,67.02,-13.30,507.222625,1,1,0,1,0,,,,,,,,
729266,95245.812500,281.91,3.433285,1.273715,0.253785,-5.280685,-0.155376,0.073431,286.88,3.99,532.23,67.02,-13.30,507.531646,1,1,0,1,0,,,,,,,,
729276,95227.718750,281.91,3.380612,1.158793,0.162805,-5.280685,-0.156441,0.069174,286.59,4.00,533.22,67.20,-13.29,509.080902,1,1,0,1,0,,,,,,,,
729286,95245.812500,281.91,3.414131,1.460463,-0.028730,-5.281749,-0.153248,0.078752,286.74,4.00,533.58,66.76,-13.28,507.531646,1,1,0,1,0,,,,,,,,
729296,95213.234375,281.92,3.308786,0.833182,0.435744,-5.267914,-0.160697,0.077688,286.59,3.99,534.54,66.91,-13.26,510.321289,1,1,0,1,0,,,,,,,,
729306,95231.328125,281.92,3.423708,1.431732,0.196324,-5.256207,-0.150055,0.075559,286.69,3.98,534.88,66.46,-13.26,508.771820,1,1,0,1,0,,,,,,,,
729316,95209.625000,281.91,3.414131,1.364694,0.268150,-5.258336,-0.159633,0.085138,286.88,3.99,535.59,66.37,-13.26,510.630401,1,1,0,1,0,,,,,,,,
729326,95195.140625,281.92,3.332728,1.273715,0.158017,-5.255143,-0.154312,0.094716,286.84,3.99,536.43,66.42,-13.24,511.870971,1,1,0,1,0,,,,,,,,
729336,95191.546875,281.91,3.337517,1.393425,0.320823,-5.244502,-0.141541,0.091523,286.74,3.98,537.14,66.33,-13.24,512.178833,1,1,0,1,0,,,,,,,,
729346,95177.046875,281.92,3.193865,1.345541,-0.004788,-5.240244,-0.152184,0.088330,286.84,3.98,537.98,66.37,-13.21,513.420898,1,1,0,1,0,,,,,,,,
729356,95177.046875,281.92,3.251325,1.158793,0.560243,-5.239180,-0.140477,0.102165,286.69,3.98,538.62,66.21,-13.20,513.420898,1,1,0,1,0,,,,,,,,
729366,95158.968750,281.92,3.241749,1.522712,0.043095,-5.238116,-0.142606,0.107486,286.84,3.99,539.48,66.28,-13.18,514.969726,1,1,0,1,0,,,,,,,,
729376,95155.359375,281.91,3.213018,1.604115,0.368707,-5.245565,-0.138349,0.110679,286.93,3.99,540.20,66.20,-13.17,515.278991,1,1,0,1,0,,,,,,,,
729386,95158.968750,281.92,3.098096,1.249773,0.043095,-5.247694,-0.143670,0.119193,286.88,3.98,540.66,65.88,-13.14,514.969726,1,1,0,1,0,,,,,,,,
729396,95140.875000,281.92,3.155557,1.345541,0.541089,-5.241308,-0.134092,0.125578,286.84,3.98,541.40,65.83,-13.12,516.520141,1,1,0,1,0,,,,,,,,
729406,95137.265625,281.91,3.126827,1.537077,0.407014,-5.237051,-0.138349,0.128771,286.84,3.99,542.03,65.67,-13.11,516.829467,1,1,0,1,0,,,,,,,,
729416,95140.875000,281.92,3.313575,1.201889,0.407014,-5.243437,-0.146863,0.134092,286.59,4.01,542.42,65.28,-13.11,516.520141,1,1,0,1,0,,,,,,,,
729426,95122.781250,281.92,3.270479,1.393425,0.521935,-5.226409,-0.151119,0.137285,286.69,4.01,543.10,65.18,-13.10,518.070800,1,1,0,1,0,,,,,,,,
729436,95104.687500,281.92,3.222595,1.086967,0.057460,-5.207253,-0.155376,0.134092,286.69,4.02,543.99,65.28,-13.10,519.621704,1,1,0,1,0,,,,,,,,
729446,95101.093750,281.91,3.145981,1.283292,0.746990,-5.202997,-0.158569,0.134092,286.69,4.03,544.74,65.25,-13.08,519.929748,1,1,0,1,0,,,,,,,,
729456,95104.687500,281.92,3.145981,1.345541,0.474051,-5.187033,-0.166019,0.134092,286.84,4.03,545.23,64.96,-13.07,519.621704,1,1,0,1,0,,,,,,,,
729466,95104.687500,281.92,3.203441,0.814028,0.794874,-5.181712,-0.176661,0.134092,286.88,4.03,545.59,64.55,-13.06,519.621704,1,1,0,1,0,,,,,,,,
729476,95083.000000,281.91,3.136404,0.847547,0.387860,-5.166813,-0.181982,0.127707,286.69,4.03,546.32,64.50,-13.05,521.480895,1,1,0,1,0,,,,,,,,
729486,95068.500000,281.92,3.069366,0.962469,0.785298,-5.155107,-0.180918,0.121321,286.84,4.03,547.18,64.58,-13.03,522.724182,1,1,0,1,0,,,,,,,,
729496,95068.500000,281.92,3.055001,0.876277,0.411802,-5.138079,-0.189432,0.120257,286.84,4.03,547.83,64.45,-13.02,522.724182,1,1,0,1,0,,,,,,,,
729506,95050.406250,281.92,3.107673,0.809240,0.502782,-5.110409,-0.192624,0.107486,286.74,4.03,548.70,64.54,-13.01,524.275756,1,1,0,1,0,,,,,,,,
729516,95046.812500,281.91,3.160346,0.900219,0.296881,-5.095510,-0.196881,0.100037,286.88,4.03,549.43,64.50,-13.00,524.583984,1,1,0,1,0,,,,,,,,
729526,95050.406250,281.92,3.136404,0.905008,0.531512,-5.084867,-0.193688,0.096844,286.74,4.03,549.90,64.20,-13.00,524.275756,1,1,0,1,0,,,,,,,,
729536,95050.406250,281.92,3.078943,1.067813,0.330399,-5.073161,-0.204331,0.095780,286.84,4.03,550.25,63.79,-12.98,524.275756,1,1,0,1,0,,,,,,,,
729546,95028.718750,281.91,2.911349,0.656011,0.114921,-5.063583,-0.196881,0.087266,286.74,4.03,550.98,63.75,-12.96,526.135864,1,1,0,1,0,,,,,,,,
729556,95032.312500,281.92,2.906560,0.679953,0.742202,-5.046555,-0.203267,0.081945,286.54,4.03,551.44,63.46,-12.93,525.827636,1,1,0,1,0,,,,,,,,
729566,95014.234375,281.92,2.959233,0.852335,0.038307,-5.030592,-0.201138,0.076624,286.74,4.03,552.18,63.43,-12.92,527.378356,1,1,0,1,0,,,,,,,,
729576,94992.546875,281.91,2.949656,0.708683,0.363918,-5.021014,-0.202202,0.064917,286.84,4.03,553.19,63.67,-12.90,529.239013,1,1,0,1,0,,,,,,,,
729586,94996.140625,281.92,2.868253,0.660799,0.162805,-5.003986,-0.194753,0.054275,286.69,4.03,553.88,63.59,-12.88,528.930664,1,1,0,1,0,,,,,,,,
729596,94992.546875,281.91,2.944868,0.684741,0.373495,-4.993344,-0.189432,0.048954,286.69,4.03,554.47,63.42,-12.87,529.239013,1,1,0,1,0,,,,,,,,
729606,94978.046875,281.92,2.954444,0.584185,-0.028730,-4.972060,-0.190496,0.040440,286.59,4.03,555.23,63.41,-12.86,530.483276,1,1,0,1,0,,,,,,,,
729616,94974.453125,281.91,2.992752,1.053448,0.426167,-4.962481,-0.178789,0.037247,286.93,4.01,555.87,63.29,-12.85,530.791625,1,1,0,1,0,,,,,,,,
729626,94978.046875,281.92,3.040636,0.632069,0.306457,-4.951839,-0.186239,0.036183,286.88,4.00,556.27,62.94,-12.85,530.483276,1,1,0,1,0,,,,,,,,
729636,94959.953125,281.92,3.040636,1.201889,0.225054,-4.939069,-0.179854,0.037247,286.88,4.00,556.96,62.87,-12.85,532.036071,1,1,0,1,0,,,,,,,,
729646,94959.953125,281.92,2.906560,0.641646,-0.110133,-4.925234,-0.171340,0.025541,286.74,4.00,557.48,62.63,-12.84,532.036071,1,1,0,1,0,,,,,,,,
729656,94941.859375,281.92,2.920926,1.029506,0.411802,-4.912463,-0.168147,0.019156,286.88,4.00,558.25,62.65,-12.83,533.589111,1,1,0,1,0,,,,,,,,
729666,94938.265625,281.91,2.858676,0.627280,-0.148440,-4.906077,-0.164954,0.012770,286.74,4.00,558.91,62.55,-12.81,533.897583,1,1,0,1,0,,,,,,,,
729676,94959.953125,281.92,2.873042,1.067813,0.565031,-4.895435,-0.158569,0.013834,286.59,3.99,558.94,61.85,-12.80,532.036071,1,1,0,1,0,,,,,,,,
729686,94920.171875,281.91,2.801215,0.699106,-0.158017,-4.892242,-0.151119,0.007449,286.88,3.99,559.80,61.96,-12.78,535.450927,1,1,0,1,0,,,,,,,,
729696,94923.765625,281.92,2.786850,1.307234,0.335188,-4.886921,-0.151119,0.010642,286.69,3.99,560.38,61.79,-12.76,535.142395,1,1,0,1,0,,,,,,,,
729706,94902.078125,281.91,2.892195,0.675164,0.162805,-4.875215,-0.147927,0.009578,286.74,3.99,561.27,61.94,-12.75,537.004455,1,1,0,1,0,,,,,,,,
729716,94905.671875,281.92,2.868253,1.383848,0.387860,-4.874151,-0.138349,0.011706,286.84,3.99,561.87,61.79,-12.75,536.695861,1,1,0,1,0,,,,,,,,
729726,94884.000000,281.91,2.858676,1.039083,0.167594,-4.881600,-0.138349,0.015963,286.74,3.99,562.78,61.94,-12.74,538.556945,1,1,0,1,0,,,,,,,,
729736,94884.000000,281.91,2.786850,1.221042,0.330399,-4.881600,-0.138349,0.023412,286.69,3.99,563.46,61.88,-12.73,538.556945,1,1,0,1,0,,,,,,,,
729746,94884.000000,281.91,2.853888,0.933738,0.349553,-4.876279,-0.131963,0.027669,286.84,3.99,563.98,61.65,-12.72,538.556945,1,1,0,1,0,,,,,,,,
729756,94887.593750,281.92,2.944868,1.522712,0.272938,-4.868830,-0.134092,0.030862,286.74,3.99,564.28,61.22,-12.72,538.248291,1,1,0,1,0,,,,,,,,
729766,94869.500000,281.92,2.806004,1.110909,0.407014,-4.872023,-0.134092,0.040440,286.54,3.99,564.90,61.10,-12.71,539.802307,1,1,0,1,0,,,,,,,,
729776,94851.406250,281.92,2.820369,1.154005,0.579396,-4.857123,-0.136220,0.045761,286.54,3.98,565.75,61.20,-12.70,541.356567,1,1,0,1,0,,,,,,,,
729786,94851.406250,281.92,2.734178,1.278503,0.407014,-4.853931,-0.135156,0.043633,286.88,3.99,566.38,61.10,-12.69,541.356567,1,1,0,1,0,,,,,,,,
729796,94851.406250,281.92,2.671929,0.871489,0.387860,-4.845417,-0.138349,0.044697,286.74,3.99,566.86,60.85,-12.67,541.356567,1,1,0,1,0,,,,,,,,
729806,94847.812500,281.91,2.734178,1.489193,0.287304,-4.846481,-0.141541,0.057468,286.88,3.98,567.29,60.56,-12.65,541.665283,1,1,0,1,0,,,,,,,,
729816,94833.312500,281.92,2.652775,0.885854,0.584185,-4.847545,-0.140477,0.060660,286.69,4.00,567.93,60.46,-12.63,542.911010,1,1,0,1,0,,,,,,,,
729826,94833.312500,281.92,2.705447,1.283292,0.368707,-4.843288,-0.144734,0.062789,286.69,4.01,568.40,60.21,-12.62,542.911010,1,1,0,1,0,,,,,,,,
729836,94829.718750,281.91,2.738966,1.000776,0.603338,-4.836903,-0.143670,0.067046,286.84,4.02,568.84,59.92,-12.61,543.219787,1,1,0,1,0,,,,,,,,
729846,94815.218750,281.92,2.738966,0.986411,0.541089,-4.828390,-0.148991,0.069174,286.54,4.02,569.47,59.83,-12.61,544.465759,1,1,0,1,0,,,,,,,,
729856,94815.218750,281.92,2.628833,1.173158,0.469263,-4.827325,-0.147927,0.073431,286.69,4.02,569.94,59.58,-12.59,544.465759,1,1,0,1,0,,,,,,,,
729866,94797.125000,281.92,2.743755,0.852335,0.636857,-4.820940,-0.162826,0.072367,286.84,4.03,570.68,59.60,-12.59,546.020690,1,1,0,1,0,,,,,,,,
729876,94779.031250,281.92,2.633621,0.900219,0.732625,-4.815618,-0.159633,0.070238,286.84,4.03,571.63,59.81,-12.57,547.575927,1,1,0,1,0,,,,,,,,
729886,94797.125000,281.92,2.624045,0.742202,0.383072,-4.801784,-0.170276,0.071303,286.59,4.03,571.95,59.42,-12.56,546.020690,1,1,0,1,0,,,,,,,,
729896,94775.453125,281.91,2.647987,1.015141,0.627280,-4.787949,-0.166019,0.069174,286.54,4.03,572.66,59.40,-12.55,547.883483,1,1,0,1,0,,,,,,,,
729906,94779.031250,281.92,2.676717,0.814028,0.220266,-4.777306,-0.173468,0.068110,286.88,4.03,573.11,59.14,-12.54,547.575927,1,1,0,1,0,,,,,,,,
729916,94760.937500,281.92,2.638410,0.541089,0.612915,-4.763472,-0.173468,0.063853,286.74,4.03,573.83,59.15,-12.53,549.131347,1,1,0,1,0,,,,,,,,
729926,94757.359375,281.91,2.600102,0.909796,0.464475,-4.758150,-0.179854,0.060660,286.59,4.03,574.45,59.05,-12.52,549.438964,1,1,0,1,0,,,,,,,,
729936,94760.937500,281.92,2.619256,0.541089,0.445321,-4.734737,-0.183046,0.053211,286.84,4.03,574.84,58.73,-12.51,549.131347,1,1,0,1,0,,,,,,,,
729946,94724.765625,281.92,2.552218,0.780509,0.363918,-4.723031,-0.179854,0.051082,286.84,4.03,575.91,59.07,-12.50,552.241577,1,1,0,1,0,,,,,,,,
729956,94742.859375,281.92,2.585737,0.588973,0.296881,-4.714517,-0.184110,0.043633,286.88,4.03,576.32,58.78,-12.49,550.685668,1,1,0,1,0,,,,,,,,
729966,94724.765625,281.92,2.537853,0.584185,0.593762,-4.702811,-0.185175,0.038312,286.74,4.03,577.02,58.76,-12.47,552.241577,1,1,0,1,0,,,,,,,,
729976,94724.765625,281.92,2.542642,0.565031,0.081402,-4.676205,-0.190496,0.028734,286.69,4.03,577.54,58.57,-12.46,552.241577,1,1,0,1,0,,,,,,,,
729986,94742.859375,281.92,2.513911,0.598550,0.603338,-4.665563,-0.184110,0.024477,286.88,4.03,577.54,57.88,-12.44,550.685668,1,1,0,1,0,,,,,,,,
729996,94706.671875,281.92,2.427720,0.373495,0.067037,-4.653856,-0.183046,0.014899,286.69,4.03,578.32,57.95,-12.42,553.797729,1,1,0,1,0,,,,,,,,
730006,94703.078125,281.91,2.489969,0.493205,0.220266,-4.631507,-0.183046,0.004256,286.74,4.03,578.97,57.90,-12.41,554.106872,1,1,0,1,0,,,,,,,,
730016,94688.578125,281.92,2.614468,0.646434,0.272938,-4.611288,-0.183046,0.001064,286.84,4.01,579.78,58.00,-12.41,555.354187,1,1,0,1,0,,,,,,,,
730026,94685.000000,281.91,2.513911,0.823605,-0.076614,-4.597452,-0.170276,-0.006385,286.84,4.01,580.46,57.97,-12.40,555.661987,1,1,0,1,0,,,,,,,,
730036,94688.578125,281.92,2.485181,0.440533,0.330399,-4.591067,-0.171340,-0.017027,286.84,4.00,580.89,57.71,-12.39,555.354187,1,1,0,1,0,,,,,,,,
730046,94670.484375,281.92,2.379836,0.497993,0.028730,-4.582553,-0.160697,-0.017027,286.84,4.00,581.61,57.72,-12.37,556.910827,1,1,0,1,0,,,,,,,,
730056,94685.000000,281.91,2.523488,0.761356,0.363918,-4.569783,-0.158569,-0.020220,286.84,4.00,581.83,57.25,-12.37,555.661987,1,1,0,1,0,,,,,,,,
730066,94652.390625,281.92,2.384624,0.459686,-0.181959,-4.555947,-0.144734,-0.027669,286.74,4.00,582.69,57.41,-12.35,558.467712,1,1,0,1,0,,,,,,,,
730076,94652.390625,281.92,2.446874,0.670376,0.229843,-4.555947,-0.143670,-0.026605,286.69,4.00,583.34,57.37,-12.34,558.467712,1,1,0,1,0,,,,,,,,
730086,94634.296875,281.92,2.437297,0.497993,0.086191,-4.542112,-0.138349,-0.031926,286.74,4.00,584.22,57.54,-12.33,560.024841,1,1,0,1,0,,,,,,,,
730096,94634.296875,281.92,2.418143,0.799663,0.062249,-4.526149,-0.128771,-0.035119,286.74,3.99,584.88,57.50,-12.32,560.024841,1,1,0,1,0,,,,,,,,
730106,94634.296875,281.92,2.418143,0.565031,0.014365,-4.525085,-0.122385,-0.040440,286.69,3.99,585.37,57.30,-12.31,560.024841,1,1,0,1,0,,,,,,,,
730116,94634.296875,281.92,2.432508,0.919373,0.076614,-4.515507,-0.119193,-0.037247,286.84,3.99,585.74,56.98,-12.30,560.024841,1,1,0,1,0,,,,,,,,
730126,94616.203125,281.92,2.418143,0.823605,-0.229843,-4.505929,-0.105358,-0.036183,286.69,3.99,586.40,56.94,-12.30,561.582153,1,1,0,1,0,,,,,,,,
730136,94616.203125,281.92,2.398990,1.149216,0.363918,-4.508058,-0.097908,-0.029798,286.74,3.99,586.90,56.75,-12.29,561.582153,1,1,0,1,0,,,,,,,,
730146,94616.203125,281.92,2.389413,0.914585,-0.196324,-4.510186,-0.095780,-0.019156,286.88,3.99,587.27,56.44,-12.28,561.582153,1,1,0,1,0,,,,,,,,
730156,94598.125000,281.92,2.384624,1.086967,0.378283,-4.511250,-0.091523,-0.010642,286.69,3.99,587.94,56.42,-12.27,563.138427,1,1,0,1,0,,,,,,,,
730166,94594.531250,281.91,2.389413,0.694318,-0.052672,-4.508058,-0.083009,-0.003192,286.69,3.98,588.51,56.31,-12.26,563.447814,1,1,0,1,0,,,,,,,,
730176,94598.125000,281.92,2.308010,0.957680,0.215478,-4.506993,-0.084073,-0.003192,286.84,3.99,588.87,55.98,-12.25,563.138427,1,1,0,1,0,,,,,,,,
730186,94561.937500,281.92,2.312798,1.015141,0.258573,-4.500607,-0.085138,0.010642,286.84,3.98,589.91,56.33,-12.24,566.254394,1,1,0,1,0,,,,,,,,
730196,94580.031250,281.92,2.336740,0.746990,0.253785,-4.497415,-0.075559,0.013834,286.74,3.98,590.30,56.05,-12.23,564.696289,1,1,0,1,0,,,,,,,,
730206,94561.937500,281.92,2.298433,0.924161,0.430956,-4.489965,-0.079816,0.010642,286.84,3.98,590.99,56.04,-12.21,566.254394,1,1,0,1,0,,,,,,,,
730216,94561.937500,281.92,2.384624,0.785298,-0.129286,-4.497415,-0.076624,0.018091,286.88,4.01,591.50,55.88,-12.21,566.254394,1,1,0,1,0,,,,,,,,
730226,94543.843750,281.92,2.298433,0.957680,0.373495,-4.488901,-0.076624,0.022348,286.84,4.01,592.27,55.96,-12.20,567.812744,1,1,0,1,0,,,,,,,,
730236,94558.359375,281.91,2.317587,0.981622,-0.014365,-4.487837,-0.071303,0.030862,286.59,4.02,592.54,55.56,-12.19,566.562561,1,1,0,1,0,,,,,,,,
730246,94543.843750,281.92,2.370259,0.905008,0.344765,-4.487837,-0.072367,0.040440,286.88,4.03,593.05,55.39,-12.19,567.812744,1,1,0,1,0,,,,,,,,
730256,94543.843750,281.92,2.346317,0.962469,0.033518,-4.481452,-0.070238,0.040440,286.84,4.02,593.43,55.11,-12.19,567.812744,1,1,0,1,0,,,,,,,,
730266,94522.171875,281.91,2.279279,0.890643,0.430956,-4.472938,-0.073431,0.046825,286.74,4.03,594.18,55.18,-12.18,569.679504,1,1,0,1,0,,,,,,,,
730276,94525.750000,281.92,2.255337,0.809240,0.507570,-4.463360,-0.077688,0.050018,286.59,4.03,594.67,55.00,-12.17,569.371276,1,1,0,1,0,,,,,,,,
730286,94525.750000,281.92,2.245761,0.847547,0.268150,-4.456974,-0.081945,0.051082,286.69,4.03,595.03,54.69,-12.15,569.371276,1,1,0,1,0,,,,,,,,
730296,94507.656250,281.92,2.250549,0.842759,0.258573,-4.446332,-0.078752,0.055339,286.74,4.03,595.69,54.68,-12.14,570.930114,1,1,0,1,0,,,,,,,,
730306,94507.656250,281.92,2.298433,0.852335,0.368707,-4.434626,-0.081945,0.056403,286.84,4.03,596.19,54.51,-12.14,570.930114,1,1,0,1,0,,,,,,,,
730316,94489.562500,281.92,2.236184,0.957680,0.411802,-4.428240,-0.084073,0.060660,286.54,4.03,596.95,54.60,-12.13,572.489135,1,1,0,1,0,,,,,,,,
730326,94471.484375,281.92,2.260126,0.842759,0.306457,-4.416534,-0.090459,0.062789,286.69,4.03,597.91,54.88,-12.13,574.047119,1,1,0,1,0,,,,,,,,
730336,94489.562500,281.92,2.183511,0.598550,0.627280,-4.401635,-0.091523,0.063853,286.88,4.03,598.24,54.55,-12.11,572.489135,1,1,0,1,0,,,,,,,,
730346,94471.484375,281.92,2.197877,0.909796,0.191536,-4.397378,-0.093651,0.069174,286.74,4.03,598.88,54.52,-12.10,574.047119,1,1,0,1,0,,,,,,,,
730356,94449.812500,281.91,2.154781,0.636857,0.588973,-4.398442,-0.098972,0.071303,286.74,4.03,599.82,54.79,-12.09,575.915100,1,1,0,1,0,,,,,,,,
730366,94471.484375,281.92,2.202665,0.780509,0.454898,-4.394185,-0.100037,0.074495,286.84,4.03,600.06,54.37,-12.08,574.047119,1,1,0,1,0,,,,,,,,
730376,94453.390625,281.92,2.202665,0.512359,0.354341,-4.385671,-0.103229,0.074495,286.84,4.03,600.63,54.28,-12.07,575.606628,1,1,0,1,0,,,,,,,,
730386,94453.390625,281.92,2.140416,0.861912,0.440533,-4.375029,-0.107486,0.073431,286.84,4.03,601.06,54.05,-12.06,575.606628,1,1,0,1,0,,,,,,,,
730396,94435.296875,281.92,2.169146,0.632069,0.541089,-4.362258,-0.110679,0.070238,286.69,4.03,601.77,54.09,-12.05,577.166442,1,1,0,1,0,,,,,,,,
730406,94435.296875,281.92,2.154781,0.842759,0.359130,-4.346295,-0.120257,0.064917,286.74,4.03,602.30,53.96,-12.04,577.166442,1,1,0,1,0,,,,,,,,
730416,94435.296875,281.92,2.102108,0.646434,0.301669,-4.342038,-0.114936,0.068110,286.93,4.01,602.70,53.70,-12.03,577.166442,1,1,0,1,0,,,,,,,,
730426,94417.203125,281.92,2.068590,0.651222,0.550666,-4.335653,-0.122385,0.064917,286.54,4.00,603.38,53.73,-12.01,578.726440,1,1,0,1,0,,,,,,,,
730436,94417.203125,281.92,2.044648,0.699106,0.282515,-4.325011,-0.125578,0.069174,286.74,4.00,603.90,53.59,-12.00,578.726440,1,1,0,1,0,,,,,,,,
730446,94417.203125,281.92,2.154781,0.790086,0.435744,-4.315433,-0.127707,0.063853,286.69,3.99,604.28,53.32,-11.99,578.726440,1,1,0,1,0,,,,,,,,
730456,94395.531250,281.91,2.116474,0.679953,0.263362,-4.312240,-0.133028,0.067046,286.88,4.00,605.04,53.42,-11.99,580.595275,1,1,0,1,0,,,,,,,,
730466,94399.109375,281.92,2.015917,0.723048,0.440533,-4.311176,-0.129835,0.072367,286.69,3.99,605.52,53.26,-11.97,580.286743,1,1,0,1,0,,,,,,,,
730476,94395.531250,281.91,2.068590,0.727837,0.129286,-4.298405,-0.138349,0.071303,286.74,4.00,605.97,53.05,-11.96,580.595275,1,1,0,1,0,,,,,,,,
730486,94399.109375,281.92,2.035071,0.751779,0.004788,-4.292020,-0.134092,0.067046,286.88,3.99,606.22,52.67,-11.95,580.286743,1,1,0,1,0,,,,,,,,
730496,94395.531250,281.91,2.121262,0.718260,0.320823,-4.290956,-0.140477,0.072367,286.69,3.99,606.49,52.29,-11.94,580.595275,1,1,0,1,0,,,,,,,,
730506,94359.359375,281.91,2.020706,0.799663,0.282515,-4.279249,-0.139413,0.072367,286.59,3.99,607.46,52.61,-11.94,583.715332,1,1,0,1,0,,,,,,,,
730516,94362.921875,281.92,2.030282,0.861912,0.306457,-4.266478,-0.141541,0.072367,286.69,3.99,608.12,52.62,-11.93,583.407958,1,1,0,1,0,,,,,,,,
730526,94381.015625,281.92,2.054224,0.732625,0.052672,-4.268607,-0.136220,0.069174,286.74,3.99,608.22,52.09,-11.92,581.847229,1,1,0,1,0,,,,,,,,
730536,94344.828125,281.92,2.097320,0.699106,0.052672,-4.262221,-0.142606,0.072367,286.84,3.99,609.07,52.30,-11.92,584.968994,1,1,0,1,0,,,,,,,,
730546,94344.828125,281.92,2.049436,0.780509,0.181959,-4.251579,-0.141541,0.072367,286.84,3.98,609.71,52.29,-11.91,584.968994,1,1,0,1,0,,,,,,,,
730556,94344.828125,281.92,1.987187,0.770932,0.349553,-4.245194,-0.140477,0.071303,286.84,3.98,610.20,52.14,-11.90,584.968994,1,1,0,1,0,,,,,,,,
730566,94326.750000,281.92,2.015917,0.632069,0.167594,-4.237744,-0.140477,0.071303,286.69,3.98,610.95,52.24,-11.89,586.528869,1,1,0,1,0,,,,,,,,
730576,94326.750000,281.92,2.006340,0.670376,0.205901,-4.232423,-0.147927,0.072367,286.74,3.98,611.51,52.16,-11.88,586.528869,1,1,0,1,0,,,,,,,,
730586,94326.750000,281.92,1.968033,0.785298,0.234631,-4.227102,-0.138349,0.072367,286.54,3.98,611.93,51.95,-11.87,586.528869,1,1,0,1,0,,,,,,,,
730596,94323.171875,281.91,1.924938,0.761356,0.148440,-4.229230,-0.148991,0.070238,286.88,3.99,612.32,51.71,-11.86,586.837646,1,1,0,1,0,,,,,,,,
730606,94308.656250,281.92,1.934514,0.852335,0.095768,-4.219652,-0.145798,0.076624,286.84,3.98,612.93,51.67,-11.85,588.090332,1,1,0,1,0,,,,,,,,
730616,94308.656250,281.92,1.963245,0.981622,0.263362,-4.224974,-0.143670,0.077688,286.69,4.01,613.38,51.50,-11.84,588.090332,1,1,0,1,0,,,,,,,,
730626,94308.656250,281.92,1.948880,0.474051,0.057460,-4.217524,-0.144734,0.076624,286.88,4.02,613.72,51.21,-11.83,588.090332,1,1,0,1,0,,,,,,,,
730636,94290.562500,281.92,1.900996,0.914585,0.019153,-4.214331,-0.141541,0.077688,286.74,4.02,614.36,51.22,-11.82,589.652038,1,1,0,1,0,,,,,,,,
730646,94308.656250,281.92,1.929726,0.536301,0.205901,-4.210074,-0.144734,0.081945,286.69,4.02,614.46,50.69,-11.81,588.090332,1,1,0,1,0,,,,,,,,
730656,94272.468750,281.92,1.896207,0.837970,0.153228,-4.207946,-0.144734,0.084073,286.69,4.03,615.30,50.90,-11.80,591.213989,1,1,0,1,0,,,,,,,,
730666,94272.468750,281.92,1.900996,0.531512,0.014365,-4.203689,-0.143670,0.083009,286.69,4.03,615.94,50.91,-11.79,591.213989,1,1,0,1,0,,,,,,,,
730676,94272.468750,281.92,1.881842,0.914585,0.057460,-4.197304,-0.143670,0.080881,286.69,4.03,616.41,50.76,-11.78,591.213989,1,1,0,1,0,,,,,,,,
