,packetType,timestamp_s,timestamp_ms,imu1_accel_x,imu1_accel_y,imu1_accel_z,imu1_gyro_x,imu1_gyro_y,imu1_gyro_z,imu1_mag_x,imu1_mag_y,imu1_mag_z,imu2_accel_x,imu2_accel_y,imu2_accel_z,imu2_gyro_x,imu2_gyro_y,imu2_gyro_z,imu2_mag_x,imu2_mag_y,imu2_mag_z,high_g_accel_x,high_g_accel_y,high_g_accel_z,baro1_temp,baro1_pres,baro2_temp,baro2_pres,gps_lat,gps_long,gps_alt,battery_voltage,pyro_cont,pyro_status,heading,vtg,pos_x,pos_y,pos_z,vel_x,vel_y,vel_z,acc_x,acc_y,acc_z,q_x,q_y,q_z,q_w,state,gps_lat_mod,gps_long_mod,imu1_accel_x_real,imu1_accel_y_real,imu1_accel_z_real,imu2_accel_x_real,imu2_accel_y_real,imu2_accel_z_real,imu1_gyro_x_real,imu1_gyro_y_real,imu1_gyro_z_real,imu2_gyro_x_real,imu2_gyro_y_real,imu2_gyro_z_real,imu1_mag_x_real,imu1_mag_y_real,imu1_mag_z_real,imu2_mag_x_real,imu2_mag_y_real,imu2_mag_z_real,imu_accel_x_avg,imu_accel_y_avg,imu_accel_z_avg,imu_gyro_x_avg,imu_gyro_y_avg,imu_gyro_z_avg,imu_mag_x_avg,imu_mag_y_avg,imu_mag_z_avg,high_g_accel_x_real,high_g_accel_y_real,high_g_accel_z_real,baro_pres_avg,baro_temp_avg
4900,0,528679,0,-235,1312,-1,-100,158,65,-1275,-2320,-2787,-230,1316,-38,17,18,-16,-786,-506,-919,-80,32,368,42.33,1.0058820626696274,46.55,1.006720947446336,4449.4833984375,-7309.8779296875,34.20000076293945,11.9654541015625,3,0,0.0,0.0,0.0,0.0,-0.2432494556746108,0.0,0.0,-0.4289787982401269,0.1399801220999999,1.6689937634999998,9.4325066892,0.5060240030288696,-0.4819437563419342,0.4242627024650574,0.5759089589118958,6,44.82472330729167,-73.16463216145833,-1.6869399330000001,9.4181497536,-0.0071784678,-1.651047594,9.4468636248,-0.2727817764,-0.0305432618,0.048258353643999996,0.01985312017,0.005192354505999999,0.005497787124,-0.004886921888,-0.7395,-1.3456,-1.61646,-0.45588,-0.29348,-0.53302,-1.6689937635,9.4325066892,-0.1399801221,-0.012675453647,0.026878070384,0.007483099141,-0.59769,-0.8195399999999999,-1.07474,-2.3536,0.94144,10.82656,1.0063015050579818,44.44
4901,0,528785,0,-230,1311,-6,-104,166,54,-1279,-2314,-2784,-220,1315,-47,7,30,-17,-786,-506,-919,-128,144,368,42.33,1.0060004934616331,46.55,1.0068097705403405,4449.4833984375,-7309.8779296875,34.20000076293945,11.9654541015625,3,0,0.0,0.0,0.0,0.0,-0.2673088794453835,0.0,0.0,-0.4488443642980034,0.1902293967,1.615155255,9.4253282214,0.5060109496116638,-0.4817723035812378,0.4244922995567322,0.5758947730064392,6,44.82472330729167,-73.16463216145833,-1.651047594,9.4109712858,-0.0430708068,-1.579262916,9.439685157,-0.3373879866,-0.031764992272,0.050701814587999994,0.016493361372,0.0021380283259999997,0.00916297854,-0.005192354505999999,-0.74182,-1.34212,-1.61472,-0.45588,-0.29348,-0.53302,-1.615155255,9.425328221400001,-0.1902293967,-0.014813481973,0.029932396563999996,0.005650503433,-0.59885,-0.8178,-1.0738699999999999,-3.76576,4.23648,10.82656,1.0064051320009868,44.44
4902,0,528890,0,-233,1309,-11,-110,167,62,-1279,-2314,-2784,-223,1316,-49,15,31,-11,-794,-535,-933,-128,0,336,42.35,1.0060893165556375,46.56,1.006790032075006,4449.4833984375,-7309.8779296875,34.20000076293945,11.9654541015625,3,0,0.0,0.0,0.0,0.0,-0.300890593605445,0.0,0.0,-0.4758417168618153,0.2153540339999999,1.6366906584,9.4217389875,0.5060582160949707,-0.4815815389156341,0.4246550500392914,0.5758926868438721,6,44.82472330729167,-73.16463216145833,-1.6725829974000002,9.3966143502,-0.07896314580000001,-1.6007983194000002,9.4468636248,-0.35174492220000003,-0.033597587979999996,0.051007247206,0.018936822316,0.00458148927,0.009468411158,-0.003359758798,-0.74182,-1.34212,-1.61472,-0.46052,-0.3103,-0.54114,-1.6366906584,9.4217389875,-0.21535403400000003,-0.014508049354999998,0.030237829182,0.007788531759,-0.60117,-0.82621,-1.0779299999999998,-3.76576,0.0,9.88512,1.0064396743153217,44.455
4903,0,528996,0,-234,1305,-13,-91,158,63,-1295,-2300,-2742,-225,1310,-46,24,27,-14,-794,-535,-933,-96,96,400,42.34,1.0060301011596349,46.56,1.0066814705156677,4449.4833984375,-7309.8779296875,34.20000076293945,11.9654541015625,3,0,0.0,0.0,0.0,0.0,-0.3165162947506324,0.0,0.0,-0.4785779569367441,0.2117648000999999,1.6474583601,9.3858466485,0.5061104893684387,-0.4814999401569366,0.4246431887149811,0.5759238600730896,6,44.82472330729167,-73.16463216145833,-1.6797614652000001,9.367900479000001,-0.0933200814,-1.6151552550000001,9.403792818000001,-0.3302095188,-0.027794368237999998,0.048258353643999996,0.019242254934,0.007330382832,0.008246680686,-0.004276056651999999,-0.7511,-1.334,-1.59036,-0.46052,-0.3103,-0.54114,-1.6474583601000001,9.385846648500001,-0.21176480009999998,-0.010231992702999999,0.028252517164999998,0.007483099141,-0.60581,-0.82215,-1.06575,-2.82432,2.82432,11.768,1.0063557858376513,44.45
4904,0,529101,0,-235,1309,3,-89,163,58,-1295,-2300,-2742,-229,1316,-32,25,20,-14,-796,-496,-955,-80,112,416,42.34,1.0057833703429555,46.54,1.0067406859116703,4449.4833984375,-7309.8779296875,34.20000076293945,11.9981689453125,3,0,0.0,0.0,0.0,0.0,-0.3513206230661866,0.0,0.0,-0.5006509273921386,0.1040877831,1.6654045296,9.4217389875,0.5061211585998535,-0.4824650287628174,0.4243345558643341,0.5753338932991028,6,44.82472330729167,-73.16463216145833,-1.6869399330000001,9.3966143502,0.0215354034,-1.6438691262,9.4468636248,-0.2297109696,-0.027183503002,0.049785516733999995,0.017715091844,0.00763581545,0.0061086523599999994,-0.004276056651999999,-0.7511,-1.334,-1.59036,-0.46168,-0.28768,-0.5539,-1.6654045296,9.4217389875,-0.1040877831,-0.009773843776,0.027947084546999998,0.006719517596000001,-0.60639,-0.81084,-1.07213,-2.3536,3.29504,12.23872,1.006262028127313,44.44
4905,0,529207,0,-234,1311,2,-112,160,51,-1273,-2293,-2758,-228,1312,-32,8,22,-19,-796,-496,-955,-64,32,448,42.34,1.005852454971626,46.56,1.0066716012830002,4449.4833984375,-7309.8779296875,34.20000076293945,11.9654541015625,3,0,0.0,0.0,0.0,0.0,-0.3351130530474058,0.0,0.0,-0.4696546677764741,0.1076770169999999,1.6582260617999998,9.4145605197,0.5060938596725464,-0.4824458956718445,0.4244090020656585,0.5753189921379089,6,44.82472330729167,-73.16463216145833,-1.6797614652000001,9.4109712858,0.0143569356,-1.6366906584,9.4181497536,-0.2297109696,-0.034208453215999995,0.048869218879999995,0.015577063518,0.002443460944,0.006719517596,-0.005803219742,-0.73834,-1.32994,-1.59964,-0.46168,-0.28768,-0.5539,-1.6582260618000002,9.4145605197,-0.107677017,-0.015882496136,0.027794368237999998,0.004886921888,-0.6000099999999999,-0.8088099999999999,-1.07677,-1.88288,0.94144,13.18016,1.006262028127313,44.45
4906,0,529312,0,-228,1310,-13,-112,165,61,-1273,-2293,-2758,-216,1316,-43,12,38,-16,-755,-515,-938,-160,64,464,42.34,1.005901801134962,46.54,1.0067406859116703,4449.4833984375,-7309.8779296875,34.20000076293945,11.9654541015625,3,0,0.0,0.0,0.0,0.0,-0.2521050603232107,0.0,0.0,-0.3752355676528431,0.2009970983999999,1.5936198515999995,9.4253282214,0.5060557126998901,-0.4822712242603302,0.4246355593204498,0.5753318667411804,6,44.82472330729167,-73.16463216145833,-1.6366906584,9.403792818000001,-0.0933200814,-1.5505490448,9.4468636248,-0.3086741154,-0.034208453215999995,0.050396381969999994,0.018631389698,0.003665191416,0.011606439484,-0.004886921888,-0.73834,-1.32994,-1.59964,-0.4379,-0.2987,-0.54404,-1.5936198516000002,9.425328221400001,-0.20099709840000002,-0.015271630899999998,0.031001410726999995,0.0068722339050000004,-0.58812,-0.8143199999999999,-1.07184,-4.7072,1.88288,13.65088,1.0063212435233162,44.44
4907,0,529417,0,-227,1309,-16,-88,154,67,-1272,-2293,-2786,-219,1316,-48,31,21,-6,-755,-515,-938,-16,48,416,42.34,1.005911670367629,46.54,1.0067308166790032,4449.4833984375,-7309.8779296875,34.20000076293945,11.9981689453125,3,0,0.0,0.0,0.0,0.0,-0.2286914694659982,0.0,0.0,-0.3502655172313151,0.2297109695999999,1.6007983194,9.4217389875,0.5061414837837219,-0.4821345210075378,0.4246741235256195,0.5753424167633057,6,44.82472330729167,-73.16463216145833,-1.6295121906,9.3966143502,-0.1148554848,-1.5720844482,9.4468636248,-0.3445664544,-0.026878070384,0.047036623172,0.020463985405999998,0.009468411158,0.006414084978,-0.001832595708,-0.73776,-1.32994,-1.61588,-0.4379,-0.2987,-0.54404,-1.6007983194,9.4217389875,-0.2297109696,-0.008704829612999999,0.026725354075,0.009315694848999998,-0.58783,-0.8143199999999999,-1.07996,-0.47072,1.41216,12.23872,1.006321243523316,44.44
4908,0,529523,0,-238,1308,0,-78,145,56,-1272,-2293,-2786,-230,1313,-34,33,13,-5,-780,-526,-945,-64,112,336,42.35,1.0058820626696274,46.54,1.0067308166790032,4449.4833984375,-7309.8779296875,34.20000076293945,11.9654541015625,3,0,0.0,0.0,0.0,0.0,-0.2557289852669823,0.0,0.0,-0.3762155667557576,0.1220339526,1.6797614652,9.4073820519,0.5061825513839722,-0.4821422100067138,0.4245171844959259,0.575415849685669,6,44.82472330729167,-73.16463216145833,-1.7084753364,9.3894358824,0.0,-1.651047594,9.425328221400001,-0.24406790520000002,-0.023823744204,0.04428772961,0.017104226607999998,0.010079276394,0.003970624034,-0.0015271630899999999,-0.73776,-1.32994,-1.61588,-0.4524,-0.30508,-0.5481,-1.6797614652,9.4073820519,-0.12203395260000001,-0.006872233905,0.024129176821999998,0.007788531758999999,-0.59508,-0.81751,-1.08199,-1.88288,3.29504,9.88512,1.0063064396743153,44.445
4909,0,529628,0,-232,1308,2,-99,165,49,-1288,-2322,-2784,-226,1318,-26,11,15,-20,-780,-526,-945,-96,112,448,42.35,1.006039970392302,46.57,1.0065827781889958,4449.4833984375,-7309.8779296875,34.20000076293945,11.9818115234375,3,0,0.0,0.0,0.0,0.0,-0.2315526904530191,0.0,0.0,-0.3516664255904478,0.0861416135999999,1.6438691261999998,9.4253282214,0.5061193704605103,-0.4821879267692566,0.4245152771472931,0.5754343867301941,6,44.82472330729167,-73.16463216145833,-1.6654045296,9.3894358824,0.0143569356,-1.6223337228,9.461220560400001,-0.1866401628,-0.030237829182,0.050396381969999994,0.014966198282,0.003359758798,0.00458148927,-0.0061086523599999994,-0.74704,-1.34676,-1.61472,-0.4524,-0.30508,-0.5481,-1.6438691262,9.425328221400001,-0.0861416136,-0.013439035192,0.02748893562,0.004428772961,-0.59972,-0.82592,-1.08141,-2.82432,3.29504,13.18016,1.0063113742906489,44.46
4910,0,529734,0,-222,1312,-5,-105,169,46,-1300,-2322,-2779,-216,1311,-40,13,33,-22,-751,-518,-976,-80,96,304,42.36,1.0058820626696274,46.57,1.0066321243523315,4449.4833984375,-7309.8779296875,34.20000076293945,11.9654541015625,3,0,0.0,0.0,0.0,0.0,-0.2119375541408802,0.0,0.0,-0.3316645999372032,0.1615155254999999,1.5720844482,9.4145605197,0.5060515403747559,-0.4820728003978729,0.4247719347476959,0.5754011273384094,6,44.82472330729167,-73.16463216145833,-1.5936198516,9.4181497536,-0.035892339,-1.5505490448,9.4109712858,-0.287138712,-0.03207042489,0.051618112442,0.014049900427999999,0.003970624034,0.010079276394,-0.006719517596,-0.754,-1.34676,-1.61182,-0.43558,-0.30044,-0.56608,-1.5720844482,9.4145605197,-0.1615155255,-0.014049900427999999,0.030848694418,0.0036651914159999996,-0.59479,-0.8236,-1.08895,-2.3536,2.82432,8.94368,1.0062570935109796,44.465
4911,0,529839,0,-227,1310,-15,-116,156,62,-1300,-2322,-2779,-216,1316,-47,21,19,-18,-751,-518,-976,-64,128,384,42.36,1.0059412780656305,46.56,1.006720947446336,4449.4833984375,-7309.8779296875,34.20000076293945,11.9818115234375,3,0,0.0,0.0,0.0,0.0,-0.2376185193392327,0.0,0.0,-0.3622057369454824,0.2225325017999999,1.5900306177,9.4253282214,0.5060603618621826,-0.4818930625915527,0.4249343574047088,0.5754240155220032,6,44.82472330729167,-73.16463216145833,-1.6295121906,9.403792818000001,-0.107677017,-1.5505490448,9.4468636248,-0.3373879866,-0.035430183688,0.047647488408,0.018936822316,0.006414084978,0.005803219742,-0.005497787124,-0.754,-1.34676,-1.61182,-0.43558,-0.30044,-0.56608,-1.5900306177,9.425328221400001,-0.2225325018,-0.014508049355,0.026725354075,0.006719517596,-0.59479,-0.8236,-1.08895,-1.88288,3.76576,11.29728,1.006331112755983,44.46
4912,0,529945,0,-228,1308,-11,-94,156,67,-1290,-2342,-2809,-221,1317,-41,33,15,-7,-766,-500,-941,-128,96,512,42.36,1.0058327165062917,46.56,1.006720947446336,4449.4833984375,-7309.8779296875,34.20000076293945,11.9818115234375,3,0,0.0,0.0,0.0,0.0,-0.2176129000854186,0.0,0.0,-0.3413933015096905,0.1866401628,1.6115660210999998,9.4217389875,0.506114661693573,-0.4818170368671417,0.4248859584331512,0.5754756927490234,6,44.82472330729167,-73.16463216145833,-1.6366906584,9.3894358824,-0.07896314580000001,-1.5864413838,9.4540420926,-0.2943171798,-0.028710666091999997,0.047647488408,0.020463985405999998,0.010079276394,0.00458148927,-0.0021380283259999997,-0.7482,-1.35836,-1.6292200000000001,-0.44428,-0.29,-0.54578,-1.6115660211,9.4217389875,-0.1866401628,-0.009315694848999998,0.026114488839,0.009162978539999998,-0.59624,-0.82418,-1.0875000000000001,-3.76576,2.82432,15.06304,1.0062768319763138,44.46
4913,0,530050,0,-230,1313,2,-89,146,56,-1290,-2342,-2809,-229,1319,-35,27,14,-9,-766,-500,-941,-16,112,384,42.36,1.0060695780903035,46.57,1.0066321243523315,4449.4833984375,-7309.8779296875,34.20000076293945,11.9654541015625,3,0,0.0,0.0,0.0,0.0,-0.3207665962422655,0.0,0.0,-0.4488687670435775,0.1184447186999999,1.6474583601,9.4468636248,0.5155665874481201,-0.4749530255794525,0.4307764768600464,0.5683680772781372,6,44.82472330729167,-73.16463216145833,-1.651047594,9.425328221400001,0.0143569356,-1.6438691262,9.4683990282,-0.251246373,-0.027183503002,0.044593162228,0.017104226607999998,0.008246680686,0.004276056651999999,-0.002748893562,-0.7482,-1.35836,-1.6292200000000001,-0.44428,-0.29,-0.54578,-1.6474583601,9.4468636248,-0.1184447187,-0.009468411158,0.024434609439999998,0.007177666522999998,-0.59624,-0.82418,-1.0875000000000001,-0.47072,3.29504,11.29728,1.0063508512213175,44.465
4914,0,530156,0,-229,1305,-1,-106,161,54,-1278,-2310,-2764,-222,1316,-35,22,27,-12,-786,-491,-925,-64,192,304,42.36,1.0058820626696274,46.56,1.006780162842339,4449.4833984375,-7309.8779296875,34.20000076293945,11.9654541015625,3,0,0.0,0.0,0.0,0.0,-0.3083411699329464,0.0,0.0,-0.4274773942388913,0.1292124203999999,1.6187444889,9.4073820519,0.5155869722366333,-0.4748348295688629,0.4308884441852569,0.5683635473251343,6,44.82472330729167,-73.16463216145833,-1.6438691262,9.367900479000001,-0.0071784678,-1.5936198516,9.4468636248,-0.251246373,-0.032375857508,0.049174651497999995,0.016493361372,0.006719517596,0.008246680686,-0.003665191416,-0.74124,-1.3398,-1.60312,-0.45588,-0.28478,-0.5365,-1.6187444889,9.4073820519,-0.1292124204,-0.012828169955999998,0.028710666091999997,0.006414084977999999,-0.59856,-0.8122900000000001,-1.06981,-1.88288,5.64864,8.94368,1.006331112755983,44.46
4915,0,530261,0,-228,1311,-14,-104,173,55,-1278,-2310,-2764,-226,1311,-43,7,37,-15,-786,-491,-925,-128,128,368,42.36,1.0060103626943004,46.57,1.0066419935849988,4449.4833984375,-7309.8779296875,34.20000076293945,11.9818115234375,3,0,0.0,0.0,0.0,0.0,-0.2781793877254591,0.0,0.0,-0.3903580267279793,0.2045863322999999,1.6295121906,9.4109712858,0.5155649185180664,-0.4746431708335876,0.4311423599720001,0.568351149559021,6,44.82472330729167,-73.16463216145833,-1.6366906584,9.4109712858,-0.10049854920000001,-1.6223337228,9.4109712858,-0.3086741154,-0.031764992272,0.052839842914,0.016798793989999998,0.0021380283259999997,0.011301006866,-0.00458148927,-0.74124,-1.3398,-1.60312,-0.45588,-0.28478,-0.5365,-1.6295121906,9.4109712858,-0.2045863323,-0.014813481973,0.03207042489,0.0061086523599999994,-0.59856,-0.8122900000000001,-1.06981,-3.76576,3.76576,10.82656,1.0063261781396498,44.465
4916,0,530366,0,-226,1305,-13,-96,143,51,-1269,-2333,-2780,-219,1318,-43,24,19,-9,-782,-500,-963,-144,48,384,42.36,1.0060004934616331,46.56,1.0067308166790032,4449.4833984375,-7309.8779296875,34.20000076293945,11.9654541015625,3,0,0.0,0.0,0.0,0.0,-0.3502725855899438,0.0,0.0,-0.4622139278291668,0.2009970983999999,1.5972090854999998,9.4145605197,0.5155719518661499,-0.4745799899101257,0.4312144517898559,0.5683427453041077,6,44.82472330729167,-73.16463216145833,-1.6223337228,9.367900479000001,-0.0933200814,-1.5720844482,9.461220560400001,-0.3086741154,-0.029321531328,0.043676864374,0.015577063518,0.007330382832,0.005803219742,-0.002748893562,-0.73602,-1.35314,-1.6124,-0.45356,-0.29,-0.55854,-1.5972090855,9.4145605197,-0.20099709840000002,-0.010995574248,0.024740042058,0.006414084977999999,-0.59479,-0.82157,-1.08547,-4.23648,1.41216,11.29728,1.0063656550703182,44.46
4917,0,530472,0,-236,1306,1,-90,144,58,-1269,-2333,-2780,-224,1316,-39,29,5,-10,-782,-500,-963,-160,96,400,42.35,1.0059807549962991,46.56,1.006790032075006,4449.4833984375,-7309.8779296875,34.20000076293945,11.9981689453125,3,0,0.0,0.0,0.0,0.0,-0.332885044205467,0.0,0.0,-0.4348554574756552,0.1363908882,1.651047594,9.4109712858,0.5155526995658875,-0.4746662974357605,0.4310869574546814,0.5683850646018982,6,44.82472330729167,-73.16463216145833,-1.6941184008,9.3750789468,0.0071784678,-1.6079767872000001,9.4468636248,-0.2799602442,-0.02748893562,0.043982296992,0.017715091844,0.008857545922,0.0015271630899999999,-0.0030543261799999997,-0.73602,-1.35314,-1.6124,-0.45356,-0.29,-0.55854,-1.651047594,9.4109712858,-0.1363908882,-0.009315694848999998,0.022754730041,0.007330382832,-0.59479,-0.82157,-1.08547,-4.7072,2.82432,11.768,1.0063853935356526,44.455
4918,0,530577,0,-233,1312,-1,-93,150,63,-1274,-2303,-2768,-223,1314,-27,12,17,-13,-772,-540,-953,-112,128,368,42.36,1.0058919319022943,46.58,1.006829509005675,4449.4833984375,-7309.8779296875,34.20000076293945,11.9654541015625,3,0,0.0,0.0,0.0,0.0,-0.2829907123864557,0.0,0.0,-0.3756109494046322,0.1004985492,1.6366906584,9.4253282214,0.5155452489852905,-0.4747287333011627,0.4309517443180084,0.5684421062469482,6,44.82472330729167,-73.16463216145833,-1.6725829974000002,9.4181497536,-0.0071784678,-1.6007983194000002,9.4325066892,-0.1938186306,-0.028405233473999997,0.0458148927,0.019242254934,0.003665191416,0.005192354505999999,-0.003970624034,-0.73892,-1.33574,-1.60544,-0.44776,-0.3132,-0.55274,-1.6366906584,9.425328221400001,-0.10049854920000001,-0.012370021028999999,0.025503623603,0.00763581545,-0.59334,-0.8244699999999999,-1.0790899999999999,-3.29504,3.76576,10.82656,1.0063607204539846,44.47
4919,0,530683,0,-235,1313,-1,-110,169,50,-1274,-2303,-2768,-223,1316,-36,21,27,-15,-772,-540,-953,-96,144,352,42.36,1.005901801134962,46.57,1.0067999013076734,4449.4833984375,-7309.8779296875,34.20000076293945,11.9654541015625,3,0,0.0,0.0,0.0,0.0,-0.2861025997866235,0.0,0.0,-0.376330273425649,0.1328016543,1.6438691261999998,9.436095923099998,0.515537679195404,-0.4746101796627044,0.4310997128486633,0.5684357285499573,6,44.82472330729167,-73.16463216145833,-1.6869399330000001,9.425328221400001,-0.0071784678,-1.6007983194000002,9.4468636248,-0.2584248408,-0.033597587979999996,0.051618112442,0.0152716309,0.006414084978,0.008246680686,-0.00458148927,-0.73892,-1.33574,-1.60544,-0.44776,-0.3132,-0.55274,-1.6438691262000003,9.436095923100002,-0.1328016543,-0.013591751500999998,0.029932396564,0.005345070815,-0.59334,-0.8244699999999999,-1.0790899999999999,-2.82432,4.23648,10.35584,1.0063508512213177,44.465
4920,0,530788,0,-234,1307,-15,-114,159,56,-1265,-2324,-2785,-223,1315,-39,7,18,-18,-777,-501,-932,-144,144,384,42.36,1.0058820626696274,46.56,1.0066123858869973,4449.4833984375,-7309.8779296875,34.20000076293945,11.9818115234375,3,0,0.0,0.0,0.0,0.0,-0.2866874419105597,0.0,0.0,-0.3730016104827569,0.1938186305999999,1.6402798923,9.4109712858,0.5154898762702942,-0.4743978679180145,0.4313496649265289,0.5684666633605957,6,44.82472330729167,-73.16463216145833,-1.6797614652000001,9.3822574146,-0.107677017,-1.6007983194000002,9.439685157,-0.2799602442,-0.034819318451999995,0.048563786261999996,0.017104226607999998,0.0021380283259999997,0.005497787124,-0.005497787124,-0.7337,-1.34792,-1.6153,-0.45066,-0.29058,-0.54056,-1.6402798923000002,9.410971285799999,-0.19381863059999999,-0.016340645063,0.027030786693,0.005803219741999999,-0.59218,-0.81925,-1.07793,-4.23648,4.23648,11.29728,1.0062472242783125,44.46
4921,0,530894,0,-232,1309,-11,-83,150,60,-1265,-2324,-2785,-224,1314,-47,20,7,-12,-777,-501,-932,-80,80,336,42.36,1.0056748087836171,46.57,1.0067012089810017,4449.4833984375,-7309.8779296875,34.20000076293945,11.9654541015625,3,0,0.0,0.0,0.0,0.0,-0.241808179424079,0.0,0.0,-0.3245852744393894,0.2081755662,1.6366906584,9.414560519699998,0.5154852271080017,-0.4743343591690063,0.4313762784004211,0.5685036778450012,6,44.82472330729167,-73.16463216145833,-1.6654045296,9.3966143502,-0.07896314580000001,-1.6079767872000001,9.4325066892,-0.3373879866,-0.025350907293999997,0.0458148927,0.01832595708,0.0061086523599999994,0.0021380283259999997,-0.003665191416,-0.7337,-1.34792,-1.6153,-0.45066,-0.29058,-0.54056,-1.6366906584,9.4145605197,-0.20817556620000002,-0.009621127466999998,0.023976460512999998,0.007330382832,-0.59218,-0.81925,-1.07793,-2.3536,2.3536,9.88512,1.0061880088823094,44.465
4922,0,530999,0,-234,1310,-3,-85,139,64,-1264,-2319,-2811,-223,1317,-37,35,9,-7,-774,-504,-938,-80,160,256,42.36,1.0058919319022943,46.57,1.0067505551443374,4449.4833984375,-7309.8779296875,34.20000076293945,11.9490966796875,3,0,0.0,0.0,0.0,0.0,-0.2281831505363501,0.0,0.0,-0.3152442379516113,0.1435693559999999,1.6402798923,9.4289174553,0.5154991149902344,-0.4743841588497162,0.4312286674976349,0.5685614943504333,6,44.82472330729167,-73.16463216145833,-1.6797614652000001,9.403792818000001,-0.0215354034,-1.6007983194000002,9.4540420926,-0.26560330860000003,-0.02596177253,0.042455133901999995,0.019547687552,0.010690141629999999,0.002748893562,-0.0021380283259999997,-0.73312,-1.34502,-1.63038,-0.44892,-0.29232,-0.54404,-1.6402798923000002,9.4289174553,-0.143569356,-0.007635815450000001,0.022602013731999996,0.008704829612999999,-0.59102,-0.81867,-1.08721,-2.3536,4.7072,7.53152,1.006321243523316,44.465
4923,0,531105,0,-231,1310,3,-99,162,55,-1264,-2319,-2811,-219,1320,-35,20,27,-23,-774,-504,-938,-16,112,336,42.37,1.005852454971626,46.58,1.0066123858869973,4449.4833984375,-7309.8779296875,34.20000076293945,11.9654541015625,3,0,0.0,0.0,0.0,0.0,-0.0757967782220445,0.0,0.0,-0.1620961075175147,0.1148554847999999,1.615155255,9.439685157,0.518333375453949,-0.4730878174304962,0.4342322647571563,0.5647661685943604,6,44.82472330729167,-73.16463216145833,-1.6582260618,9.403792818000001,0.0215354034,-1.5720844482,9.475577496,-0.251246373,-0.030237829182,0.049480084115999995,0.016798793989999998,0.0061086523599999994,0.008246680686,-0.0070249502139999994,-0.73312,-1.34502,-1.63038,-0.44892,-0.29232,-0.54404,-1.615155255,9.439685157,-0.11485548480000002,-0.012064588410999999,0.028863382400999997,0.004886921887999999,-0.59102,-0.81867,-1.08721,-0.47072,3.29504,9.88512,1.0062324204293116,44.474999999999994
4924,0,531210,0,-232,1311,-9,-108,176,57,-1258,-2352,-2776,-218,1312,-39,6,26,-11,-767,-533,-933,-224,128,368,42.36,1.0058919319022943,46.56,1.0066814705156677,4449.4833984375,-7309.8779296875,34.400001525878906,11.9654541015625,3,0,0.0,0.0,0.0,0.0,-0.00884961200255,0.0,0.0,-0.1130966004197215,0.1722832272,1.615155255,9.4145605197,0.518312394618988,-0.4728869795799255,0.4344762563705444,0.564765989780426,6,44.82472330729167,-73.16463216145833,-1.6654045296,9.4109712858,-0.0646062102,-1.5649059804,9.4181497536,-0.2799602442,-0.032986722744,0.053756140768,0.017409659225999997,0.001832595708,0.007941248068,-0.003359758798,-0.72964,-1.36416,-1.61008,-0.44486,-0.30914,-0.54114,-1.615155255,9.4145605197,-0.1722832272,-0.015577063518,0.030848694418,0.007024950213999999,-0.5872499999999999,-0.83665,-1.07561,-6.59008,3.76576,10.82656,1.006286701208981,44.46
4925,0,531315,0,-230,1310,-16,-110,171,60,-1258,-2352,-2776,-212,1315,-52,19,28,-9,-767,-533,-933,-96,144,384,42.36,1.0058425857389588,46.56,1.006790032075006,4449.4833984375,-7309.8779296875,34.400001525878906,11.9981689453125,3,0,0.0,0.0,0.0,0.0,-0.0648395215736435,0.0,0.0,-0.1965269327006074,0.2440679052,1.5864413838,9.4217389875,0.5183294415473938,-0.4726436734199524,0.4347087144851684,0.5647749900817871,6,44.82472330729167,-73.16463216145833,-1.651047594,9.403792818000001,-0.1148554848,-1.5218351736,9.439685157,-0.3732803256,-0.033597587979999996,0.052228977678,0.01832595708,0.005803219742,0.008552113303999999,-0.002748893562,-0.72964,-1.36416,-1.61008,-0.44486,-0.30914,-0.54114,-1.5864413838,9.4217389875,-0.24406790520000002,-0.013897184118999997,0.030390545491,0.007788531759,-0.5872499999999999,-0.83665,-1.07561,-2.82432,4.23648,11.29728,1.0063163089069824,44.46
4926,0,531421,0,-233,1310,-15,-84,152,59,-1286,-2325,-2829,-229,1315,-46,37,17,-10,-778,-512,-913,-128,16,384,42.37,1.005852454971626,46.59,1.0066222551196644,4449.4833984375,-7309.8779296875,34.400001525878906,11.9327392578125,3,0,0.0,0.0,0.0,0.0,-0.0808774237609977,0.0,0.0,-0.2297178900365387,0.2189432679,1.6582260617999998,9.4217389875,0.5183212161064148,-0.4726422429084778,0.4346853792667389,0.5648018717765808,6,44.82472330729167,-73.16463216145833,-1.6725829974000002,9.403792818000001,-0.107677017,-1.6438691262,9.439685157,-0.3302095188,-0.025656339912,0.046425757936,0.018020524462,0.011301006866,0.005192354505999999,-0.0030543261799999997,-0.74588,-1.3485,-1.64082,-0.45124000000000003,-0.29696,-0.52954,-1.6582260618000002,9.4217389875,-0.2189432679,-0.007177666523,0.025809056221,0.007483099141,-0.59856,-0.82273,-1.08518,-3.76576,0.47072,11.29728,1.0062373550456452,44.480000000000004
4927,0,531526,0,-233,1308,-6,-95,143,57,-1292,-2323,-2775,-226,1314,-34,28,2,-12,-778,-512,-913,-112,144,288,42.36,1.0058919319022943,46.57,1.00653343202566,4449.4833984375,-7309.8779296875,34.400001525878906,11.9818115234375,3,0,0.0,0.0,0.0,0.0,-0.1042468060157115,0.0,0.0,-0.2675178648098761,0.1435693559999999,1.6474583601,9.4109712858,0.5182403922080994,-0.4728029370307922,0.4345212876796722,0.5648677945137024,6,44.82472330729167,-73.16463216145833,-1.6725829974000002,9.3894358824,-0.0430708068,-1.6223337228,9.4325066892,-0.24406790520000002,-0.029016098709999997,0.043676864374,0.017409659225999997,0.008552113303999999,0.000610865236,-0.003665191416,-0.74936,-1.34734,-1.6095,-0.45124000000000003,-0.29696,-0.52954,-1.6474583601000001,9.4109712858,-0.143569356,-0.010231992702999999,0.022143864805,0.006872233904999999,-0.6003000000000001,-0.8221499999999999,-1.06952,-3.29504,4.23648,8.47296,1.0062126819639772,44.465
4928,0,531632,0,-237,1300,-1,-99,163,60,-1292,-2323,-2775,-224,1319,-31,10,28,-14,-780,-521,-927,-160,80,400,42.37,1.0058623242042932,46.59,1.0066321243523315,4449.4833984375,-7309.8779296875,34.400001525878906,11.9654541015625,3,0,0.0,0.0,0.0,0.0,-0.0933823291712246,0.0,0.0,-0.2663362003953661,0.1148554847999999,1.6546368279,9.400203584099998,0.5181636810302734,-0.4728026390075683,0.4345662891864776,0.5649038553237915,6,44.82472330729167,-73.16463216145833,-1.7012968686,9.332008140000001,-0.0071784678,-1.6079767872000001,9.4683990282,-0.2225325018,-0.030237829182,0.049785516733999995,0.01832595708,0.0030543261799999997,0.008552113303999999,-0.004276056651999999,-0.74936,-1.34734,-1.6095,-0.4524,-0.30218,-0.53766,-1.6546368279,9.400203584100002,-0.1148554848,-0.013591751501,0.029168815018999997,0.007024950214,-0.6008800000000001,-0.8247599999999999,-1.07358,-4.7072,2.3536,11.768,1.0062472242783125,44.480000000000004
4929,0,531737,0,-230,1307,-10,-114,172,55,-1284,-2326,-2784,-219,1314,-47,2,28,-15,-780,-521,-927,-208,64,432,42.38,1.0059314088329632,46.57,1.0066419935849988,4449.4833984375,-7309.8779296875,34.400001525878906,11.9654541015625,3,0,0.0,0.0,0.0,0.0,-0.0798013426745885,0.0,0.0,-0.263177150740203,0.2045863322999999,1.6115660210999998,9.4073820519,0.5181329250335693,-0.4725463986396789,0.4348583221435547,0.5649215579032898,6,44.82472330729167,-73.16463216145833,-1.651047594,9.3822574146,-0.071784678,-1.5720844482,9.4325066892,-0.3373879866,-0.034819318451999995,0.052534410296,0.016798793989999998,0.000610865236,0.008552113303999999,-0.00458148927,-0.74472,-1.34908,-1.61472,-0.4524,-0.30218,-0.53766,-1.6115660211,9.4073820519,-0.2045863323,-0.017104226607999998,0.0305432618,0.0061086523599999994,-0.59856,-0.8256300000000001,-1.07619,-6.11936,1.88288,12.70944,1.006286701208981,44.475
4930,0,531843,0,-237,1311,-16,-100,155,56,-1284,-2326,-2784,-229,1311,-45,19,17,-9,-777,-526,-957,-64,-16,320,42.36,1.005901801134962,46.57,1.0067012089810017,4449.4833984375,-7309.8779296875,34.400001525878906,11.9654541015625,3,0,0.0,0.0,0.0,0.0,-0.1138581262975821,0.0,0.0,-0.3068928952842344,0.2189432678999999,1.6725829973999995,9.4109712858,0.5181346535682678,-0.472327709197998,0.4350538253784179,0.5649524927139282,6,44.82472330729167,-73.16463216145833,-1.7012968686,9.4109712858,-0.1148554848,-1.6438691262,9.4109712858,-0.323031051,-0.0305432618,0.04734205579,0.017104226607999998,0.005803219742,0.005192354505999999,-0.002748893562,-0.74472,-1.34908,-1.61472,-0.45066,-0.30508,-0.55506,-1.6725829974000002,9.4109712858,-0.21894326790000002,-0.012370021028999999,0.026267205148,0.007177666522999998,-0.59769,-0.82708,-1.08489,-1.88288,-0.47072,9.4144,1.0063015050579818,44.465
4931,0,531948,0,-239,1315,-9,-75,133,55,-1279,-2339,-2801,-229,1315,-41,26,7,-14,-783,-514,-921,-48,80,464,42.36,1.005793239575623,46.59,1.0066222551196644,4449.4833984375,-7309.8779296875,34.400001525878906,11.9654541015625,3,0,0.0,0.0,0.0,0.0,-0.0583270965251599,0.0,0.0,-0.256362730376452,0.179461695,1.6797614652,9.439685157,0.5180888772010803,-0.4723879992961883,0.4349885582923889,0.5649942755699158,6,44.82472330729167,-73.16463216145833,-1.7156538042,9.439685157,-0.0646062102,-1.6438691262,9.439685157,-0.2943171798,-0.02290744635,0.040622538193999996,0.016798793989999998,0.007941248068,0.0021380283259999997,-0.004276056651999999,-0.74182,-1.35662,-1.62458,-0.45414,-0.29812,-0.53418,-1.6797614652,9.439685157,-0.179461695,-0.007483099141,0.021380283259999997,0.006261368668999999,-0.59798,-0.8273699999999999,-1.07938,-1.41216,2.3536,13.65088,1.0062077473476436,44.475
4932,0,532054,0,-238,1310,1,-81,144,57,-1279,-2339,-2801,-226,1314,-33,30,3,-14,-783,-514,-921,-112,176,384,42.36,1.005901801134962,46.57,1.0068097705403405,4449.4833984375,-7309.8779296875,34.400001525878906,11.9981689453125,3,0,0.0,0.0,0.0,0.0,-0.1245124038224178,0.0,0.0,-0.3368256038071056,0.1148554847999999,1.6654045296,9.418149753599998,0.5159393548965454,-0.4751245081424713,0.4327774941921234,0.5663628578186035,6,44.82472330729167,-73.16463216145833,-1.7084753364,9.403792818000001,0.0071784678,-1.6223337228,9.4325066892,-0.2368894374,-0.024740042057999997,0.043982296992,0.017409659225999997,0.00916297854,0.000916297854,-0.004276056651999999,-0.74182,-1.35662,-1.62458,-0.45414,-0.29812,-0.53418,-1.6654045296,9.418149753600002,-0.1148554848,-0.007788531758999999,0.022449297423,0.006566801286999999,-0.59798,-0.8273699999999999,-1.07938,-3.29504,5.17792,11.29728,1.0063557858376513,44.465
4933,0,532159,0,-233,1305,-1,-92,155,52,-1297,-2299,-2824,-233,1315,-35,14,26,-16,-794,-521,-936,-112,160,384,42.36,1.0060103626943004,46.58,1.006780162842339,4449.4833984375,-7309.8779296875,34.400001525878906,11.9654541015625,3,0,0.0,0.0,0.0,0.0,-0.1615374957867565,0.0,0.0,-0.3783533269993357,0.1292124203999999,1.6725829974,9.403792818,0.5159173011779785,-0.475026398897171,0.4328959286212921,0.5663747191429138,6,44.82472330729167,-73.16463216145833,-1.6725829974000002,9.367900479000001,-0.0071784678,-1.6725829974000002,9.439685157,-0.251246373,-0.028099800855999998,0.04734205579,0.015882496136,0.004276056651999999,0.007941248068,-0.004886921888,-0.75226,-1.33342,-1.63792,-0.46052,-0.30218,-0.54288,-1.6725829974000002,9.403792818,-0.1292124204,-0.011911872102,0.027641651928999998,0.005497787124,-0.60639,-0.8178000000000001,-1.0904,-3.29504,4.7072,11.29728,1.0063952627683197,44.47
4934,0,532264,0,-237,1309,-11,-110,166,52,-1297,-2299,-2824,-227,1314,-43,7,20,-13,-794,-521,-936,-128,32,368,42.38,1.0059906242289662,46.59,1.006790032075006,4449.4833984375,-7309.8779296875,34.400001525878906,11.9654541015625,3,0,0.0,0.0,0.0,0.0,-0.197557371247961,0.0,0.0,-0.4153056414256432,0.1938186305999999,1.6654045296,9.414560519699998,0.5159160494804382,-0.4747364819049835,0.4331950843334198,0.566390335559845,6,44.82472330729167,-73.16463216145833,-1.7012968686,9.3966143502,-0.07896314580000001,-1.6295121906,9.4325066892,-0.3086741154,-0.033597587979999996,0.050701814587999994,0.015882496136,0.0021380283259999997,0.0061086523599999994,-0.003970624034,-0.75226,-1.33342,-1.63792,-0.46052,-0.30218,-0.54288,-1.6654045296,9.4145605197,-0.1938186306,-0.015729779827,0.028405233473999997,0.005955936051,-0.60639,-0.8178000000000001,-1.0904,-3.76576,0.94144,10.82656,1.0063903281519861,44.485
4935,0,532370,0,-238,1307,-15,-101,157,52,-1257,-2310,-2802,-228,1316,-49,19,25,-12,-767,-519,-934,-32,144,352,42.36,1.005901801134962,46.57,1.0066321243523315,4449.4833984375,-7309.8779296875,34.400001525878906,11.9818115234375,3,0,0.0,0.0,0.0,0.0,-0.2469727051909928,0.0,0.0,-0.4601298584464421,0.2297109695999999,1.6725829973999995,9.4145605197,0.5159231424331665,-0.4745256304740906,0.4334353506565094,0.5663766860961914,6,44.82472330729167,-73.16463216145833,-1.7084753364,9.3822574146,-0.107677017,-1.6366906584,9.4468636248,-0.35174492220000003,-0.030848694418,0.047952921025999996,0.015882496136,0.005803219742,0.00763581545,-0.003665191416,-0.72906,-1.3398,-1.62516,-0.44486,-0.30102,-0.54172,-1.6725829974000002,9.4145605197,-0.2297109696,-0.012522737337999999,0.027794368237999998,0.0061086523599999994,-0.58696,-0.8204100000000001,-1.08344,-0.94144,4.23648,10.35584,1.0062669627436467,44.465
4936,0,532475,0,-240,1312,-7,-82,137,54,-1257,-2310,-2802,-227,1320,-37,38,4,-19,-767,-519,-934,-160,64,400,42.37,1.0060301011596349,46.57,1.0066419935849988,4449.4833984375,-7309.8779296875,34.400001525878906,11.9981689453125,3,0,0.0,0.0,0.0,0.0,-0.2537916715884621,0.0,0.0,-0.4582988104481175,0.1579262916,1.6761722312999998,9.4468636248,0.5158768892288208,-0.4745547771453857,0.4334180653095245,0.5664076209068298,6,44.82472330729167,-73.16463216145833,-1.722832272,9.4181497536,-0.050249274600000005,-1.6295121906,9.475577496,-0.26560330860000003,-0.025045474675999997,0.041844268665999995,0.016493361372,0.011606439484,0.001221730472,-0.005803219742,-0.72906,-1.3398,-1.62516,-0.44486,-0.30102,-0.54172,-1.6761722313,9.446863624799999,-0.15792629160000002,-0.006719517595999999,0.021532999568999997,0.005345070814999999,-0.58696,-0.8204100000000001,-1.08344,-4.7072,1.88288,11.768,1.0063360473723169,44.47
4937,0,532581,0,-230,1309,-1,-102,160,55,-1272,-2317,-2773,-226,1316,-29,36,25,-20,-783,-543,-924,-240,64,400,42.39,1.0060004934616331,46.58,1.0065038243276585,4449.4833984375,-7309.8779296875,34.400001525878906,11.9654541015625,3,0,0.0,0.0,0.0,0.0,-0.2243165973781886,0.0,0.0,-0.416869102952652,0.107677017,1.6366906583999998,9.4217389875,0.5157826542854309,-0.4746469855308532,0.4333831965923309,0.5664429664611816,6,44.82472330729167,-73.16463216145833,-1.651047594,9.3966143502,-0.0071784678,-1.6223337228,9.4468636248,-0.2081755662,-0.031154127036,0.048869218879999995,0.016798793989999998,0.010995574248,0.00763581545,-0.0061086523599999994,-0.73776,-1.34386,-1.60834,-0.45414,-0.31494,-0.53592,-1.6366906584,9.4217389875,-0.107677017,-0.010079276394,0.028252517164999998,0.005345070814999999,-0.59595,-0.8294,-1.07213,-7.0608,1.88288,11.768,1.0062521588946458,44.485
4938,0,532686,0,-235,1306,0,-102,159,53,-1272,-2317,-2773,-221,1316,-34,9,22,-14,-783,-543,-924,-96,96,400,42.39,1.0061781396496423,46.59,1.0067308166790032,4449.4833984375,-7309.8779296875,34.400001525878906,11.9654541015625,3,0,0.0,0.0,0.0,0.0,-0.2904304415208654,0.0,0.0,-0.4809941532464229,0.1220339526,1.6366906583999998,9.4109712858,0.5157469511032104,-0.4745478928089142,0.4335164129734039,0.5664564967155457,6,44.82472330729167,-73.16463216145833,-1.6869399330000001,9.3750789468,0.0,-1.5864413838,9.4468636248,-0.24406790520000002,-0.031154127036,0.048563786261999996,0.016187928754,0.002748893562,0.006719517596,-0.004276056651999999,-0.73776,-1.34386,-1.60834,-0.45414,-0.31494,-0.53592,-1.6366906584,9.4109712858,-0.12203395260000001,-0.014202616736999999,0.027641651928999998,0.005955936051,-0.59595,-0.8294,-1.07213,-2.82432,2.82432,11.768,1.0064544781643228,44.49
4939,0,532792,0,-242,1310,-8,-105,176,59,-1258,-2315,-2798,-228,1313,-43,7,31,-7,-784,-521,-917,-128,128,384,42.37,1.005921539600296,46.58,1.006720947446336,4449.4833984375,-7309.8779296875,34.400001525878906,11.9981689453125,3,0,0.0,0.0,0.0,0.0,-0.3636063088881861,0.0,0.0,-0.5418677809114183,0.1830509288999999,1.686939933,9.4145605197,0.5157800912857056,-0.4742603302001953,0.4337649643421173,0.5664768815040588,6,44.82472330729167,-73.16463216145833,-1.7371892076000002,9.403792818000001,-0.0574277424,-1.6366906584,9.425328221400001,-0.3086741154,-0.03207042489,0.053756140768,0.018020524462,0.0021380283259999997,0.009468411158,-0.0021380283259999997,-0.72964,-1.3427,-1.62284,-0.45472,-0.30218,-0.53186,-1.6869399330000001,9.4145605197,-0.1830509289,-0.014966198282,0.031612275963,0.007941248068,-0.5921799999999999,-0.8224400000000001,-1.07735,-3.76576,3.76576,11.29728,1.006321243523316,44.474999999999994
4940,0,532897,0,-238,1312,-12,-87,159,53,-1258,-2315,-2798,-229,1316,-49,20,25,-9,-784,-521,-917,-64,64,384,42.39,1.005852454971626,46.59,1.0067406859116703,4449.4833984375,-7309.8779296875,34.400001525878906,11.9818115234375,3,0,0.0,0.0,0.0,0.0,-0.3248613323433418,0.0,0.0,-0.4833107848966366,0.2189432679,1.6761722312999998,9.4325066892,0.5157910585403442,-0.4741494059562683,0.4338478446006775,0.5664963722229004,6,44.82472330729167,-73.16463216145833,-1.7084753364,9.4181497536,-0.0861416136,-1.6438691262,9.4468636248,-0.35174492220000003,-0.026572637766,0.048563786261999996,0.016187928754,0.0061086523599999994,0.00763581545,-0.002748893562,-0.72964,-1.3427,-1.62284,-0.45472,-0.30218,-0.53186,-1.6761722313,9.4325066892,-0.21894326790000002,-0.010231992703,0.028099800855999998,0.006719517595999999,-0.5921799999999999,-0.8224400000000001,-1.07735,-1.88288,1.88288,11.29728,1.006296570441648,44.49
4941,0,533002,0,-237,1310,-5,-85,149,59,-1283,-2329,-2777,-220,1319,-36,24,2,-14,-763,-516,-904,-96,96,368,42.39,1.0061189242536392,46.59,1.0066222551196644,4449.4833984375,-7309.8779296875,34.400001525878906,11.9654541015625,3,0,0.0,0.0,0.0,0.0,-0.3460623457890735,0.0,0.0,-0.4923899081694361,0.1471585899,1.6402798922999997,9.436095923099998,0.5156672596931458,-0.4742440283298492,0.4338347315788269,0.5665397047996521,6,44.82472330729167,-73.16463216145833,-1.7012968686,9.403792818000001,-0.035892339,-1.579262916,9.4683990282,-0.2584248408,-0.02596177253,0.045509460082,0.018020524462,0.007330382832,0.000610865236,-0.004276056651999999,-0.74414,-1.35082,-1.61066,-0.44254,-0.29928,-0.52432,-1.6402798923000002,9.436095923100002,-0.1471585899,-0.009315694849,0.023060162659,0.0068722339050000004,-0.59334,-0.82505,-1.06749,-2.82432,2.82432,10.82656,1.006370589686652,44.49
4942,0,533108,0,-235,1312,-1,-95,143,56,-1283,-2329,-2777,-222,1316,-31,21,10,-16,-763,-516,-904,-32,128,432,42.39,1.0061189242536392,46.58,1.0066716012830002,4449.4833984375,-7309.8779296875,34.400001525878906,11.9981689453125,3,0,0.0,0.0,0.0,0.0,-0.3389123264514147,0.0,0.0,-0.4720892788628422,0.1148554847999999,1.6402798923,9.4325066892,0.5211794376373291,-0.4711551964282989,0.4376187324523926,0.5611369013786316,6,44.82472330729167,-73.16463216145833,-1.6869399330000001,9.4181497536,-0.0071784678,-1.5936198516,9.4468636248,-0.2225325018,-0.029016098709999997,0.043676864374,0.017104226607999998,0.006414084978,0.0030543261799999997,-0.004886921888,-0.74414,-1.35082,-1.61066,-0.44254,-0.29928,-0.52432,-1.6402798923000002,9.4325066892,-0.1148554848,-0.011301006865999998,0.023365595277,0.0061086523599999994,-0.59334,-0.82505,-1.06749,-0.94144,3.76576,12.70944,1.0063952627683197,44.485
4943,0,533213,0,-240,1311,-3,-106,157,55,-1292,-2319,-2784,-223,1316,-40,10,19,-11,-760,-523,-931,-128,64,368,42.39,1.0058919319022943,46.6,1.0065827781889958,4449.4833984375,-7309.8779296875,34.400001525878906,11.9654541015625,3,0,0.0,0.0,0.0,0.0,-0.241786048936246,0.0,0.0,-0.3596443224339392,0.1543370576999999,1.6618152957,9.4289174553,0.521132230758667,-0.4710001349449157,0.4377652406692505,0.5611967444419861,6,44.82472330729167,-73.16463216145833,-1.722832272,9.4109712858,-0.0215354034,-1.6007983194000002,9.4468636248,-0.287138712,-0.032375857508,0.047952921025999996,0.016798793989999998,0.0030543261799999997,0.005803219742,-0.003359758798,-0.74936,-1.34502,-1.61472,-0.4408,-0.30334,-0.53998,-1.6618152957,9.4289174553,-0.1543370577,-0.014660765663999998,0.026878070384,0.006719517595999999,-0.59508,-0.82418,-1.07735,-3.76576,1.88288,10.82656,1.006237355045645,44.495000000000005
4944,0,533319,0,-240,1309,-15,-108,168,63,-1261,-2322,-2801,-231,1316,-50,17,26,-9,-760,-523,-931,-80,48,384,42.4,1.0060301011596349,46.6,1.00653343202566,4449.4833984375,-7309.8779296875,34.400001525878906,11.9654541015625,3,0,0.0,0.0,0.0,0.0,-0.2303629245609537,0.0,0.0,-0.3483803661105287,0.2333002034999999,1.6905291668999998,9.4217389875,0.5211973190307617,-0.4707027673721313,0.4380167126655578,0.561189591884613,6,44.82472330729167,-73.16463216145833,-1.722832272,9.3966143502,-0.107677017,-1.6582260618,9.4468636248,-0.35892339,-0.032986722744,0.051312679824,0.019242254934,0.005192354505999999,0.007941248068,-0.002748893562,-0.73138,-1.34676,-1.62458,-0.4408,-0.30334,-0.53998,-1.6905291669,9.4217389875,-0.2333002035,-0.013897184118999999,0.029626963946,0.008246680686,-0.58609,-0.82505,-1.08228,-2.3536,1.41216,11.29728,1.0062817665926476,44.5
4945,0,533424,0,-234,1310,-17,-90,149,55,-1261,-2322,-2801,-231,1317,-41,33,14,-14,-783,-545,-924,-80,112,448,42.39,1.0060004934616331,46.61,1.0066123858869973,4449.4833984375,-7309.8779296875,34.400001525878906,11.9654541015625,3,0,0.0,0.0,0.0,0.0,-0.269424816180121,0.0,0.0,-0.3918458600945994,0.2081755662,1.6689937634999998,9.4289174553,0.5212163925170898,-0.4705945551395416,0.4381558299064636,0.5611540079116821,6,44.82472330729167,-73.16463216145833,-1.6797614652000001,9.403792818000001,-0.12203395260000001,-1.6582260618,9.4540420926,-0.2943171798,-0.02748893562,0.045509460082,0.016798793989999998,0.010079276394,0.004276056651999999,-0.004276056651999999,-0.73138,-1.34676,-1.62458,-0.45414,-0.3161,-0.53592,-1.6689937635,9.4289174553,-0.2081755662,-0.008704829612999999,0.024892758367,0.006261368668999999,-0.59276,-0.83143,-1.08025,-2.3536,3.29504,13.18016,1.006306439674315,44.5
4946,0,533530,0,-236,1310,-3,-82,146,51,-1272,-2351,-2759,-228,1317,-38,38,2,-12,-783,-545,-924,-96,96,336,42.38,1.0058228472736244,46.6,1.006651862817666,4449.4833984375,-7309.8779296875,34.400001525878906,11.9490966796875,3,0,0.0,0.0,0.0,0.0,-0.2477761258136599,0.0,0.0,-0.366188048858565,0.1471585898999999,1.6654045296,9.4289174553,0.5211833119392395,-0.4706942141056061,0.438119888305664,0.561129093170166,6,44.82472330729167,-73.16463216145833,-1.6941184008,9.403792818000001,-0.0215354034,-1.6366906584,9.4540420926,-0.2727817764,-0.025045474675999997,0.044593162228,0.015577063518,0.011606439484,0.000610865236,-0.003665191416,-0.73776,-1.36358,-1.60022,-0.45414,-0.3161,-0.53592,-1.6654045296,9.4289174553,-0.1471585899,-0.006719517595999999,0.022602013732,0.005955936051,-0.59595,-0.83984,-1.06807,-2.82432,2.82432,9.88512,1.0062373550456452,44.49
4947,0,533635,0,-235,1311,1,-98,160,68,-1272,-2351,-2759,-224,1319,-32,29,14,-12,-770,-519,-958,-112,112,352,42.41,1.0058820626696274,46.6,1.0064347396989883,4449.4833984375,-7309.8779296875,34.5,11.9654541015625,3,0,0.0,0.0,0.0,0.0,-0.2027448845340977,0.0,0.0,-0.3174268967936128,0.1112662508999999,1.6474583601,9.439685157,0.5211358070373535,-0.4707385599613189,0.4380827844142914,0.561164915561676,6,44.82472330729167,-73.16463216145833,-1.6869399330000001,9.4109712858,0.0071784678,-1.6079767872000001,9.4683990282,-0.2297109696,-0.029932396564,0.048869218879999995,0.020769418023999998,0.008857545922,0.004276056651999999,-0.003665191416,-0.73776,-1.36358,-1.60022,-0.4466,-0.30102,-0.55564,-1.6474583601000001,9.439685157,-0.1112662509,-0.010537425321,0.026572637765999996,0.008552113303999999,-0.5921799999999999,-0.8323,-1.07793,-3.29504,3.29504,10.35584,1.0061584011843079,44.504999999999995
4948,0,533741,0,-237,1310,-9,-103,173,59,-1288,-2336,-2821,-235,1319,-42,13,33,-12,-770,-519,-958,-256,96,368,42.4,1.0058031088082902,46.62,1.0067505551443374,4449.4833984375,-7309.8779296875,34.5,11.9654541015625,3,0,0.0,0.0,0.0,0.0,-0.1625023305250847,0.0,0.0,-0.2785327051149253,0.1830509289,1.6941184008,9.436095923099998,0.5211272239685059,-0.4705023169517517,0.4382509291172027,0.5612398386001587,6,44.82472330729167,-73.16463216145833,-1.7012968686,9.403792818000001,-0.0646062102,-1.6869399330000001,9.4683990282,-0.3014956476,-0.031459559654,0.052839842914,0.018020524462,0.003970624034,0.010079276394,-0.003665191416,-0.74704,-1.35488,-1.63618,-0.4466,-0.30102,-0.55564,-1.6941184008,9.436095923100002,-0.18305092890000002,-0.01374446781,0.031459559654,0.007177666523,-0.59682,-0.8279500000000001,-1.09591,-7.53152,2.82432,10.82656,1.0062768319763138,44.51
4949,0,533846,0,-236,1306,-16,-92,164,62,-1288,-2336,-2821,-236,1315,-47,10,24,-18,-784,-517,-920,-112,16,336,42.39,1.0058327165062917,46.6,1.0065433012583271,4449.4833984375,-7309.8779296875,34.5,11.9654541015625,3,0,0.0,0.0,0.0,0.0,-0.1829452826173763,0.0,0.0,-0.3055627163408211,0.2261217357,1.6941184008,9.4073820519,0.521175742149353,-0.470230758190155,0.4384590685367584,0.5612598061561584,6,44.82472330729167,-73.16463216145833,-1.6941184008,9.3750789468,-0.1148554848,-1.6941184008,9.439685157,-0.3373879866,-0.028099800855999998,0.050090949351999994,0.018936822316,0.0030543261799999997,0.007330382832,-0.005497787124,-0.74704,-1.35488,-1.63618,-0.45472,-0.29986,-0.5336,-1.6941184008,9.4073820519,-0.22612173570000002,-0.012522737337999999,0.028710666091999997,0.006719517596,-0.6008800000000001,-0.82737,-1.08489,-3.29504,0.47072,9.88512,1.0061880088823094,44.495000000000005
4950,0,533951,0,-239,1306,-12,-89,150,55,-1278,-2312,-2821,-228,1315,-45,35,2,-21,-784,-517,-920,-96,112,240,42.38,1.0058820626696274,46.59,1.0066321243523315,4449.4833984375,-7309.8779296875,34.5,11.9818115234375,3,0,0.0,0.0,0.0,0.0,-0.1899350734854959,0.0,0.0,-0.31869100589207,0.2045863322999999,1.6761722312999998,9.4073820519,0.5211641192436218,-0.470228910446167,0.4384952783584595,0.5612438917160034,6,44.82472330729167,-73.16463216145833,-1.7156538042,9.3750789468,-0.0861416136,-1.6366906584,9.439685157,-0.323031051,-0.027183503002,0.0458148927,0.016798793989999998,0.010690141629999999,0.000610865236,-0.006414084978,-0.74124,-1.34096,-1.63618,-0.45472,-0.29986,-0.5336,-1.6761722313,9.4073820519,-0.2045863323,-0.008246680686,0.023212878968,0.0051923545059999986,-0.59798,-0.82041,-1.08489,-2.82432,3.29504,7.0608,1.0062570935109796,44.485
4951,0,534057,0,-233,1311,-1,-84,133,65,-1278,-2312,-2821,-226,1315,-32,36,0,-25,-772,-506,-946,-96,48,400,42.41,1.0060695780903035,46.6,1.0067012089810017,4449.4833984375,-7309.8779296875,34.5,11.9654541015625,3,0,0.0,0.0,0.0,0.0,-0.2476094156729068,0.0,0.0,-0.3819431605189685,0.1184447186999999,1.6474583601,9.4253282214,0.5175877809524536,-0.4739232659339905,0.4344551861286163,0.5645780563354492,6,44.82472330729167,-73.16463216145833,-1.6725829974000002,9.4109712858,-0.0071784678,-1.6223337228,9.439685157,-0.2297109696,-0.025656339912,0.040622538193999996,0.01985312017,0.010995574248,0.0,-0.00763581545,-0.74124,-1.34096,-1.63618,-0.44776,-0.29348,-0.5486800000000001,-1.6474583601000001,9.425328221400001,-0.1184447187,-0.007330382832,0.020311269096999998,0.0061086523599999994,-0.5945,-0.81722,-1.09243,-2.82432,1.41216,11.768,1.0063853935356526,44.504999999999995
4952,0,534162,0,-242,1308,4,-111,164,65,-1291,-2295,-2806,-231,1314,-27,17,16,0,-772,-506,-946,-112,112,416,42.41,1.0059314088329632,46.62,1.006572908956329,4449.4833984375,-7309.8779296875,34.5,11.9654541015625,3,0,0.0,0.0,0.0,0.0,-0.2484382629539279,0.0,0.0,-0.3800583036578641,0.0825523797,1.6977076347,9.4109712858,0.5175761580467224,-0.4738521575927734,0.4344767332077026,0.5646317601203918,6,44.82472330729167,-73.16463216145833,-1.7371892076000002,9.3894358824,0.0287138712,-1.6582260618,9.4325066892,-0.1938186306,-0.033903020597999996,0.050090949351999994,0.01985312017,0.005192354505999999,0.004886921888,0.0,-0.74878,-1.3311,-1.62748,-0.44776,-0.29348,-0.5486800000000001,-1.6977076347,9.4109712858,-0.08255237970000001,-0.014355333045999999,0.02748893562,0.009926560085,-0.59827,-0.81229,-1.0880800000000002,-3.29504,3.29504,12.23872,1.006252158894646,44.515
4953,0,534268,0,-240,1304,-5,-101,170,59,-1291,-2295,-2806,-231,1320,-44,9,41,-11,-774,-508,-948,-192,64,368,42.41,1.0058228472736244,46.61,1.006661732050333,4449.4833984375,-7309.8779296875,34.5,11.9654541015625,3,0,0.0,0.0,0.0,0.0,-0.2100081408402036,0.0,0.0,-0.3387250935677542,0.1758724611,1.6905291668999998,9.4181497536,0.5175933837890625,-0.4735375642776489,0.4347396492958069,0.5646776556968689,6,44.82472330729167,-73.16463216145833,-1.722832272,9.3607220112,-0.035892339,-1.6582260618,9.475577496,-0.31585258320000004,-0.030848694418,0.05192354506,0.018020524462,0.002748893562,0.012522737337999999,-0.003359758798,-0.74878,-1.3311,-1.62748,-0.44892,-0.29464,-0.54984,-1.6905291669,9.4181497536,-0.17587246110000002,-0.014049900427999999,0.032223141199,0.007330382832,-0.59885,-0.81287,-1.08866,-5.64864,1.88288,10.82656,1.0062422896619787,44.51
4954,0,534373,0,-235,1306,-18,-99,151,57,-1290,-2315,-2833,-229,1320,-50,23,14,-13,-774,-508,-948,-48,160,384,42.39,1.005852454971626,46.62,1.0066913397483346,4449.4833984375,-7309.8779296875,34.5,11.9981689453125,3,0,0.0,0.0,0.0,0.0,-0.176464999597866,0.0,0.0,-0.3070841046086148,0.2440679052,1.6654045296,9.4253282214,0.5176141262054443,-0.473343938589096,0.4349615275859833,0.5646500587463379,6,44.82472330729167,-73.16463216145833,-1.6869399330000001,9.3750789468,-0.1292124204,-1.6438691262,9.475577496,-0.35892339,-0.030237829182,0.046120325318,0.017409659225999997,0.0070249502139999994,0.004276056651999999,-0.003970624034,-0.7482,-1.3427,-1.64314,-0.44892,-0.29464,-0.54984,-1.6654045296,9.425328221400001,-0.2440679052,-0.011606439484,0.025198190985,0.006719517595999999,-0.59856,-0.81867,-1.09649,-1.41216,4.7072,11.29728,1.0062718973599802,44.504999999999995
4955,0,534479,0,-234,1309,-13,-81,142,52,-1290,-2315,-2833,-223,1315,-38,29,11,-8,-776,-519,-920,-96,112,352,42.4,1.005921539600296,46.59,1.0066321243523315,4449.4833984375,-7309.8779296875,34.5,11.9981689453125,3,0,0.0,0.0,0.0,0.0,-0.2228829842270377,0.0,0.0,-0.3593600339474033,0.1830509288999999,1.6402798923,9.418149753599998,0.5175302624702454,-0.4734439253807068,0.4349824488162994,0.5646268129348755,6,44.82472330729167,-73.16463216145833,-1.6797614652000001,9.3966143502,-0.0933200814,-1.6007983194000002,9.439685157,-0.2727817764,-0.024740042057999997,0.043371431756,0.015882496136,0.008857545922,0.003359758798,-0.002443460944,-0.7482,-1.3427,-1.64314,-0.45008,-0.30102,-0.5336,-1.6402798923000002,9.4181497536,-0.18305092890000002,-0.007941248068,0.023365595277,0.006719517596,-0.59914,-0.82186,-1.08837,-2.82432,3.29504,10.35584,1.0062768319763138,44.495000000000005
4956,0,534584,0,-235,1311,3,-82,158,65,-1269,-2302,-2801,-224,1318,-31,22,17,-4,-776,-519,-920,-112,112,336,42.4,1.0059807549962991,46.61,1.006720947446336,4449.4833984375,-7309.8779296875,34.5,11.9654541015625,3,0,0.0,0.0,0.0,0.0,-0.2120930530964328,0.0,0.0,-0.3480717536147092,0.1004985491999999,1.6474583601,9.436095923099998,0.517554759979248,-0.4734759926795959,0.4349071085453033,0.5646356344223022,6,44.82472330729167,-73.16463216145833,-1.6869399330000001,9.4109712858,0.0215354034,-1.6079767872000001,9.461220560400001,-0.2225325018,-0.025045474675999997,0.048258353643999996,0.01985312017,0.006719517596,0.005192354505999999,-0.001221730472,-0.73602,-1.33516,-1.62458,-0.45008,-0.30102,-0.5336,-1.6474583601000001,9.436095923100002,-0.10049854920000001,-0.009162978539999998,0.026725354075,0.009315694849,-0.59305,-0.81809,-1.0790899999999999,-3.29504,3.29504,9.88512,1.0063508512213175,44.504999999999995
4957,0,534690,0,-239,1313,-6,-111,174,63,-1269,-2302,-2801,-229,1320,-37,9,24,-13,-779,-536,-920,-128,-32,464,42.41,1.0059412780656305,46.61,1.0064347396989883,4449.4833984375,-7309.8779296875,34.5,11.9818115234375,3,0,0.0,0.0,0.0,0.0,-0.2657412415318534,0.0,0.0,-0.399569281783652,0.1543370577,1.6797614652,9.4504528587,0.5176059603691101,-0.4731967449188232,0.4351228177547455,0.5646567344665527,6,44.82472330729167,-73.16463216145833,-1.7156538042,9.425328221400001,-0.0430708068,-1.6438691262,9.475577496,-0.26560330860000003,-0.033903020597999996,0.053145275532,0.019242254934,0.002748893562,0.007330382832,-0.003970624034,-0.73602,-1.33516,-1.62458,-0.45182,-0.31088,-0.5336,-1.6797614652,9.4504528587,-0.1543370577,-0.015577063517999997,0.030237829182,0.00763581545,-0.59392,-0.82302,-1.0790899999999999,-3.76576,-0.94144,13.65088,1.0061880088823094,44.51
4958,0,534795,0,-238,1306,-17,-114,168,56,-1293,-2314,-2833,-228,1313,-48,11,35,-23,-779,-536,-920,-80,112,368,42.4,1.0057537626449544,46.61,1.0066716012830002,4449.4833984375,-7309.8779296875,34.5,11.9654541015625,3,0,0.0,0.0,0.0,0.0,-0.2020453952170252,0.0,0.0,-0.3273699401062613,0.2333002035,1.6725829973999995,9.400203584099998,0.5175955295562744,-0.4728265702724457,0.4355493485927582,0.5646474957466125,6,44.82472330729167,-73.16463216145833,-1.7084753364,9.3750789468,-0.12203395260000001,-1.6366906584,9.425328221400001,-0.3445664544,-0.034819318451999995,0.051312679824,0.017104226607999998,0.003359758798,0.010690141629999999,-0.0070249502139999994,-0.74994,-1.34212,-1.64314,-0.45182,-0.31088,-0.5336,-1.6725829974000002,9.400203584100002,-0.2333002035,-0.015729779827,0.031001410727,0.005039638196999999,-0.6008800000000001,-0.8265,-1.08837,-2.3536,3.29504,10.82656,1.0062126819639774,44.504999999999995
4959,0,534900,0,-231,1307,-20,-94,159,60,-1293,-2314,-2833,-219,1316,-49,20,25,-9,-775,-512,-935,-160,128,448,42.39,1.005911670367629,46.61,1.0066716012830002,4449.4833984375,-7309.8779296875,34.5,11.9654541015625,3,0,0.0,0.0,0.0,0.0,-0.2594266322777377,0.0,0.0,-0.3897463116602492,0.2476571390999999,1.615155255,9.4145605197,0.5176084637641907,-0.4726554453372955,0.4357801377773285,0.5646007657051086,6,44.82472330729167,-73.16463216145833,-1.6582260618,9.3822574146,-0.143569356,-1.5720844482,9.4468636248,-0.35174492220000003,-0.028710666091999997,0.048563786261999996,0.01832595708,0.0061086523599999994,0.00763581545,-0.002748893562,-0.74994,-1.34212,-1.64314,-0.4495,-0.29696,-0.5423,-1.615155255,9.4145605197,-0.24765713910000003,-0.011301006866,0.028099800855999998,0.007788531759,-0.59972,-0.8195399999999999,-1.09272,-4.7072,3.76576,13.18016,1.0062916358253147,44.5
4960,0,535006,0,-228,1309,-9,-73,133,63,-1289,-2312,-2780,-223,1317,-45,39,4,-12,-775,-512,-935,-176,112,368,42.42,1.0059610165309647,46.61,1.0065630397236616,4449.4833984375,-7309.8779296875,34.5,11.9981689453125,3,0,0.0,0.0,0.0,0.0,-0.2531124333290582,0.0,0.0,-0.3777169686022282,0.1938186305999999,1.6187444889,9.4253282214,0.5175544023513794,-0.4727832078933716,0.435656875371933,0.5646383762359619,6,44.82472330729167,-73.16463216145833,-1.6366906584,9.3966143502,-0.0646062102,-1.6007983194000002,9.4540420926,-0.323031051,-0.022296581114,0.040622538193999996,0.019242254934,0.011911872102,0.001221730472,-0.003665191416,-0.74762,-1.34096,-1.6124,-0.4495,-0.29696,-0.5423,-1.6187444889,9.425328221400001,-0.1938186306,-0.005192354506,0.020922134332999998,0.007788531759,-0.59856,-0.8189599999999999,-1.07735,-5.17792,3.29504,10.82656,1.0062620281273131,44.515
4961,0,535111,0,-242,1304,2,-93,162,69,-1280,-2314,-2791,-236,1316,-27,29,20,-4,-775,-513,-935,-160,64,368,42.39,1.0060794473229706,46.61,1.0066814705156677,4449.4833984375,-7309.8779296875,34.5,11.9490966796875,3,0,0.0,0.0,0.0,0.0,-0.270520595391258,0.0,0.0,-0.3958391680265032,0.0897308474999999,1.7156538042,9.403792818,0.5296409726142883,-0.4642217457294464,0.4438413083553314,0.5540609955787659,6,44.82472330729167,-73.16463216145833,-1.7371892076000002,9.3607220112,0.0143569356,-1.6941184008,9.4468636248,-0.1938186306,-0.028405233473999997,0.049480084115999995,0.021074850641999997,0.008857545922,0.0061086523599999994,-0.001221730472,-0.7424,-1.34212,-1.61878,-0.4495,-0.29754,-0.5423,-1.7156538042,9.403792818,-0.0897308475,-0.009773843775999998,0.027794368237999998,0.009926560085,-0.59595,-0.8198300000000001,-1.08054,-4.7072,1.88288,10.82656,1.006380458919319,44.5
4962,0,535217,0,-233,1308,-8,-113,175,56,-1280,-2314,-2791,-228,1317,-38,19,45,-28,-775,-513,-935,-64,64,336,42.4,1.0058623242042932,46.61,1.006661732050333,4449.4833984375,-7309.8779296875,34.5,11.9981689453125,3,0,0.0,0.0,0.0,0.0,-0.1876116300541624,0.0,0.0,-0.3061049158583563,0.1651047593999999,1.6546368279,9.4217389875,0.5296319723129272,-0.4640195965766907,0.4440802931785583,0.5540475249290466,6,44.82472330729167,-73.16463216145833,-1.6725829974000002,9.3894358824,-0.0574277424,-1.6366906584,9.4540420926,-0.2727817764,-0.034513885833999995,0.05345070815,0.017104226607999998,0.005803219742,0.01374446781,-0.008552113303999999,-0.7424,-1.34212,-1.61878,-0.4495,-0.29754,-0.5423,-1.6546368279,9.4217389875,-0.1651047594,-0.014355333045999997,0.033597587979999996,0.004276056651999999,-0.59595,-0.8198300000000001,-1.08054,-1.88288,1.88288,9.88512,1.0062620281273131,44.504999999999995
4963,0,535322,0,-230,1311,-15,-102,159,57,-1293,-2329,-2792,-226,1320,-50,10,18,-16,-773,-521,-952,-128,64,368,42.41,1.005901801134962,46.61,1.0066814705156677,4449.4833984375,-7309.8779296875,34.5,11.9654541015625,3,0,0.0,0.0,0.0,0.0,-0.1798480964517157,0.0,0.0,-0.3023669296355807,0.2333002034999999,1.6366906583999998,9.4432743909,0.5295684337615967,-0.4637669920921325,0.4444962441921234,0.5539860129356384,6,44.82472330729167,-73.16463216145833,-1.651047594,9.4109712858,-0.107677017,-1.6223337228,9.475577496,-0.35892339,-0.031154127036,0.048563786261999996,0.017409659225999997,0.0030543261799999997,0.005497787124,-0.004886921888,-0.74994,-1.35082,-1.61936,-0.44834,-0.30218,-0.55216,-1.6366906584,9.443274390900001,-0.2333002035,-0.014049900427999999,0.027030786693,0.006261368668999999,-0.59914,-0.8265,-1.08576,-3.76576,1.88288,10.82656,1.006291635825315,44.51
4964,0,535428,0,-228,1309,-15,-89,160,64,-1293,-2329,-2792,-220,1312,-43,29,11,-8,-773,-521,-952,-96,96,432,42.42,1.0059610165309647,46.63,1.006661732050333,4449.4833984375,-7309.8779296875,34.5,11.9654541015625,3,0,0.0,0.0,0.0,0.0,-0.1942847473700306,0.0,0.0,-0.3223575536448108,0.2081755661999999,1.6079767871999997,9.4073820519,0.529606819152832,-0.4636231362819671,0.4446617066860199,0.5539370179176331,6,44.82472330729167,-73.16463216145833,-1.6366906584,9.3966143502,-0.107677017,-1.579262916,9.4181497536,-0.3086741154,-0.027183503002,0.048869218879999995,0.019547687552,0.008857545922,0.003359758798,-0.002443460944,-0.74994,-1.35082,-1.61936,-0.44834,-0.30218,-0.55216,-1.6079767872000001,9.4073820519,-0.2081755662,-0.009162978539999998,0.026114488838999996,0.008552113303999999,-0.59914,-0.8265,-1.08576,-2.82432,2.82432,12.70944,1.0063113742906489,44.525000000000006
4965,0,535533,0,-238,1308,-1,-78,153,70,-1299,-2314,-2827,-226,1316,-40,25,16,-2,-758,-518,-940,-80,112,352,42.41,1.0059412780656305,46.62,1.00653343202566,4449.4833984375,-7309.8779296875,34.5,11.9654541015625,3,0,0.0,0.0,0.0,0.0,-0.1810115140345155,0.0,0.0,-0.3104179703876684,0.1471585898999999,1.6654045296,9.418149753599998,0.5297056436538696,-0.4636036157608032,0.4445078670978546,0.5539824366569519,6,44.82472330729167,-73.16463216145833,-1.7084753364,9.3894358824,-0.0071784678,-1.6223337228,9.4468636248,-0.287138712,-0.023823744204,0.046731190554,0.021380283259999997,0.00763581545,0.004886921888,-0.000610865236,-0.75342,-1.34212,-1.6396600000000001,-0.43964,-0.30044,-0.5452,-1.6654045296,9.418149753600002,-0.1471585899,-0.008093964377,0.025809056221,0.010384709011999999,-0.59653,-0.82128,-1.09243,-2.3536,3.29504,10.35584,1.0062373550456454,44.515
4966,0,535639,0,-241,1307,3,-111,169,58,-1299,-2314,-2827,-233,1310,-24,17,16,-17,-758,-518,-940,0,64,400,42.42,1.0059610165309647,46.62,1.0065827781889958,4449.4833984375,-7309.8779296875,34.5,11.9654541015625,3,0,0.0,0.0,0.0,0.0,-0.0957813305728423,0.0,0.0,-0.229848557638965,0.0753739119,1.7012968685999998,9.3930251163,0.529741108417511,-0.4634990096092224,0.4445351362228393,0.5540141463279724,6,44.82472330729167,-73.16463216145833,-1.7300107398,9.3822574146,0.0215354034,-1.6725829974000002,9.403792818000001,-0.1722832272,-0.033903020597999996,0.051618112442,0.017715091844,0.005192354505999999,0.004886921888,-0.005192354505999999,-0.75342,-1.34212,-1.6396600000000001,-0.43964,-0.30044,-0.5452,-1.7012968686,9.3930251163,-0.0753739119,-0.014355333045999999,0.028252517165,0.006261368669000001,-0.59653,-0.82128,-1.09243,0.0,1.88288,11.768,1.0062718973599802,44.519999999999996
4967,0,535744,0,-236,1308,-9,-137,187,46,-1291,-2308,-2785,-227,1319,-41,-5,45,-25,-760,-518,-917,-96,144,416,42.43,1.0058129780409573,46.62,1.0068097705403405,4449.4833984375,-7309.8779296875,34.5,11.9981689453125,3,0,0.0,0.0,0.0,0.0,-0.1503204389831763,0.0,0.0,-0.3021611488389414,0.179461695,1.6618152957,9.4289174553,0.5297152400016785,-0.4631349444389343,0.4450654685497284,0.5539175868034363,6,44.82472330729167,-73.16463216145833,-1.6941184008,9.3894358824,-0.0646062102,-1.6295121906,9.4683990282,-0.2943171798,-0.041844268665999995,0.057115899565999995,0.014049900427999999,-0.0015271630899999999,0.01374446781,-0.00763581545,-0.74878,-1.33864,-1.6153,-0.4408,-0.30044,-0.53186,-1.6618152957,9.4289174553,-0.179461695,-0.021685715877999997,0.035430183687999994,0.0032070424889999996,-0.59479,-0.81954,-1.07358,-2.82432,4.23648,12.23872,1.0063113742906489,44.525
4968,0,535849,0,-225,1298,-20,-105,178,52,-1291,-2308,-2785,-218,1317,-52,7,46,-20,-764,-497,-957,-96,32,352,42.42,1.0060794473229706,46.63,1.0065433012583271,4449.4833984375,-7309.8779296875,34.5,11.9654541015625,3,0,0.0,0.0,0.0,0.0,-0.1552910930975041,0.0,0.0,-0.3142294253932595,0.2584248407999999,1.5900306177,9.3858466485,0.5296874642372131,-0.4627654254436493,0.4456130862236023,0.553812563419342,6,44.82472330729167,-73.16463216145833,-1.6151552550000001,9.3176512044,-0.143569356,-1.5649059804,9.4540420926,-0.3732803256,-0.03207042489,0.054367006004,0.015882496136,0.0021380283259999997,0.014049900427999999,-0.0061086523599999994,-0.74878,-1.33864,-1.6153,-0.44312,-0.28826,-0.55506,-1.5900306177,9.3858466485,-0.2584248408,-0.014966198282,0.034208453215999995,0.004886921888,-0.59595,-0.81345,-1.08518,-2.82432,0.94144,10.35584,1.0063113742906489,44.525000000000006
4969,0,535955,0,-225,1312,-22,-82,167,70,-1290,-2322,-2783,-223,1318,-57,28,31,-5,-764,-497,-957,-144,-16,400,42.43,1.005921539600296,46.63,1.0065926474216629,4449.4833984375,-7309.8779296875,34.5,11.9654541015625,3,0,0.0,0.0,0.0,0.0,-0.1507894069961957,0.0,0.0,-0.3141442946880939,0.2835494781,1.6079767872,9.439685157,0.5300310254096985,-0.4624682068824768,0.4458439946174621,0.5535463690757751,6,44.82472330729167,-73.16463216145833,-1.6151552550000001,9.4181497536,-0.15792629160000002,-1.6007983194000002,9.461220560400001,-0.4091726646,-0.025045474675999997,0.051007247206,0.021380283259999997,0.008552113303999999,0.009468411158,-0.0015271630899999999,-0.7482,-1.34676,-1.61414,-0.44312,-0.28826,-0.55506,-1.6079767872000001,9.439685157,-0.28354947810000003,-0.008246680686,0.030237829182,0.009926560085,-0.59566,-0.81751,-1.0846,-4.23648,-0.47072,11.768,1.0062570935109796,44.53
4970,0,536060,0,-242,1312,3,-78,199,56,-1290,-2322,-2783,-223,1319,-25,52,70,-15,-774,-506,-941,-192,64,432,42.42,1.005852454971626,46.63,1.006651862817666,4449.4833984375,-7309.8779296875,34.5,11.9654541015625,3,0,0.0,0.0,0.0,0.0,-0.125978558685122,0.0,0.0,-0.2916272236911661,0.0789631458,1.6689937635,9.4432743909,0.5298200249671936,-0.4628406167030334,0.4453316926956177,0.5538492202758789,6,44.82472330729167,-73.16463216145833,-1.7371892076000002,9.4181497536,0.0215354034,-1.6007983194000002,9.4683990282,-0.179461695,-0.023823744204,0.060781090982,0.017104226607999998,0.015882496136,0.021380283259999997,-0.00458148927,-0.7482,-1.34676,-1.61414,-0.44892,-0.29348,-0.54578,-1.6689937635,9.443274390900001,-0.0789631458,-0.003970624034,0.041080687121,0.006261368668999999,-0.59856,-0.82012,-1.07996,-5.64864,1.88288,12.70944,1.0062521588946458,44.525000000000006
4971,0,536166,0,-238,1312,12,-120,147,48,-1293,-2317,-2781,-234,1319,-24,7,0,-22,-774,-506,-941,-112,112,320,42.42,1.005852454971626,46.63,1.0066025166543302,4449.4833984375,-7309.8779296875,34.70000076293945,11.9654541015625,3,0,0.0,0.0,0.0,0.0,-0.1678992697730905,0.0,0.0,-0.3399746167876639,0.0430708068,1.6941184008,9.4432743909,0.5286778807640076,-0.4649677872657776,0.4435584843158722,0.5545815229415894,6,44.82472330729167,-73.16463216145833,-1.7084753364,9.4181497536,0.0861416136,-1.6797614652000001,9.4683990282,-0.1722832272,-0.03665191416,0.044898594846,0.014660765664,0.0021380283259999997,0.0,-0.006719517596,-0.74994,-1.34386,-1.61298,-0.44892,-0.29348,-0.54578,-1.6941184008,9.443274390900001,-0.0430708068,-0.017256942917,0.022449297423,0.003970624034,-0.59943,-0.81867,-1.07938,-3.29504,3.29504,9.4144,1.006227485812978,44.525000000000006
4972,0,536271,0,-234,1311,-12,-123,179,52,-1293,-2317,-2781,-222,1315,-38,1,44,-16,-792,-543,-945,-176,112,368,42.43,1.0059906242289662,46.63,1.0068196397730076,4449.4833984375,-7309.8779296875,34.70000076293945,11.9818115234375,3,0,0.0,0.0,0.0,0.0,-0.3155194941985698,0.0,0.0,-0.4962348698081542,0.1794616949999999,1.6366906584,9.4253282214,0.528606116771698,-0.4645168483257293,0.4441642463207245,0.5545428395271301,6,44.82472330729167,-73.16463216145833,-1.6797614652000001,9.4109712858,-0.0861416136,-1.5936198516,9.439685157,-0.2727817764,-0.037568212014,0.054672438622,0.015882496136,0.000305432618,0.013439035192,-0.004886921888,-0.74994,-1.34386,-1.61298,-0.45936,-0.31494,-0.5481,-1.6366906584,9.425328221400001,-0.179461695,-0.018631389698,0.034055736907,0.005497787124,-0.60465,-0.8294,-1.08054,-5.17792,3.29504,10.82656,1.006405132000987,44.53
4973,0,536377,0,-230,1313,-20,-99,295,61,-1271,-2299,-2802,-224,1318,-59,22,162,-8,-792,-543,-945,-112,112,416,42.43,1.005921539600296,46.64,1.0065531704909942,4449.4833984375,-7309.8779296875,34.70000076293945,11.9654541015625,3,0,0.0,0.0,0.0,0.0,-0.278881464795737,0.0,0.0,-0.44447964141434,0.2835494781,1.6295121906,9.4432743909,0.529245138168335,-0.4636249542236328,0.4450997412204742,0.5539294481277466,6,44.82472330729167,-73.16463216145833,-1.651047594,9.425328221400001,-0.143569356,-1.6079767872000001,9.461220560400001,-0.4235296002,-0.030237829182,0.09010262230999999,0.018631389698,0.006719517596,0.049480084115999995,-0.002443460944,-0.7371800000000001,-1.33342,-1.62516,-0.45936,-0.31494,-0.5481,-1.6295121906,9.443274390900001,-0.28354947810000003,-0.011759155793,0.06979135321299999,0.008093964377,-0.5982700000000001,-0.82418,-1.08663,-3.29504,3.29504,12.23872,1.0062373550456452,44.535
4974,0,536482,0,-238,1312,-10,-64,96,66,-1271,-2299,-2802,-227,1319,-36,48,-32,-4,-765,-528,-956,-80,64,352,42.41,1.0058327165062917,46.62,1.0068097705403405,4449.4833984375,-7309.8779296875,34.70000076293945,11.9981689453125,3,0,0.0,0.0,0.0,0.0,-0.2715745528521052,0.0,0.0,-0.4267676247979302,0.1651047594,1.6689937634999998,9.4432743909,0.5299309492111206,-0.4631286561489105,0.4454293847084045,0.5534236431121826,6,44.82472330729167,-73.16463216145833,-1.7084753364,9.4181497536,-0.071784678,-1.6295121906,9.4683990282,-0.2584248408,-0.019547687552,0.029321531328,0.020158552788,0.014660765664,-0.009773843776,-0.001221730472,-0.7371800000000001,-1.33342,-1.62516,-0.4437,-0.30624,-0.55448,-1.6689937635,9.443274390900001,-0.1651047594,-0.0024434609439999994,0.009773843776000001,0.009468411158,-0.5904400000000001,-0.8198300000000001,-1.08982,-2.3536,1.88288,10.35584,1.006321243523316,44.515
4975,0,536587,0,-244,1307,4,-86,-50,51,-1291,-2333,-2799,-235,1321,-34,35,-175,-15,-765,-528,-956,-96,96,400,42.42,1.0058623242042932,46.63,1.0065433012583271,4449.4833984375,-7309.8779296875,34.70000076293945,11.9490966796875,3,0,0.0,0.0,0.0,0.0,-0.2948371352770539,0.0,0.0,-0.4414756633010446,0.107677017,1.7192430381,9.4325066892,0.5289620161056519,-0.4640358090400696,0.4444358050823211,0.5543888211250305,6,44.82472330729167,-73.16463216145833,-1.7515461432000001,9.3822574146,0.0287138712,-1.6869399330000001,9.4827559638,-0.24406790520000002,-0.026267205148,-0.0152716309,0.015577063518,0.010690141629999999,-0.05345070815,-0.00458148927,-0.74878,-1.35314,-1.62342,-0.4437,-0.30624,-0.55448,-1.7192430381000001,9.4325066892,-0.10767701700000001,-0.0077885317590000004,-0.034361169525,0.005497787124,-0.59624,-0.82969,-1.08895,-2.82432,2.82432,11.768,1.0062028127313103,44.525000000000006
4976,0,536693,0,-224,1312,-2,-112,202,46,-1291,-2333,-2799,-213,1316,-37,-5,63,-30,-763,-523,-928,-112,32,368,42.43,1.0058820626696274,46.62,1.0065827781889958,4449.4833984375,-7309.8779296875,34.70000076293945,11.9654541015625,3,0,0.0,0.0,0.0,0.0,-0.2441047475040164,0.0,0.0,-0.3792008765698705,0.1399801221,1.5684952143,9.4325066892,0.528447687625885,-0.4642549455165863,0.4443949162960052,0.5547283291816711,6,44.82472330729167,-73.16463216145833,-1.6079767872000001,9.4181497536,-0.0143569356,-1.5290136414,9.4468636248,-0.26560330860000003,-0.034208453215999995,0.061697388836,0.014049900427999999,-0.0015271630899999999,0.019242254934,-0.00916297854,-0.74878,-1.35314,-1.62342,-0.44254,-0.30334,-0.53824,-1.5684952143,9.4325066892,-0.13998012210000002,-0.017867808152999997,0.040469821885,0.0024434609439999994,-0.59566,-0.82824,-1.0808300000000002,-3.29504,0.94144,10.82656,1.0062324204293116,44.525
4977,0,536798,0,-229,1306,-15,-118,224,65,-1288,-2326,-2778,-219,1313,-50,3,78,-9,-763,-523,-928,-80,96,384,42.44,1.0058919319022943,46.64,1.0066814705156677,4449.4833984375,-7309.8779296875,34.70000076293945,11.9654541015625,3,0,0.0,0.0,0.0,0.0,-0.2831586190699792,0.0,0.0,-0.4161524139109367,0.2333002034999999,1.6079767871999997,9.400203584099998,0.5284969806671143,-0.4637242257595062,0.4449896514415741,0.5546485781669617,6,44.82472330729167,-73.16463216145833,-1.6438691262,9.3750789468,-0.107677017,-1.5720844482,9.425328221400001,-0.35892339,-0.036041048924,0.06841690643199999,0.01985312017,0.000916297854,0.023823744204,-0.002748893562,-0.74704,-1.34908,-1.61124,-0.44254,-0.30334,-0.53824,-1.6079767872000001,9.400203584100002,-0.2333002035,-0.017562375535,0.04612032531799999,0.008552113303999999,-0.59479,-0.82621,-1.07474,-2.3536,2.82432,11.29728,1.006286701208981,44.54
4978,0,536904,0,-243,1311,-25,-81,320,66,-1270,-2302,-2750,-227,1317,-61,23,184,-3,-751,-525,-970,-112,48,416,42.44,1.0058919319022943,46.64,1.006780162842339,4449.4833984375,-7309.8779296875,34.70000076293945,11.9654541015625,3,0,0.0,0.0,0.0,0.0,-0.3041127684579528,0.0,0.0,-0.4333823097696886,0.3086741154,1.686939933,9.4325066892,0.5297214984893799,-0.4624359309673309,0.4461850523948669,0.553594708442688,6,44.82472330729167,-73.16463216145833,-1.7443676754000002,9.4109712858,-0.179461695,-1.6295121906,9.4540420926,-0.43788653580000003,-0.024740042057999997,0.09773843775999999,0.020158552788,0.0070249502139999994,0.056199601711999995,-0.000916297854,-0.7366,-1.33516,-1.595,-0.43558,-0.3045,-0.5626,-1.6869399330000001,9.4325066892,-0.3086741154,-0.008857545921999999,0.076969019736,0.009621127467,-0.58609,-0.81983,-1.0788,-3.29504,1.41216,12.23872,1.0063360473723166,44.54
4979,0,537009,0,-239,1311,-9,-82,112,52,-1270,-2302,-2750,-232,1319,-39,46,-21,-18,-751,-525,-970,-112,96,304,42.43,1.006099185788305,46.64,1.006780162842339,4449.4833984375,-7309.8779296875,34.70000076293945,11.9981689453125,3,0,0.0,0.0,0.0,0.0,-0.3427596578141403,0.0,0.0,-0.4684371915067208,0.1722832272,1.6905291668999998,9.439685157,0.5299255847930908,-0.462388277053833,0.4462527334690094,0.5533846020698547,6,44.82472330729167,-73.16463216145833,-1.7156538042,9.4109712858,-0.0646062102,-1.6654045296,9.4683990282,-0.2799602442,-0.025045474675999997,0.034208453215999995,0.015882496136,0.014049900427999999,-0.006414084978,-0.005497787124,-0.7366,-1.33516,-1.595,-0.43558,-0.3045,-0.5626,-1.6905291669,9.439685157,-0.1722832272,-0.005497787123999999,0.013897184118999997,0.005192354505999999,-0.58609,-0.81983,-1.0788,-3.29504,2.82432,8.94368,1.006439674315322,44.535
4980,0,537115,0,-236,1313,33,-81,222,42,-1263,-2309,-2751,-218,1318,3,38,75,-23,-768,-533,-952,-160,160,496,42.44,1.0058820626696274,46.65,1.00653343202566,4449.4833984375,-7309.8779296875,34.70000076293945,11.9654541015625,3,0,0.0,0.0,0.0,0.0,-0.1419390111705011,0.0,0.0,-0.250989988620572,-0.1292124204,1.6295121906,9.4432743909,0.5142190456390381,-0.4764453470706939,0.4313119947910309,0.5679336786270142,6,44.82472330729167,-73.16463216145833,-1.6941184008,9.425328221400001,0.2368894374,-1.5649059804,9.461220560400001,0.0215354034,-0.024740042057999997,0.06780604119599999,0.012828169956,0.011606439484,0.02290744635,-0.0070249502139999994,-0.73254,-1.33922,-1.59558,-0.44544,-0.30914,-0.55216,-1.6295121906,9.443274390900001,0.1292124204,-0.006566801286999999,0.045356743772999995,0.0029016098710000003,-0.58899,-0.82418,-1.0738699999999999,-4.7072,4.7072,14.59232,1.0062077473476436,44.545
4981,0,537220,0,-230,1314,16,-112,71,59,-1263,-2309,-2751,-218,1321,-9,22,-68,-21,-768,-533,-952,-192,64,368,42.44,1.0058919319022943,46.64,1.0066123858869973,4449.4833984375,-7309.8779296875,34.70000076293945,11.9981689453125,3,0,0.0,0.0,0.0,0.0,-0.0817454830644486,0.0,0.0,-0.202640982553078,-0.0251246372999999,1.6079767871999997,9.4576313265,0.514285683631897,-0.4761907160282135,0.4317628145217895,0.567744255065918,6,44.82472330729167,-73.16463216145833,-1.651047594,9.4325066892,0.1148554848,-1.5649059804,9.4827559638,-0.0646062102,-0.034208453215999995,0.021685715878,0.018020524462,0.006719517596,-0.020769418023999998,-0.006414084978,-0.73254,-1.33922,-1.59558,-0.44544,-0.30914,-0.55216,-1.6079767872000001,9.4576313265,0.025124637300000002,-0.013744467809999997,0.0004581489270000013,0.005803219742,-0.58899,-0.82418,-1.0738699999999999,-5.64864,1.88288,10.82656,1.0062521588946458,44.54
4982,0,537326,0,-246,1306,3,-106,144,65,-1284,-2338,-2742,-225,1311,-30,19,18,-2,-770,-511,-937,-176,-16,384,42.44,1.006168270416975,46.64,1.0066716012830002,4449.4833984375,-7309.8779296875,34.70000076293945,11.9654541015625,3,0,0.0,0.0,0.0,0.0,-0.0112830129332903,0.0,0.0,-0.1490792939530778,0.0969093152999999,1.6905291668999998,9.3930251163,0.5146884918212891,-0.475478321313858,0.4323757886886596,0.5675097703933716,6,44.82472330729167,-73.16463216145833,-1.7659030788,9.3750789468,0.0215354034,-1.6151552550000001,9.4109712858,-0.215354034,-0.032375857508,0.043982296992,0.01985312017,0.005803219742,0.005497787124,-0.000610865236,-0.74472,-1.35604,-1.59036,-0.4466,-0.29638,-0.54346,-1.6905291669000002,9.3930251163,-0.09690931529999999,-0.013286318882999998,0.024740042058,0.009621127467,-0.5956600000000001,-0.8262099999999999,-1.06691,-5.17792,-0.47072,11.29728,1.0064199358499875,44.54
4983,0,537431,0,-248,1307,4,-83,126,59,-1284,-2338,-2742,-243,1315,-27,23,-13,-7,-770,-511,-937,-144,96,368,42.44,1.0059511472982976,46.65,1.006651862817666,4449.4833984375,-7309.8779296875,34.70000076293945,11.9654541015625,3,0,0.0,0.0,0.0,0.0,0.0057419961665519,0.0,0.0,-0.1555491186223152,0.0825523797,1.7623138449,9.4109712858,0.5149845480918884,-0.4750451445579529,0.4326693415641784,0.5673801302909851,6,44.82472330729167,-73.16463216145833,-1.7802600144,9.3822574146,0.0287138712,-1.7443676754000002,9.439685157,-0.1938186306,-0.025350907293999997,0.038484509868,0.018020524462,0.0070249502139999994,-0.003970624034,-0.0021380283259999997,-0.74472,-1.35604,-1.59036,-0.4466,-0.29638,-0.54346,-1.7623138449,9.410971285799999,-0.08255237970000001,-0.009162978539999998,0.017256942917,0.007941248068,-0.5956600000000001,-0.8262099999999999,-1.06691,-4.23648,2.82432,10.82656,1.0063015050579818,44.545
4984,0,537536,0,-249,1314,5,-88,119,52,-1284,-2308,-2792,-231,1317,-20,43,-11,-26,-772,-504,-949,-208,80,432,42.44,1.0060004934616331,46.64,1.0067406859116703,4449.4833984375,-7309.8779296875,34.70000076293945,11.9654541015625,3,0,0.0,0.0,0.0,0.0,-0.0376456631272689,0.0,0.0,-0.2244549423767545,0.0538385084999999,1.7228322719999998,9.4432743909,0.5151603817939758,-0.4749730825424194,0.4328323006629944,0.5671566128730774,6,44.82472330729167,-73.16463216145833,-1.7874384822,9.4325066892,0.035892339,-1.6582260618,9.4540420926,-0.143569356,-0.026878070384,0.036346481542,0.015882496136,0.013133602574,-0.003359758798,-0.007941248068,-0.74472,-1.33864,-1.61936,-0.44776,-0.29232,-0.55042,-1.722832272,9.443274390900001,-0.05383850850000001,-0.006872233905,0.016493361372000002,0.003970624034,-0.59624,-0.81548,-1.08489,-6.11936,2.3536,12.70944,1.0063705896866517,44.54
4985,0,537642,0,-234,1309,8,-88,143,58,-1284,-2308,-2792,-224,1318,-13,28,6,-21,-772,-504,-949,-128,-32,400,42.44,1.0058425857389588,46.65,1.0067505551443374,4449.4833984375,-7309.8779296875,34.70000076293945,11.9818115234375,3,0,0.0,0.0,0.0,0.0,0.0225550462577887,0.0,0.0,-0.1768372358398257,0.0179461694999999,1.6438691261999998,9.4289174553,0.5153492093086243,-0.4747619926929474,0.4332048892974853,0.5668773055076599,6,44.82472330729167,-73.16463216145833,-1.6797614652000001,9.3966143502,0.0574277424,-1.6079767872000001,9.461220560400001,-0.0933200814,-0.026878070384,0.043676864374,0.017715091844,0.008552113303999999,0.001832595708,-0.006414084978,-0.74472,-1.33864,-1.61936,-0.44776,-0.29232,-0.55042,-1.6438691262000003,9.4289174553,-0.0179461695,-0.00916297854,0.022754730041,0.005650503433,-0.59624,-0.81548,-1.08489,-3.76576,-0.94144,11.768,1.006296570441648,44.545
4986,0,537747,0,-241,1311,5,-114,174,70,-1283,-2324,-2804,-226,1313,-30,12,20,-9,-792,-523,-944,-96,64,400,42.44,1.0058820626696274,46.65,1.0067012089810017,4449.4833984375,-7309.8779296875,34.70000076293945,11.9654541015625,3,0,0.0,0.0,0.0,0.0,0.0189803198675332,0.0,0.0,-0.1988996870158795,0.0897308474999999,1.6761722312999998,9.418149753599998,0.5156463980674744,-0.4741245806217193,0.4337829649448395,0.5666983127593994,6,44.82472330729167,-73.16463216145833,-1.7300107398,9.4109712858,0.035892339,-1.6223337228,9.425328221400001,-0.215354034,-0.034819318451999995,0.053145275532,0.021380283259999997,0.003665191416,0.0061086523599999994,-0.002748893562,-0.74414,-1.34792,-1.62632,-0.45936,-0.30334,-0.54752,-1.6761722313,9.418149753600002,-0.0897308475,-0.015577063517999997,0.029626963946,0.009315694848999998,-0.60175,-0.82563,-1.08692,-2.82432,1.88288,11.768,1.0062916358253147,44.545
4987,0,537853,0,-255,1307,-6,-107,98,58,-1283,-2324,-2804,-247,1319,-40,21,-26,-7,-792,-523,-944,-96,128,416,42.44,1.005852454971626,46.64,1.0066222551196644,4449.4833984375,-7309.8779296875,34.70000076293945,11.9327392578125,3,0,0.0,0.0,0.0,0.0,0.0470056374199789,0.0,0.0,-0.1889694784786504,0.1651047593999999,1.8017954178,9.4253282214,0.5159985423088074,-0.4734278321266174,0.4343327283859253,0.5665392279624939,6,44.82472330729167,-73.16463216145833,-1.830509289,9.3822574146,-0.0430708068,-1.7730815466,9.4683990282,-0.287138712,-0.032681290126,0.029932396564,0.017715091844,0.006414084978,-0.007941248068,-0.0021380283259999997,-0.74414,-1.34792,-1.62632,-0.45936,-0.30334,-0.54752,-1.8017954178000002,9.425328221400001,-0.16510475940000002,-0.013133602573999998,0.010995574248,0.0077885317590000004,-0.60175,-0.82563,-1.08692,-2.82432,3.76576,12.23872,1.0062373550456452,44.54
4988,0,537958,0,-249,1310,-5,-76,120,51,-1270,-2332,-2788,-240,1319,-37,42,-14,-20,-762,-514,-936,-112,160,240,42.45,1.005852454971626,46.66,1.0066025166543302,4449.4833984375,-7309.8779296875,34.70000076293945,11.9654541015625,3,0,0.0,0.0,0.0,0.0,0.0177747569154538,0.0,0.0,-0.2369667197458013,0.1507478237999999,1.7551353770999998,9.436095923099998,0.5162160396575928,-0.4731506407260895,0.4346131682395935,0.5663576126098633,6,44.82472330729167,-73.16463216145833,-1.7874384822,9.403792818000001,-0.035892339,-1.722832272,9.4683990282,-0.26560330860000003,-0.023212878968,0.03665191416,0.015577063518,0.012828169956,-0.004276056651999999,-0.0061086523599999994,-0.7366,-1.35256,-1.61704,-0.44196,-0.29812,-0.54288,-1.7551353771,9.436095923100002,-0.1507478238,-0.005192354505999999,0.016187928754,0.004734205579,-0.58928,-0.82534,-1.07996,-3.29504,4.7072,7.0608,1.006227485812978,44.555
4989,0,538064,0,-242,1315,5,-81,113,42,-1270,-2332,-2788,-235,1314,-23,37,-13,-26,-762,-514,-936,-128,64,448,42.44,1.0060695780903035,46.65,1.0064840858623243,4449.4833984375,-7309.8779296875,34.70000076293945,11.9654541015625,3,0,0.0,0.0,0.0,0.0,-0.0336625884770355,0.0,0.0,-0.3032839391958138,0.0646062102,1.7120645703,9.436095923099998,0.5162968635559082,-0.4731998145580292,0.434765100479126,0.5661261081695557,6,44.82472330729167,-73.16463216145833,-1.7371892076000002,9.439685157,0.035892339,-1.6869399330000001,9.4325066892,-0.1651047594,-0.024740042057999997,0.034513885833999995,0.012828169956,0.011301006866,-0.003970624034,-0.007941248068,-0.7366,-1.35256,-1.61704,-0.44196,-0.29812,-0.54288,-1.7120645703000001,9.4360959231,-0.0646062102,-0.006719517595999999,0.015271630899999998,0.0024434609440000003,-0.58928,-0.82534,-1.07996,-3.76576,1.88288,13.18016,1.0062768319763138,44.545
4990,0,538169,0,-235,1309,5,-102,161,59,-1277,-2325,-2745,-223,1318,-24,16,14,-12,-757,-506,-943,-96,96,400,42.45,1.005852454971626,46.64,1.0067406859116703,4449.4833984375,-7309.8779296875,34.70000076293945,11.9654541015625,3,0,0.0,0.0,0.0,0.0,-0.0389145816339722,0.0,0.0,-0.3150038017180083,0.0681954441,1.6438691261999998,9.4289174553,0.5368459224700928,-0.4588943719863891,0.4533722102642059,0.5437518358230591,6,44.82472330729167,-73.16463216145833,-1.6869399330000001,9.3966143502,0.035892339,-1.6007983194000002,9.461220560400001,-0.1722832272,-0.031154127036,0.049174651497999995,0.018020524462,0.004886921888,0.004276056651999999,-0.003665191416,-0.74066,-1.3485,-1.5921,-0.43906,-0.29348,-0.54694,-1.6438691262000003,9.4289174553,-0.0681954441,-0.013133602574,0.026725354075,0.007177666523,-0.58986,-0.82099,-1.06952,-2.82432,2.82432,11.768,1.006296570441648,44.545
4991,0,538275,0,-246,1315,-12,-109,167,72,-1277,-2325,-2745,-243,1311,-42,1,22,-9,-757,-506,-943,-160,-16,512,42.46,1.006109055020972,46.64,1.0066321243523315,4449.4833984375,-7309.8779296875,34.70000076293945,11.9818115234375,3,0,0.0,0.0,0.0,0.0,-0.1139531080777908,0.0,0.0,-0.3947119801344024,0.1938186305999999,1.7551353770999998,9.4253282214,0.5371609330177307,-0.4581265151500702,0.4539284408092499,0.5436240434646606,6,44.82472330729167,-73.16463216145833,-1.7659030788,9.439685157,-0.0861416136,-1.7443676754000002,9.4109712858,-0.3014956476,-0.033292155361999996,0.051007247206,0.021991148496,0.000305432618,0.006719517596,-0.002748893562,-0.74066,-1.3485,-1.5921,-0.43906,-0.29348,-0.54694,-1.7551353771000002,9.425328221400001,-0.1938186306,-0.016493361372,0.028863382401,0.009621127467,-0.58986,-0.82099,-1.06952,-4.7072,-0.47072,15.06304,1.0063705896866517,44.55
4992,0,538380,0,-248,1306,-18,-107,149,57,-1267,-2319,-2784,-239,1311,-51,15,13,-14,-789,-507,-962,-112,80,336,42.46,1.0058228472736244,46.65,1.0065827781889958,4449.4833984375,-7309.8779296875,34.70000076293945,11.9654541015625,3,0,0.0,0.0,0.0,0.0,-0.0963079346799467,0.0,0.0,-0.3721388503103067,0.2476571390999999,1.7479569092999998,9.3930251163,0.5374722480773926,-0.4574550688266754,0.4544984400272369,0.5434057712554932,6,44.82472330729167,-73.16463216145833,-1.7802600144,9.3750789468,-0.1292124204,-1.7156538042,9.4109712858,-0.36610185780000004,-0.032681290126,0.045509460082,0.017409659225999997,0.00458148927,0.003970624034,-0.004276056651999999,-0.73486,-1.34502,-1.61472,-0.45762,-0.29406,-0.55796,-1.7479569093,9.3930251163,-0.24765713910000003,-0.014049900427999999,0.024740042057999997,0.006566801286999999,-0.59624,-0.81954,-1.0863399999999999,-3.29504,2.3536,9.88512,1.00620281273131,44.555
4993,0,538485,0,-239,1314,-12,-71,129,46,-1267,-2319,-2784,-234,1315,-40,39,-17,-30,-789,-507,-962,-96,112,448,42.45,1.0058623242042932,46.64,1.0068492474710091,4449.4833984375,-7309.8779296875,34.70000076293945,11.9490966796875,3,0,0.0,0.0,0.0,0.0,-0.1650558667377193,0.0,0.0,-0.4423843163460377,0.1866401627999999,1.6977076347,9.436095923099998,0.5376296639442444,-0.4573093354701996,0.4547497928142547,0.5431623458862305,6,44.82472330729167,-73.16463216145833,-1.7156538042,9.4325066892,-0.0861416136,-1.6797614652000001,9.439685157,-0.287138712,-0.021685715878,0.039400807722,0.014049900427999999,0.011911872102,-0.005192354505999999,-0.00916297854,-0.73486,-1.34502,-1.61472,-0.45762,-0.29406,-0.55796,-1.6977076347,9.4360959231,-0.1866401628,-0.004886921888000001,0.017104226607999998,0.0024434609439999994,-0.59624,-0.81954,-1.0863399999999999,-2.82432,3.29504,13.18016,1.006355785837651,44.545
4994,0,538591,0,-230,1304,2,-78,134,59,-1275,-2298,-2785,-220,1316,-36,25,-2,-12,-797,-524,-956,-160,32,368,42.46,1.0058721934369603,46.66,1.0066123858869973,4449.4833984375,-7309.8779296875,34.79999923706055,11.9654541015625,3,0,0.0,0.0,0.0,0.0,-0.1922260107952227,0.0,0.0,-0.4598976135281973,0.1220339526,1.615155255,9.403792818,0.5377501249313354,-0.4572571218013763,0.4548938572406769,0.5429663062095642,6,44.82472330729167,-73.16463216145833,-1.651047594,9.3607220112,0.0143569356,-1.579262916,9.4468636248,-0.2584248408,-0.023823744204,0.040927970811999996,0.018020524462,0.00763581545,-0.000610865236,-0.003665191416,-0.7395,-1.33284,-1.6153,-0.46226,-0.30392,-0.55448,-1.615155255,9.403792818,-0.1220339526,-0.008093964377,0.020158552788,0.007177666523,-0.6008800000000001,-0.81838,-1.08489,-4.7072,0.94144,10.82656,1.0062422896619787,44.56
4995,0,538696,0,-238,1309,-2,-114,172,72,-1273,-2313,-2786,-230,1313,-37,1,27,-10,-797,-524,-956,-128,16,416,42.46,1.006158401184308,46.65,1.0068097705403405,4449.4833984375,-7309.8779296875,34.79999923706055,11.9981689453125,3,0,0.0,0.0,0.0,0.0,-0.2508349077888017,0.0,0.0,-0.5134451556430253,0.1399801221,1.6797614652,9.4109712858,0.5380415320396423,-0.4567277133464813,0.4552604258060455,0.5428159236907959,6,44.82472330729167,-73.16463216145833,-1.7084753364,9.3966143502,-0.0143569356,-1.651047594,9.425328221400001,-0.26560330860000003,-0.034819318451999995,0.052534410296,0.021991148496,0.000305432618,0.008246680686,-0.0030543261799999997,-0.73834,-1.34154,-1.61588,-0.46226,-0.30392,-0.55448,-1.6797614652,9.4109712858,-0.13998012210000002,-0.017256942916999998,0.030390545491,0.009468411158,-0.6003000000000001,-0.82273,-1.08518,-3.76576,0.47072,12.23872,1.0064840858623243,44.555
4996,0,538802,0,-251,1316,-15,-108,169,58,-1273,-2313,-2786,-235,1314,-55,6,49,-8,-783,-541,-936,-96,64,400,42.45,1.0056945472489514,46.65,1.0067604243770047,4449.4833984375,-7309.8779296875,34.79999923706055,11.9490966796875,3,0,0.0,0.0,0.0,0.0,-0.1358117584309463,0.0,0.0,-0.3794353260919968,0.2512463729999999,1.7443676754,9.439685157,0.5384040474891663,-0.455925703048706,0.4558437466621399,0.5426411628723145,6,44.82472330729167,-73.16463216145833,-1.8017954178,9.4468636248,-0.107677017,-1.6869399330000001,9.4325066892,-0.394815729,-0.032986722744,0.051618112442,0.017715091844,0.001832595708,0.014966198282,-0.002443460944,-0.73834,-1.34154,-1.61588,-0.45414,-0.31378,-0.54288,-1.7443676754,9.439685157,-0.251246373,-0.015577063518,0.033292155362,0.007635815450000001,-0.59624,-0.82766,-1.07938,-2.82432,1.88288,11.768,1.006227485812978,44.55
4997,0,538907,0,-239,1307,-22,-87,160,41,-1307,-2311,-2811,-230,1317,-52,27,11,-27,-783,-541,-936,-128,80,336,42.45,1.0058623242042932,46.66,1.0066716012830002,4449.4833984375,-7309.8779296875,34.79999923706055,11.9654541015625,3,0,0.0,0.0,0.0,0.0,-0.1147252290444877,0.0,0.0,-0.3567919345166268,0.2656033086,1.6833506990999998,9.4181497536,0.5385949015617371,-0.4555214941501617,0.4562944173812866,0.542412281036377,6,44.82472330729167,-73.16463216145833,-1.7156538042,9.3822574146,-0.15792629160000002,-1.651047594,9.4540420926,-0.3732803256,-0.026572637766,0.048869218879999995,0.012522737337999999,0.008246680686,0.003359758798,-0.008246680686,-0.75806,-1.34038,-1.63038,-0.45414,-0.31378,-0.54288,-1.6833506991,9.4181497536,-0.26560330860000003,-0.00916297854,0.026114488838999996,0.0021380283259999997,-0.6061,-0.8270799999999999,-1.08663,-3.76576,2.3536,9.88512,1.0062669627436467,44.555
4998,0,539013,0,-225,1310,-12,-79,131,43,-1307,-2311,-2811,-215,1312,-46,40,6,-24,-780,-545,-903,-160,80,384,42.45,1.005911670367629,46.66,1.0066716012830002,4449.4833984375,-7309.8779296875,34.79999923706055,11.9654541015625,3,0,0.0,0.0,0.0,0.0,-0.128367101186495,0.0,0.0,-0.3701790376149231,0.2081755662,1.5792629159999998,9.4109712858,0.5387155413627625,-0.4554636478424072,0.4564805626869201,0.5421845316886902,6,44.82472330729167,-73.16463216145833,-1.6151552550000001,9.403792818000001,-0.0861416136,-1.5433705770000001,9.4181497536,-0.3302095188,-0.024129176821999998,0.040011672958,0.013133602574,0.012217304719999999,0.001832595708,-0.007330382832,-0.75806,-1.34038,-1.63038,-0.4524,-0.3161,-0.52374,-1.5792629160000002,9.4109712858,-0.2081755662,-0.005955936051,0.020922134332999998,0.002901609871,-0.6052299999999999,-0.82824,-1.07706,-4.7072,2.3536,11.29728,1.0062916358253147,44.555
4999,0,539118,0,-225,1308,0,-103,158,67,-1313,-2309,-2815,-224,1315,-30,24,23,-2,-780,-545,-903,-128,64,384,42.46,1.0059412780656305,46.66,1.006770293609672,4449.4833984375,-7309.8779296875,34.79999923706055,11.9981689453125,3,0,0.0,0.0,0.0,0.0,-0.1731526103077226,0.0,0.0,-0.4190584720481721,0.1076770169999999,1.6115660210999998,9.4145605197,0.5236954092979431,-0.4693347513675689,0.4405803084373474,0.5579937696456909,6,44.82472330729167,-73.16463216145833,-1.6151552550000001,9.3894358824,0.0,-1.6079767872000001,9.439685157,-0.215354034,-0.031459559654,0.048258353643999996,0.020463985405999998,0.007330382832,0.0070249502139999994,-0.000610865236,-0.76154,-1.33922,-1.6327,-0.4524,-0.3161,-0.52374,-1.6115660211000002,9.4145605197,-0.107677017,-0.012064588410999999,0.027641651928999998,0.009926560085,-0.60697,-0.8276600000000001,-1.07822,-3.76576,1.88288,11.29728,1.0063557858376513,44.56
5000,0,539224,0,-239,1308,-13,-118,176,60,-1313,-2309,-2815,-235,1317,-39,-2,51,-9,-785,-507,-923,-80,96,400,42.45,1.005921539600296,46.66,1.0065433012583271,4449.4833984375,-7309.8779296875,34.79999923706055,11.9654541015625,3,0,0.0,0.0,0.0,0.0,-0.261828849545125,0.0,0.0,-0.5040723344273387,0.1866401627999999,1.7012968685999998,9.4217389875,0.524040162563324,-0.4686657190322876,0.4410910904407501,0.557828962802887,6,44.82472330729167,-73.16463216145833,-1.7156538042,9.3894358824,-0.0933200814,-1.6869399330000001,9.4540420926,-0.2799602442,-0.036041048924,0.053756140768,0.01832595708,-0.000610865236,0.015577063518,-0.002748893562,-0.76154,-1.33922,-1.6327,-0.4553,-0.29406,-0.53534,-1.7012968686,9.4217389875,-0.1866401628,-0.01832595708,0.034666602143,0.007788531759,-0.60842,-0.81664,-1.08402,-2.3536,2.82432,11.768,1.0062324204293116,44.555
5001,0,539329,0,-243,1310,-22,-106,178,44,-1287,-2309,-2792,-230,1315,-55,14,40,-22,-785,-507,-923,-144,48,400,42.45,1.005911670367629,46.66,1.0066222551196644,4449.4833984375,-7309.8779296875,34.79999923706055,11.9654541015625,3,0,0.0,0.0,0.0,0.0,-0.2830542239440271,0.0,0.0,-0.5089830614462381,0.2763710103,1.6977076347,9.4217389875,0.5243011116981506,-0.4679709672927856,0.441772997379303,0.5576274394989014,6,44.82472330729167,-73.16463216145833,-1.7443676754000002,9.403792818000001,-0.15792629160000002,-1.651047594,9.439685157,-0.394815729,-0.032375857508,0.054367006004,0.013439035192,0.004276056651999999,0.012217304719999999,-0.006719517596,-0.74646,-1.33922,-1.61936,-0.4553,-0.29406,-0.53534,-1.6977076347,9.4217389875,-0.2763710103,-0.014049900427999999,0.033292155361999996,0.003359758798,-0.60088,-0.81664,-1.07735,-4.23648,1.41216,11.768,1.0062669627436467,44.555
5002,0,539434,0,-230,1310,-24,-92,148,45,-1287,-2309,-2792,-222,1319,-53,38,10,-29,-778,-524,-921,-128,128,384,42.46,1.0058820626696274,46.66,1.0067308166790032,4449.4833984375,-7309.8779296875,34.79999923706055,11.9818115234375,3,0,0.0,0.0,0.0,0.0,-0.319287327572834,0.0,0.0,-0.5294415818623753,0.2763710103,1.6223337228,9.436095923099998,0.5244506597518921,-0.4676651358604431,0.4422269761562347,0.5573834776878357,6,44.82472330729167,-73.16463216145833,-1.651047594,9.403792818000001,-0.1722832272,-1.5936198516,9.4683990282,-0.3804587934,-0.028099800855999998,0.045204027464,0.01374446781,0.011606439484,0.0030543261799999997,-0.008857545922,-0.74646,-1.33922,-1.61936,-0.45124000000000003,-0.30392,-0.53418,-1.6223337228,9.436095923100002,-0.2763710103,-0.008246680686,0.024129176821999998,0.0024434609439999994,-0.59885,-0.82157,-1.07677,-3.76576,3.76576,11.29728,1.0063064396743153,44.56
5003,0,539540,0,-224,1312,-13,-80,135,53,-1295,-2331,-2797,-224,1311,-37,44,6,-10,-778,-524,-921,-224,64,368,42.45,1.005921539600296,46.67,1.0066419935849988,4449.4833984375,-7309.8779296875,34.79999923706055,11.9654541015625,3,0,0.0,0.0,0.0,0.0,-0.3776998408333902,0.0,0.0,-0.5716639989268142,0.1794616949999999,1.6079767872,9.4145605197,0.5246245265007019,-0.4676083326339721,0.4422728717327118,0.557231068611145,6,44.82472330729167,-73.16463216145833,-1.6079767872000001,9.4181497536,-0.0933200814,-1.6079767872000001,9.4109712858,-0.26560330860000003,-0.024434609439999998,0.041233403429999996,0.016187928754,0.013439035192,0.001832595708,-0.0030543261799999997,-0.7511,-1.35198,-1.62226,-0.45124000000000003,-0.30392,-0.53418,-1.6079767872000001,9.4145605197,-0.17946169500000003,-0.005497787123999999,0.021532999568999997,0.006566801286999999,-0.60117,-0.82795,-1.07822,-6.59008,1.88288,10.82656,1.0062817665926476,44.56
5004,0,539645,0,-237,1312,1,-104,163,67,-1295,-2331,-2797,-226,1317,-33,18,24,-9,-768,-522,-933,-160,32,400,42.47,1.005901801134962,46.67,1.0066419935849988,4449.4833984375,-7309.8779296875,34.79999923706055,11.9654541015625,3,0,0.0,0.0,0.0,0.0,-0.3272387906145314,0.0,0.0,-0.4973005647254582,0.1148554847999999,1.6618152957,9.4360959231,0.5249072313308716,-0.4672897756099701,0.4424594640731811,0.5570839047431946,6,44.82472330729167,-73.16463216145833,-1.7012968686,9.4181497536,0.0071784678,-1.6223337228,9.4540420926,-0.2368894374,-0.031764992272,0.049785516733999995,0.020463985405999998,0.005497787124,0.007330382832,-0.002748893562,-0.7511,-1.35198,-1.62226,-0.44544,-0.30276000000000003,-0.54114,-1.6618152957,9.4360959231,-0.1148554848,-0.013133602573999998,0.028557949782999997,0.008857545921999999,-0.59827,-0.8273699999999999,-1.0817,-4.7072,0.94144,11.768,1.0062718973599805,44.57
5005,0,539751,0,-241,1307,-9,-122,187,54,-1260,-2328,-2775,-224,1320,-41,9,59,-14,-766,-510,-937,-32,48,368,42.46,1.0060597088576364,46.67,1.0066814705156677,4449.4833984375,-7309.8779296875,34.79999923706055,11.9654541015625,3,0,0.0,0.0,0.0,0.0,-0.3524464951816873,0.0,0.0,-0.5066204993841756,0.179461695,1.6689937634999998,9.4289174553,0.5251983404159546,-0.4666643440723419,0.4429636299610138,0.5569329857826233,6,44.82472330729167,-73.16463216145833,-1.7300107398,9.3822574146,-0.0646062102,-1.6079767872000001,9.475577496,-0.2943171798,-0.037262779396,0.057115899565999995,0.016493361372,0.002748893562,0.018020524462,-0.004276056651999999,-0.7308,-1.35024,-1.6095,-0.44428,-0.2958,-0.54346,-1.6689937635,9.428917455299999,-0.179461695,-0.017256942917,0.037568212014,0.0061086523599999994,-0.58754,-0.8230200000000001,-1.07648,-0.94144,1.41216,10.82656,1.006370589686652,44.565
5006,0,539856,0,-232,1312,-21,-106,179,47,-1260,-2328,-2775,-225,1313,-53,21,35,-26,-766,-510,-937,-128,-16,400,42.46,1.0060597088576364,46.66,1.0066716012830002,4449.4833984375,-7309.8779296875,34.79999923706055,11.9654541015625,3,0,0.0,0.0,0.0,0.0,-0.39635912328856,0.0,0.0,-0.5371898747184237,0.2656033086,1.6402798923,9.4217389875,0.5253962278366089,-0.4660947620868683,0.4435859322547912,0.5567280650138855,6,44.82472330729167,-73.16463216145833,-1.6654045296,9.4181497536,-0.1507478238,-1.6151552550000001,9.425328221400001,-0.3804587934,-0.032375857508,0.054672438622,0.014355333045999999,0.006414084978,0.010690141629999999,-0.007941248068,-0.7308,-1.35024,-1.6095,-0.44428,-0.2958,-0.54346,-1.6402798923000002,9.4217389875,-0.26560330860000003,-0.012980886264999998,0.032681290126,0.0032070424889999996,-0.58754,-0.8230200000000001,-1.07648,-3.76576,-0.47072,11.768,1.0063656550703182,44.56
5007,0,539962,0,-230,1309,-12,-80,154,53,-1272,-2306,-2760,-223,1317,-48,31,11,-17,-784,-514,-944,-112,144,448,42.46,1.0058327165062917,46.66,1.006720947446336,4449.4833984375,-7309.8779296875,34.79999923706055,11.9981689453125,3,0,0.0,0.0,0.0,0.0,-0.3729489557866224,0.0,0.0,-0.4948359207575089,0.215354034,1.6259229566999998,9.4253282214,0.5255109071731567,-0.4658730626106262,0.4439248144626617,0.5565351843833923,6,44.82472330729167,-73.16463216145833,-1.651047594,9.3966143502,-0.0861416136,-1.6007983194000002,9.4540420926,-0.3445664544,-0.024434609439999998,0.047036623172,0.016187928754,0.009468411158,0.003359758798,-0.005192354505999999,-0.73776,-1.33748,-1.6008,-0.45472,-0.29812,-0.54752,-1.6259229567000002,9.425328221400001,-0.215354034,-0.007483099140999999,0.025198190984999997,0.005497787124,-0.59624,-0.8178,-1.07416,-3.29504,4.23648,13.18016,1.0062768319763138,44.56
5008,0,540067,0,-225,1312,-3,-89,151,64,-1272,-2306,-2760,-222,1322,-35,36,12,-9,-784,-514,-944,-16,128,448,42.46,1.0059906242289662,46.67,1.0066419935849988,4449.4833984375,-7309.8779296875,34.79999923706055,11.9654541015625,3,0,0.0,0.0,0.0,0.0,-0.417570652918534,0.0,0.0,-0.5270485234571884,0.1363908881999999,1.6043875533,9.4540420926,0.5257169604301453,-0.4657045900821686,0.4440296590328216,0.5563978552818298,6,44.82472330729167,-73.16463216145833,-1.6151552550000001,9.4181497536,-0.0215354034,-1.5936198516,9.4899344316,-0.251246373,-0.027183503002,0.046120325318,0.019547687552,0.010995574248,0.003665191416,-0.002748893562,-0.73776,-1.33748,-1.6008,-0.45472,-0.29812,-0.54752,-1.6043875533,9.4540420926,-0.1363908882,-0.008093964377,0.024892758367,0.008399396994999999,-0.59624,-0.8178,-1.07416,-0.47072,3.76576,13.18016,1.0063163089069826,44.565
5009,0,540173,0,-244,1311,-2,-113,177,71,-1317,-2309,-2778,-230,1318,-31,13,41,-10,-753,-522,-933,-80,144,384,42.46,1.0058919319022943,46.67,1.0065827781889958,4449.4833984375,-7309.8779296875,34.79999923706055,11.9654541015625,3,0,0.0,0.0,0.0,0.0,-0.3706311824574408,0.0,0.0,-0.4592936825307216,0.1184447186999999,1.7012968685999998,9.436095923099998,0.5222318172454834,-0.4706436097621918,0.4407749772071838,0.5581092834472656,6,44.82472330729167,-73.16463216145833,-1.7515461432000001,9.4109712858,-0.0143569356,-1.651047594,9.461220560400001,-0.2225325018,-0.034513885833999995,0.054061573386,0.021685715878,0.003970624034,0.012522737337999999,-0.0030543261799999997,-0.76386,-1.33922,-1.61124,-0.43674,-0.30276000000000003,-0.54114,-1.7012968686,9.436095923100002,-0.1184447187,-0.015271630899999998,0.033292155361999996,0.009315694849,-0.6003000000000001,-0.8209900000000001,-1.07619,-2.3536,4.23648,11.29728,1.006237355045645,44.565
5010,0,540278,0,-232,1310,-11,-121,176,54,-1317,-2309,-2778,-227,1310,-43,-5,59,-19,-753,-522,-933,-128,112,448,42.46,1.0059511472982976,46.67,1.006474216629657,4449.4833984375,-7309.8779296875,34.79999923706055,11.9981689453125,3,0,0.0,0.0,0.0,0.0,-0.2875772249172214,0.0,0.0,-0.363219655858445,0.1938186305999999,1.6474583601,9.403792818,0.5224593281745911,-0.469978392124176,0.4414340853691101,0.5579360723495483,6,44.82472330729167,-73.16463216145833,-1.6654045296,9.403792818000001,-0.07896314580000001,-1.6295121906,9.403792818000001,-0.3086741154,-0.036957346778,0.053756140768,0.016493361372,-0.0015271630899999999,0.018020524462,-0.005803219742,-0.76386,-1.33922,-1.61124,-0.43674,-0.30276000000000003,-0.54114,-1.6474583601,9.403792818000001,-0.1938186306,-0.019242254934,0.035888332615,0.005345070814999999,-0.6003000000000001,-0.8209900000000001,-1.07619,-3.76576,3.29504,13.18016,1.0062126819639774,44.565
5011,0,540383,0,-229,1309,-14,-99,182,44,-1293,-2307,-2774,-222,1316,-54,17,42,-20,-789,-520,-942,-128,112,432,42.47,1.0056748087836171,46.68,1.0068097705403405,4449.4833984375,-7309.8779296875,34.79999923706055,11.9654541015625,3,0,0.0,0.0,0.0,0.0,-0.337407684366828,0.0,0.0,-0.4157654000731365,0.2440679052,1.6187444889,9.4217389875,0.5226411819458008,-0.4695245921611786,0.4420376718044281,0.5576698184013367,6,44.82472330729167,-73.16463216145833,-1.6438691262,9.3966143502,-0.10049854920000001,-1.5936198516,9.4468636248,-0.3876372612,-0.030237829182,0.055588736475999996,0.013439035192,0.005192354505999999,0.012828169956,-0.0061086523599999994,-0.74994,-1.33806,-1.60892,-0.45762,-0.3016,-0.54636,-1.6187444889,9.4217389875,-0.24406790520000002,-0.012522737338,0.034208453215999995,0.003665191416,-0.60378,-0.8198300000000001,-1.07764,-3.76576,3.29504,12.70944,1.0062422896619787,44.575
5012,0,540489,0,-224,1310,-14,-91,152,56,-1306,-2280,-2757,-216,1315,-46,32,14,-9,-789,-520,-942,-80,144,384,42.47,1.0060695780903035,46.67,1.006523562792993,4449.4833984375,-7309.8779296875,34.79999923706055,11.9654541015625,3,0,0.0,0.0,0.0,0.0,-0.2306249812371915,0.0,0.0,-0.2982474073658165,0.215354034,1.5792629159999998,9.4217389875,0.5228040218353271,-0.4693214297294616,0.4422920346260071,0.5574864149093628,6,44.82472330729167,-73.16463216145833,-1.6079767872000001,9.403792818000001,-0.10049854920000001,-1.5505490448,9.439685157,-0.3302095188,-0.027794368237999998,0.046425757936,0.017104226607999998,0.009773843776,0.004276056651999999,-0.002748893562,-0.75748,-1.3224,-1.59906,-0.45762,-0.3016,-0.54636,-1.5792629160000002,9.4217389875,-0.215354034,-0.009010262230999998,0.025350907293999997,0.007177666522999998,-0.60755,-0.812,-1.0727099999999998,-2.3536,4.23648,11.29728,1.0062965704416482,44.57
5013,0,540594,0,-235,1319,4,-87,150,68,-1306,-2280,-2757,-230,1316,-30,41,13,-1,-772,-520,-939,-160,64,416,42.47,1.005793239575623,46.67,1.0069084628670122,4449.4833984375,-7309.8779296875,34.79999923706055,11.9981689453125,3,0,0.0,0.0,0.0,0.0,-0.2012208911020055,0.0,0.0,-0.2758066744858475,0.0933200813999999,1.6689937634999998,9.4576313265,0.5230491161346436,-0.4691961109638214,0.4422663748264313,0.557382345199585,6,44.82472330729167,-73.16463216145833,-1.6869399330000001,9.4683990282,0.0287138712,-1.651047594,9.4468636248,-0.215354034,-0.026572637766,0.0458148927,0.020769418023999998,0.012522737337999999,0.003970624034,-0.000305432618,-0.75748,-1.3224,-1.59906,-0.44776,-0.3016,-0.54462,-1.6689937635,9.4576313265,-0.0933200814,-0.007024950214,0.024892758367,0.010231992702999999,-0.60262,-0.812,-1.07184,-4.7072,1.88288,12.23872,1.0063508512213177,44.57
5014,0,540700,0,-241,1308,3,-115,167,52,-1309,-2300,-2809,-239,1316,-34,6,23,-12,-772,-520,-939,-160,48,448,42.48,1.0059807549962991,46.68,1.0066025166543302,4449.4833984375,-7309.8779296875,34.79999923706055,11.9654541015625,3,0,0.0,0.0,0.0,0.0,-0.1652152825958904,0.0,0.0,-0.2488291173674728,0.1112662509,1.7228322719999998,9.418149753599998,0.5232680439949036,-0.468796819448471,0.4426063895225525,0.5572430491447449,6,44.82472330729167,-73.16463216145833,-1.7300107398,9.3894358824,0.0215354034,-1.7156538042,9.4468636248,-0.24406790520000002,-0.035124751069999995,0.051007247206,0.015882496136,0.001832595708,0.0070249502139999994,-0.003665191416,-0.75922,-1.334,-1.6292200000000001,-0.44776,-0.3016,-0.54462,-1.722832272,9.418149753600002,-0.1112662509,-0.016646077680999998,0.02901609871,0.0061086523599999994,-0.60349,-0.8178000000000001,-1.08692,-4.7072,1.41216,13.18016,1.0062916358253147,44.58
5015,0,540805,0,-232,1310,-11,-110,164,49,-1309,-2300,-2809,-222,1314,-48,9,39,-26,-784,-502,-929,-112,96,368,42.47,1.005852454971626,46.68,1.0065926474216629,4449.4833984375,-7309.8779296875,34.79999923706055,11.9654541015625,3,0,0.0,0.0,0.0,0.0,-0.1496951169987921,0.0,0.0,-0.2470439328971175,0.2117648000999999,1.6295121906,9.418149753599998,0.5234158635139465,-0.4682526588439941,0.4433286190032959,0.5569875240325928,6,44.82472330729167,-73.16463216145833,-1.6654045296,9.403792818000001,-0.07896314580000001,-1.5936198516,9.4325066892,-0.3445664544,-0.033597587979999996,0.050090949351999994,0.014966198282,0.002748893562,0.011911872102,-0.007941248068,-0.75922,-1.334,-1.6292200000000001,-0.45472,-0.29116,-0.53882,-1.6295121905999999,9.418149753600002,-0.2117648001,-0.015424347208999998,0.031001410726999995,0.003512475107,-0.60697,-0.8125800000000001,-1.08402,-3.29504,2.82432,10.82656,1.0062225511966445,44.575
5016,0,540911,0,-230,1309,-17,-103,162,46,-1307,-2333,-2777,-214,1315,-45,28,24,-8,-784,-502,-929,-160,96,432,42.48,1.0058129780409573,46.69,1.0066123858869973,4449.4833984375,-7309.8779296875,34.79999923706055,11.9654541015625,3,0,0.0,0.0,0.0,0.0,-0.1482348691997895,0.0,0.0,-0.2556286782834768,0.2225325017999999,1.5936198515999995,9.418149753599998,0.5235744714736938,-0.4678447246551513,0.443853884935379,0.5567628145217896,6,44.82472330729167,-73.16463216145833,-1.651047594,9.3966143502,-0.12203395260000001,-1.5361921092000002,9.439685157,-0.323031051,-0.031459559654,0.049480084115999995,0.014049900427999999,0.008552113303999999,0.007330382832,-0.002443460944,-0.75806,-1.35314,-1.61066,-0.45472,-0.29116,-0.53882,-1.5936198516000002,9.4181497536,-0.2225325018,-0.011453723175,0.028405233473999997,0.005803219742,-0.60639,-0.8221499999999999,-1.07474,-4.7072,2.82432,12.70944,1.0062126819639774,44.584999999999994
5017,0,541016,0,-232,1307,-7,-79,122,64,-1307,-2333,-2777,-221,1319,-39,44,-3,1,-766,-506,-943,-160,64,432,42.49,1.006109055020972,46.68,1.0068689859363436,4449.4833984375,-7309.8779296875,34.79999923706055,11.9981689453125,3,0,0.0,0.0,0.0,0.0,-0.2414892113633225,0.0,0.0,-0.3649669422518361,0.1651047594,1.6259229566999998,9.4253282214,0.5237846970558167,-0.4676742553710937,0.4439139664173126,0.5566604137420654,6,44.82472330729167,-73.16463216145833,-1.6654045296,9.3822574146,-0.050249274600000005,-1.5864413838,9.4683990282,-0.2799602442,-0.024129176821999998,0.037262779396,0.019547687552,0.013439035192,-0.000916297854,0.000305432618,-0.75806,-1.35314,-1.61066,-0.44428,-0.29348,-0.54694,-1.6259229567,9.425328221400001,-0.1651047594,-0.005345070814999999,0.018173240771,0.009926560085,-0.60117,-0.82331,-1.0788,-4.7072,1.88288,12.70944,1.0064890204786576,44.585
5018,0,541123,0,-239,1313,4,-87,140,63,-1290,-2308,-2775,-228,1318,-24,28,9,-1,-766,-506,-943,-96,112,320,42.46,1.0059511472982976,46.69,1.006661732050333,4449.4833984375,-7309.8779296875,35.0,11.9654541015625,3,0,0.0,0.0,0.0,0.0,-0.2593286618564745,0.0,0.0,-0.3826304870650387,0.071784678,1.6761722312999998,9.4432743909,0.5293199419975281,-0.4642186164855957,0.4422471225261688,0.5556430220603943,6,44.82472330729167,-73.16463216145833,-1.7156538042,9.425328221400001,0.0287138712,-1.6366906584,9.461220560400001,-0.1722832272,-0.026572637766,0.042760566519999994,0.019242254934,0.008552113303999999,0.002748893562,-0.000305432618,-0.7482,-1.33864,-1.6095,-0.44428,-0.29348,-0.54694,-1.6761722313,9.443274390900001,-0.071784678,-0.009010262231,0.022754730040999996,0.009468411158,-0.59624,-0.81606,-1.07822,-2.82432,3.29504,9.4144,1.0063064396743153,44.575
5019,0,541229,0,-237,1311,-4,-107,165,48,-1290,-2308,-2775,-232,1314,-32,14,41,-23,-761,-521,-931,-64,96,416,42.47,1.0059610165309647,46.69,1.0066222551196644,4449.4833984375,-7309.8779296875,35.0,11.9654541015625,3,0,0.0,0.0,0.0,0.0,-0.2851405276225081,0.0,0.0,-0.4038448052790305,0.1292124204,1.6833506991,9.4217389875,0.529515266418457,-0.4638087749481201,0.4427228569984436,0.5554201602935791,6,44.82472330729167,-73.16463216145833,-1.7012968686,9.4109712858,-0.0287138712,-1.6654045296,9.4325066892,-0.2297109696,-0.032681290126,0.050396381969999994,0.014660765664,0.004276056651999999,0.012522737337999999,-0.0070249502139999994,-0.7482,-1.33864,-1.6095,-0.44138,-0.30218,-0.53998,-1.6833506991,9.4217389875,-0.1292124204,-0.014202616736999999,0.031459559654,0.0038179077250000003,-0.5947899999999999,-0.8204100000000001,-1.07474,-1.88288,2.82432,12.23872,1.0062916358253147,44.58
5020,0,541334,0,-228,1309,-9,-115,160,42,-1291,-2317,-2767,-229,1316,-44,3,33,-25,-761,-521,-931,-96,144,320,42.48,1.0058623242042932,46.68,1.006661732050333,4449.4833984375,-7309.8779296875,35.0,11.9654541015625,3,0,0.0,0.0,0.0,0.0,-0.2567606787548848,0.0,0.0,-0.3700580969246872,0.1902293967,1.6402798922999997,9.4217389875,0.5296112895011902,-0.4633154273033142,0.4434135854244232,0.5551891922950745,6,44.82472330729167,-73.16463216145833,-1.6366906584,9.3966143502,-0.0646062102,-1.6438691262,9.4468636248,-0.31585258320000004,-0.035124751069999995,0.048869218879999995,0.012828169956,0.000916297854,0.010079276394,-0.00763581545,-0.74878,-1.34386,-1.60486,-0.44138,-0.30218,-0.53998,-1.6402798923000002,9.4217389875,-0.19022939670000003,-0.017104226607999998,0.029474247636999996,0.002596177253,-0.59508,-0.8230200000000001,-1.07242,-2.82432,4.23648,9.4144,1.0062620281273131,44.58
5021,0,541440,0,-228,1304,-15,-78,144,63,-1291,-2317,-2767,-222,1313,-43,26,21,-9,-764,-521,-943,-144,48,400,42.49,1.0059511472982976,46.68,1.0067110782136688,4449.4833984375,-7309.8779296875,35.0,11.9981689453125,3,0,0.0,0.0,0.0,0.0,-0.2613662831459883,0.0,0.0,-0.3729275122370798,0.2081755661999999,1.615155255,9.3930251163,0.5297734141349792,-0.4629801511764526,0.4438196420669555,0.5549898743629456,6,44.82472330729167,-73.16463216145833,-1.6366906584,9.3607220112,-0.107677017,-1.5936198516,9.425328221400001,-0.3086741154,-0.023823744204,0.043982296992,0.019242254934,0.007941248068,0.006414084978,-0.002748893562,-0.74878,-1.34386,-1.60486,-0.44312,-0.30218,-0.54694,-1.615155255,9.3930251163,-0.2081755662,-0.007941248068,0.025198190985,0.008246680686,-0.59595,-0.8230200000000001,-1.0758999999999999,-4.23648,1.41216,11.768,1.006331112755983,44.585
5022,0,541545,0,-238,1312,-1,-73,132,69,-1289,-2300,-2764,-224,1319,-36,43,14,2,-764,-521,-943,-80,80,320,42.47,1.0058425857389588,46.69,1.006720947446336,4449.4833984375,-7309.8779296875,35.0,11.9654541015625,3,0,0.0,0.0,0.0,0.0,-0.274184715539303,0.0,0.0,-0.3846275005649285,0.1328016543,1.6582260617999998,9.4432743909,0.5300363898277283,-0.462746798992157,0.4439098536968231,0.5548611879348755,6,44.82472330729167,-73.16463216145833,-1.7084753364,9.4181497536,-0.0071784678,-1.6079767872000001,9.4683990282,-0.2584248408,-0.022296581114,0.040317105576,0.021074850641999997,0.013133602574,0.004276056651999999,0.000610865236,-0.74762,-1.334,-1.60312,-0.44312,-0.30218,-0.54694,-1.6582260618000002,9.443274390900001,-0.1328016543,-0.00458148927,0.022296581114,0.010842857938999998,-0.59537,-0.81809,-1.07503,-2.3536,2.3536,9.4144,1.0062817665926473,44.58
5023,0,541651,0,-242,1303,1,-99,157,57,-1289,-2300,-2764,-233,1317,-31,26,19,-14,-813,-533,-929,-144,64,400,42.48,1.0059807549962991,46.68,1.0064939550949914,4449.4833984375,-7309.8779296875,35.0,11.9654541015625,3,0,0.0,0.0,0.0,0.0,-0.3118431072896174,0.0,0.0,-0.4212004133234193,0.1076770169999999,1.7048861025,9.403792818,0.5302605032920837,-0.4624316692352295,0.444157212972641,0.5547118186950684,6,44.82472330729167,-73.16463216145833,-1.7371892076000002,9.3535435434,0.0071784678,-1.6725829974000002,9.4540420926,-0.2225325018,-0.030237829182,0.047952921025999996,0.017409659225999997,0.007941248068,0.005803219742,-0.004276056651999999,-0.74762,-1.334,-1.60312,-0.47154,-0.30914,-0.53882,-1.7048861025000002,9.403792818,-0.107677017,-0.011148290557,0.026878070384,0.006566801286999999,-0.60958,-0.82157,-1.07097,-4.23648,1.88288,11.768,1.0062373550456454,44.58
5024,0,541756,0,-229,1304,-6,-122,180,46,-1289,-2323,-2782,-226,1320,-34,-2,35,-30,-813,-533,-929,-80,144,352,42.48,1.0058623242042932,46.69,1.006572908956329,4449.4833984375,-7309.8779296875,35.0,11.9654541015625,3,0,0.0,0.0,0.0,0.0,-0.2865381896252204,0.0,0.0,-0.3882908813680254,0.1435693559999999,1.6331014245,9.4181497536,0.5303584933280945,-0.4619775116443634,0.4448168873786926,0.5544679760932922,6,44.82472330729167,-73.16463216145833,-1.6438691262,9.3607220112,-0.0430708068,-1.6223337228,9.475577496,-0.24406790520000002,-0.037262779396,0.05497787124,0.014049900427999999,-0.000610865236,0.010690141629999999,-0.00916297854,-0.74762,-1.34734,-1.61356,-0.47154,-0.30914,-0.53882,-1.6331014245,9.4181497536,-0.143569356,-0.018936822316,0.032834006435,0.0024434609439999994,-0.60958,-0.82824,-1.07619,-2.3536,4.23648,10.35584,1.0062176165803112,44.584999999999994
5025,0,541862,0,-218,1303,-21,-113,164,60,-1289,-2323,-2782,-217,1319,-42,12,39,-14,-787,-545,-956,-64,-16,432,42.48,1.0060893165556375,46.7,1.0065827781889958,4449.4833984375,-7309.8779296875,35.0,11.9654541015625,3,0,0.0,0.0,0.0,0.0,-0.3105342002381339,0.0,0.0,-0.4136381231589219,0.2261217357,1.5613167464999995,9.4109712858,0.5304943919181824,-0.4614278674125671,0.4455252587795257,0.5542266964912415,6,44.82472330729167,-73.16463216145833,-1.5649059804,9.3535435434,-0.1507478238,-1.5577275126,9.4683990282,-0.3014956476,-0.034513885833999995,0.050090949351999994,0.01832595708,0.003665191416,0.011911872102,-0.004276056651999999,-0.74762,-1.34734,-1.61356,-0.45646,-0.3161,-0.55448,-1.5613167465000002,9.4109712858,-0.22612173570000002,-0.015424347208999998,0.031001410726999995,0.007024950214,-0.6020399999999999,-0.83172,-1.08402,-1.88288,-0.47072,12.70944,1.0063360473723166,44.59
5026,0,541967,0,-227,1305,-18,-81,157,71,-1304,-2306,-2803,-223,1315,-48,29,23,-3,-787,-545,-956,-16,112,384,42.49,1.005901801134962,46.69,1.006661732050333,4449.4833984375,-7309.8779296875,35.0,11.9981689453125,3,0,0.0,0.0,0.0,0.0,-0.3460717554648698,0.0,0.0,-0.4439642659827504,0.2368894374,1.615155255,9.403792818,0.5307847261428833,-0.4610091149806976,0.4458324015140533,0.5540503263473511,6,44.82472330729167,-73.16463216145833,-1.6295121906,9.367900479000001,-0.1292124204,-1.6007983194000002,9.439685157,-0.3445664544,-0.024740042057999997,0.047952921025999996,0.021685715878,0.008857545922,0.0070249502139999994,-0.000916297854,-0.75632,-1.33748,-1.62574,-0.45646,-0.3161,-0.55448,-1.6151552550000001,9.403792818,-0.2368894374,-0.007941248068,0.02748893562,0.010384709012,-0.60639,-0.82679,-1.09011,-0.47072,3.29504,11.29728,1.0062817665926476,44.59
5027,0,542072,0,-248,1310,1,-90,136,71,-1294,-2307,-2793,-234,1317,-30,34,7,-1,-799,-515,-947,-128,96,368,42.5,1.005793239575623,46.69,1.0066814705156677,4449.4833984375,-7309.8779296875,35.0,11.9981689453125,3,0,0.0,0.0,0.0,0.0,-0.2788488117446435,0.0,0.0,-0.3639003689046408,0.1040877830999999,1.7300107398,9.4289174553,0.5311077237129211,-0.460718035697937,0.445874959230423,0.5539485812187195,6,44.82472330729167,-73.16463216145833,-1.7802600144,9.403792818000001,0.0071784678,-1.6797614652000001,9.4540420926,-0.215354034,-0.02748893562,0.041538836047999995,0.021685715878,0.010384709011999999,0.0021380283259999997,-0.000305432618,-0.75052,-1.33806,-1.61994,-0.46342,-0.2987,-0.54926,-1.7300107398,9.4289174553,-0.1040877831,-0.008552113303999999,0.021838432186999997,0.01069014163,-0.60697,-0.81838,-1.0846,-3.76576,2.82432,10.82656,1.0062373550456454,44.595
5028,0,542178,0,-238,1310,3,-104,168,44,-1294,-2307,-2793,-235,1319,-27,24,26,-27,-799,-515,-947,-208,144,416,42.48,1.0058129780409573,46.68,1.0066025166543302,4449.4833984375,-7309.8779296875,35.0,11.9654541015625,3,0,0.0,0.0,0.0,0.0,-0.2918066210487928,0.0,0.0,-0.3773472004669689,0.0861416136,1.6977076347,9.436095923099998,0.5288317203521729,-0.4639275968074798,0.4394660592079162,0.5585497617721558,6,44.82472330729167,-73.16463216145833,-1.7084753364,9.403792818000001,0.0215354034,-1.6869399330000001,9.4683990282,-0.1938186306,-0.031764992272,0.051312679824,0.013439035192,0.007330382832,0.007941248068,-0.008246680686,-0.75052,-1.33806,-1.61994,-0.46342,-0.2987,-0.54926,-1.6977076347,9.436095923100002,-0.0861416136,-0.012217304719999999,0.029626963946,0.002596177253,-0.60697,-0.81838,-1.0846,-6.11936,4.23648,12.23872,1.0062077473476436,44.58
5029,0,542283,0,-223,1309,-8,-112,165,49,-1281,-2301,-2777,-219,1316,-35,8,36,-18,-787,-528,-935,-80,112,352,42.49,1.0060597088576364,46.7,1.0065827781889958,4449.4833984375,-7309.8779296875,35.0,11.9654541015625,3,0,0.0,0.0,0.0,0.0,-0.2700346145146977,0.0,0.0,-0.3544663751599656,0.1543370576999999,1.5864413838,9.4217389875,0.5289620161056519,-0.4635016322135925,0.4400843381881714,0.5582931637763977,6,44.82472330729167,-73.16463216145833,-1.6007983194000002,9.3966143502,-0.0574277424,-1.5720844482,9.4468636248,-0.251246373,-0.034208453215999995,0.050396381969999994,0.014966198282,0.002443460944,0.010995574248,-0.005497787124,-0.74298,-1.33458,-1.61066,-0.45646,-0.30624,-0.5423,-1.5864413838,9.4217389875,-0.1543370577,-0.015882496136,0.030695978108999995,0.004734205579,-0.59972,-0.8204100000000001,-1.07648,-2.3536,3.29504,10.35584,1.006321243523316,44.595
5030,0,542389,0,-226,1309,-13,-88,165,63,-1281,-2301,-2777,-222,1318,-50,26,26,-2,-787,-528,-935,-112,48,320,42.48,1.0059807549962991,46.69,1.0065630397236616,4449.4833984375,-7309.8779296875,35.0,11.9654541015625,3,0,0.0,0.0,0.0,0.0,-0.2254383299679546,0.0,0.0,-0.3076296761759038,0.2261217356999999,1.6079767872,9.4289174553,0.5292438864707947,-0.463005781173706,0.4405297636985779,0.5580862164497375,6,44.82472330729167,-73.16463216145833,-1.6223337228,9.3966143502,-0.0933200814,-1.5936198516,9.461220560400001,-0.35892339,-0.026878070384,0.050396381969999994,0.019242254934,0.007941248068,0.007941248068,-0.000610865236,-0.74298,-1.33458,-1.61066,-0.45646,-0.30624,-0.5423,-1.6079767872000001,9.4289174553,-0.2261217357,-0.009468411158,0.029168815018999997,0.009315694849,-0.59972,-0.8204100000000001,-1.07648,-3.29504,1.41216,9.4144,1.0062718973599805,44.584999999999994
5031,0,542494,0,-241,1310,-13,-87,149,68,-1295,-2294,-2788,-235,1316,-39,41,24,2,-797,-516,-944,-160,64,432,42.48,1.0059807549962991,46.69,1.0065630397236616,4449.4833984375,-7309.8779296875,35.0,11.9654541015625,3,0,0.0,0.0,0.0,0.0,-0.1431147769393358,0.0,0.0,-0.2290212960326061,0.1866401627999999,1.7084753363999998,9.4253282214,0.5296018123626709,-0.4626744389533996,0.440632551908493,0.5579402446746826,6,44.82472330729167,-73.16463216145833,-1.7300107398,9.403792818000001,-0.0933200814,-1.6869399330000001,9.4468636248,-0.2799602442,-0.026572637766,0.045509460082,0.020769418023999998,0.012522737337999999,0.007330382832,0.000610865236,-0.7511,-1.33052,-1.61704,-0.46226,-0.29928,-0.54752,-1.7084753364,9.425328221400001,-0.1866401628,-0.007024950214,0.026419921457,0.010690141629999999,-0.60668,-0.8149,-1.08228,-4.7072,1.88288,12.70944,1.0062718973599805,44.584999999999994
5032,0,542600,0,-242,1308,4,-90,146,52,-1295,-2294,-2788,-235,1314,-32,27,16,-19,-797,-516,-944,-128,128,336,42.49,1.005901801134962,46.69,1.006790032075006,4449.4833984375,-7309.8779296875,35.0,11.9981689453125,3,0,0.0,0.0,0.0,0.0,-0.1888176635299406,0.0,0.0,-0.2880735267725651,0.1004985492,1.7120645703,9.4109712858,0.5297879576683044,-0.4625223577022552,0.4407887458801269,0.5577661991119385,6,44.82472330729167,-73.16463216145833,-1.7371892076000002,9.3894358824,0.0287138712,-1.6869399330000001,9.4325066892,-0.2297109696,-0.02748893562,0.044593162228,0.015882496136,0.008246680686,0.004886921888,-0.005803219742,-0.7511,-1.33052,-1.61704,-0.46226,-0.29928,-0.54752,-1.7120645703000001,9.4109712858,-0.10049854920000001,-0.009621127467,0.024740042058,0.005039638197,-0.60668,-0.8149,-1.08228,-3.76576,3.76576,9.88512,1.006345916604984,44.59
5033,0,542705,0,-227,1307,3,-110,160,47,-1301,-2290,-2758,-224,1317,-31,11,28,-19,-787,-499,-954,-80,64,368,42.48,1.0058623242042932,46.69,1.0065038243276585,4449.4833984375,-7309.8779296875,35.0,11.9654541015625,3,0,0.0,0.0,0.0,0.0,-0.3033929048676671,0.0,0.0,-0.4095568297731403,0.1004985491999999,1.6187444889,9.4181497536,0.5298782587051392,-0.4622351825237274,0.4412821829319,0.5575282573699951,6,44.82472330729167,-73.16463216145833,-1.6295121906,9.3822574146,0.0215354034,-1.6079767872000001,9.4540420926,-0.2225325018,-0.033597587979999996,0.048869218879999995,0.014355333045999999,0.003359758798,0.008552113303999999,-0.005803219742,-0.75458,-1.3282,-1.59964,-0.45646,-0.28942,-0.55332,-1.6187444889,9.4181497536,-0.10049854920000001,-0.015118914590999998,0.028710666091999997,0.004276056651999999,-0.6055200000000001,-0.80881,-1.07648,-2.3536,1.88288,10.82656,1.0061830742659759,44.584999999999994
