,packetType,timestamp_ms,imu1_accel_x,imu1_accel_y,imu1_accel_z,imu1_gyro_x,imu1_gyro_y,imu1_gyro_z,imu1_mag_x,imu1_mag_y,imu1_mag_z,imu2_accel_x,imu2_accel_y,imu2_accel_z,imu2_gyro_x,imu2_gyro_y,imu2_gyro_z,imu2_mag_x,imu2_mag_y,imu2_mag_z,high_g_accel_x,high_g_accel_y,high_g_accel_z,baro1_temp,baro1_pres,baro2_temp,baro2_pres,gps_lat,gps_long,gps_alt,gps_fix_quality,gps_sats_tracked,gps_hdop,battery_voltage,pyro_cont,trigger_status,heading,vtg,pos_x,pos_y,pos_z,vel_x,vel_y,vel_z,acc_x,acc_y,acc_z,q_x,q_y,q_z,q_w,state,gps_lat_mod,gps_long_mod,imu1_accel_x_real,imu1_accel_y_real,imu1_accel_z_real,imu2_accel_x_real,imu2_accel_y_real,imu2_accel_z_real,imu1_gyro_x_real,imu1_gyro_y_real,imu1_gyro_z_real,imu2_gyro_x_real,imu2_gyro_y_real,imu2_gyro_z_real,imu1_mag_x_real,imu1_mag_y_real,imu1_mag_z_real,imu2_mag_x_real,imu2_mag_y_real,imu2_mag_z_real,imu_accel_x_avg,imu_accel_y_avg,imu_accel_z_avg,imu_gyro_x_avg,imu_gyro_y_avg,imu_gyro_z_avg,imu_mag_x_avg,imu_mag_y_avg,imu_mag_z_avg,high_g_accel_x_real,high_g_accel_y_real,high_g_accel_z_real,baro_pres_avg,baro_temp_avg
16896,0,1788665,2,1353,-26,-16,502,67,-315,-3238,-2551,-17,1352,-40,27,431,-75,1997,-1277,-957,-240,-16,448,21.4,1.0042635085122131,23.72,1.004806316308907,4449.49365234375,-7309.81103515625,37.79999923706055,2,12,0.550000011920929,11.39703369140625,3,0,0.0,0.0,0.0,0.0,-0.6427364911475438,0.0,0.0,-0.3336596048539568,0.2368894373999999,0.0538385085,9.7088776995,0.1847798377275467,-0.6727225184440613,0.1805031597614288,0.6933393478393555,6,44.824894205729166,-73.16351725260417,0.0143569356,9.7124669334,-0.1866401628,-0.12203395260000001,9.7052884656,-0.287138712,-0.004886921888,0.15332717423599998,0.020463985405999998,0.008246680686,0.13164145835799998,-0.02290744635,-0.1827,-1.87804,-1.4795800000000001,1.15826,-0.74066,-0.55506,-0.05383850850000001,9.7088776995,-0.2368894374,0.0016798793989999997,0.14248431629699998,-0.0012217304720000006,0.48778000000000005,-1.30935,-1.01732,-7.0608,-0.47072,13.18016,1.00453491241056,22.56
16897,0,1788770,0,1352,-28,-24,51,83,-320,-3198,-2502,-25,1356,-53,17,2,-72,1997,-1277,-957,-336,-16,512,21.4,1.0045299777942265,23.72,1.0046188008882309,4449.49365234375,-7309.81103515625,37.79999923706055,2,12,0.550000011920929,11.37249755859375,3,0,0.0,0.0,0.0,0.0,-0.5848750541430066,0.0,0.0,-0.2470920725884284,0.2907279459,0.0897308474999999,9.7196454012,0.1878048479557037,-0.6716108322143555,0.1836312413215637,0.6927827000617981,6,44.824894205729166,-73.16351725260417,0.0,9.7052884656,-0.20099709840000002,-0.179461695,9.7340023368,-0.3804587934,-0.007330382832,0.015577063518,0.025350907293999997,0.005192354505999999,0.000610865236,-0.021991148496,-0.1856,-1.85484,-1.45116,1.15826,-0.74066,-0.55506,-0.0897308475,9.719645401200001,-0.2907279459,-0.0010690141630000003,0.008093964377,0.0016798793989999984,0.48633000000000004,-1.29775,-1.00311,-9.88512,-0.47072,15.06304,1.0045743893412287,22.56
16898,0,1788875,-10,1348,-36,-16,-212,96,-320,-3198,-2502,-33,1354,-51,9,-261,-67,1991,-1272,-966,-192,-80,480,21.41,1.004372070071552,23.72,1.00486553170491,4449.49365234375,-7309.81103515625,37.79999923706055,2,12,0.550000011920929,11.39703369140625,3,0,0.0,0.0,0.0,0.0,-0.5279085884713054,0.0,0.0,-0.1705490733031983,0.3122633493,0.1543370577,9.6981099978,0.1875960528850555,-0.6712936758995056,0.1833304166793823,0.6932262778282166,6,44.824894205729166,-73.16351725260417,-0.071784678,9.6765745944,-0.2584248408,-0.2368894374,9.719645401200001,-0.36610185780000004,-0.004886921888,-0.064751715016,0.029321531328,0.002748893562,-0.079717913298,-0.020463985405999998,-0.1856,-1.85484,-1.45116,1.15478,-0.73776,-0.56028,-0.1543370577,9.6981099978,-0.3122633493,-0.0010690141629999999,-0.072234814157,0.004428772961000001,0.48458999999999997,-1.2963,-1.00572,-5.64864,-2.3536,14.1216,1.004618800888231,22.564999999999998
16899,0,1788981,-13,1354,-46,-1,15,87,-320,-3215,-2528,-44,1355,-57,38,-28,-71,1991,-1272,-966,-304,-64,448,21.4,1.0044115470022206,23.75,1.0050333086602516,4449.49365234375,-7309.81103515625,37.79999923706055,2,12,0.550000011920929,11.35614013671875,3,0,0.0,0.0,0.0,0.0,-0.5335016120280837,0.0,0.0,-0.1662645800862994,0.3696910917,0.2045863322999999,9.7232346351,0.1867905855178833,-0.6712418794631958,0.1823252141475677,0.6937587261199951,6,44.824894205729166,-73.16351725260417,-0.0933200814,9.719645401200001,-0.3302095188,-0.31585258320000004,9.726823869,-0.4091726646,-0.000305432618,0.00458148927,0.026572637766,0.011606439484,-0.008552113303999999,-0.021685715878,-0.1856,-1.8647,-1.46624,1.15478,-0.73776,-0.56028,-0.2045863323,9.7232346351,-0.36969109170000003,0.005650503433,-0.0019853120169999994,0.0024434609439999994,0.48458999999999997,-1.3012299999999999,-1.01326,-8.94368,-1.88288,13.18016,1.004722427831236,22.575
16900,0,1789086,-10,1360,-38,24,-38,66,-320,-3215,-2528,-34,1358,-67,62,-82,-87,1996,-1291,-959,-304,-32,528,21.41,1.004372070071552,23.72,1.004559585492228,4449.49365234375,-7309.81103515625,37.79999923706055,2,12,0.550000011920929,11.39703369140625,3,0,0.0,0.0,0.0,0.0,-0.4333465298681665,0.0,0.0,-0.0500782591143552,0.3768695594999999,0.1579262916,9.755537740199998,0.1862747967243194,-0.6714335083961487,0.1818110644817352,0.6938469409942627,6,44.824894205729166,-73.16351725260417,-0.071784678,9.762716208,-0.2727817764,-0.24406790520000002,9.7483592724,-0.4809573426,0.007330382832,-0.011606439484,0.020158552788,0.018936822316,-0.025045474675999997,-0.026572637766,-0.1856,-1.8647,-1.46624,1.15768,-0.74878,-0.55622,-0.15792629160000002,9.755537740200001,-0.3768695595,0.013133602574,-0.018325957079999997,-0.0032070424890000004,0.48604,-1.30674,-1.01123,-8.94368,-0.94144,15.533760000000001,1.0044658277818899,22.564999999999998
16901,0,1789192,4,1351,-20,64,-356,65,-318,-3199,-2526,-18,1358,-46,84,-421,-85,1996,-1291,-959,-288,-144,544,21.4,1.0044115470022206,23.72,1.0047273624475697,4449.49365234375,-7309.81103515625,37.79999923706055,2,12,0.550000011920929,11.38885498046875,3,0,0.0,0.0,0.0,0.0,-0.3411931449507415,0.0,0.0,0.0444627703073668,0.2368894373999999,0.0502492746,9.7232346351,0.1832974404096603,-0.6725677251815796,0.1790177822113037,0.6942675113677979,6,44.824894205729166,-73.16351725260417,0.0287138712,9.6981099978,-0.143569356,-0.1292124204,9.7483592724,-0.3302095188,0.019547687552,-0.108734012008,0.01985312017,0.025656339912,-0.128587132178,-0.02596177253,-0.18444,-1.85542,-1.46508,1.15768,-0.74878,-0.55622,-0.0502492746,9.723234635099999,-0.2368894374,0.022602013732,-0.11866057209299999,-0.0030543261800000006,0.48662000000000005,-1.3021,-1.01065,-8.47296,-4.23648,16.00448,1.0045694547248951,22.56
16902,0,1789297,4,1353,-22,43,-410,89,-318,-3199,-2526,-22,1356,-34,78,-455,-60,1978,-1278,-955,-336,-80,384,21.4,1.0043128546755489,23.72,1.0049346163335802,4449.49365234375,-7309.81103515625,37.79999923706055,2,12,0.550000011920929,11.35614013671875,3,0,0.0,0.0,0.0,0.0,-0.2843956880698062,0.0,0.0,0.0860537233518228,0.2009970984,0.0646062102,9.7232346351,0.1781710237264633,-0.6742367744445801,0.1737986505031585,0.6953084468841553,6,44.824894205729166,-73.16351725260417,0.0287138712,9.7124669334,-0.15792629160000002,-0.15792629160000002,9.7340023368,-0.24406790520000002,0.013133602574,-0.12522737338,0.027183503002,0.023823744204,-0.13897184119,-0.01832595708,-0.18444,-1.85542,-1.46508,1.14724,-0.74124,-0.5539,-0.06460621020000001,9.723234635099999,-0.20099709840000002,0.018478673389,-0.132099607285,0.004428772960999999,0.48140000000000005,-1.29833,-1.00949,-9.88512,-2.3536,11.29728,1.0046237355045644,22.56
16903,0,1789403,1,1352,-11,62,296,93,-323,-3214,-2539,-18,1357,-23,90,245,-46,1978,-1278,-955,-304,-80,432,21.39,1.004441154700222,23.73,1.0047273624475697,4449.49365234375,-7309.81103515625,37.79999923706055,2,12,0.550000011920929,11.36431884765625,3,0,0.0,0.0,0.0,0.0,-0.2220873517427703,0.0,0.0,0.1294657680400407,0.1220339526,0.0610169763,9.7232346351,0.1111510321497917,-0.6912562251091003,0.1083193495869636,0.7057459354400635,6,44.824894205729166,-73.16351725260417,0.0071784678,9.7052884656,-0.07896314580000001,-0.1292124204,9.7411808046,-0.1651047594,0.018936822316,0.090408054928,0.028405233473999997,0.02748893562,0.07483099140999999,-0.014049900427999999,-0.18734,-1.86412,-1.47262,1.14724,-0.74124,-0.5539,-0.0610169763,9.7232346351,-0.1220339526,0.023212878968,0.082619523169,0.007177666522999999,0.47995,-1.30268,-1.01326,-8.94368,-2.3536,12.70944,1.004584258573896,22.560000000000002
16904,0,1789508,9,1351,-1,48,694,95,-323,-3214,-2539,-18,1351,-20,83,643,-43,1972,-1285,-946,-128,-128,448,21.4,1.0043029854428818,23.73,1.00500370096225,4449.49365234375,-7309.81103515625,37.900001525878906,2,12,0.550000011920929,11.33978271484375,3,0,0.0,0.0,0.0,0.0,-0.2457545671529372,0.0,0.0,0.0817974303714387,0.0753739118999999,0.0323031051,9.6981099978,0.1200888976454734,-0.6904061436653137,0.1163595840334892,0.7038312554359436,6,44.824894205729166,-73.16351725260417,0.0646062102,9.6981099978,-0.0071784678,-0.1292124204,9.6981099978,-0.143569356,0.014660765664,0.21197023689199998,0.029016098709999997,0.025350907293999997,0.196393173374,-0.013133602574,-0.18734,-1.86412,-1.47262,1.14376,-0.7453,-0.5486800000000001,-0.0323031051,9.6981099978,-0.0753739119,0.020005836479,0.204181705133,0.007941248068,0.47821,-1.30471,-1.01065,-3.76576,-3.76576,13.18016,1.0046533432025657,22.564999999999998
16905,0,1789614,3,1354,-34,5,-199,92,-330,-3208,-2498,-38,1356,-44,37,-260,-57,1972,-1285,-946,-208,-96,512,21.39,1.00413520848754,23.72,1.004816185541574,4449.49365234375,-7309.81103515625,37.900001525878906,2,12,0.550000011920929,11.38885498046875,3,0,0.0,0.0,0.0,0.0,-0.2047304018042811,0.0,0.0,0.1079522424255772,0.2799602442,0.1256231864999999,9.726823869,0.1228008791804313,-0.6899805665016174,0.1185830533504486,0.7034094929695129,6,44.824894205729166,-73.16351725260417,0.0215354034,9.719645401200001,-0.24406790520000002,-0.2727817764,9.7340023368,-0.31585258320000004,0.0015271630899999999,-0.060781090982,0.028099800855999998,0.011301006866,-0.07941248068,-0.017409659225999997,-0.19140000000000001,-1.86064,-1.44884,1.14376,-0.7453,-0.5486800000000001,-0.1256231865,9.726823869,-0.27996024420000004,0.006414084978,-0.070096785831,0.005345070815,0.47618000000000005,-1.30297,-0.99876,-6.11936,-2.82432,15.06304,1.004475697014557,22.555
16906,0,1789719,-13,1354,-16,-4,-47,86,-330,-3208,-2498,-40,1358,-29,37,-113,-76,1988,-1285,-988,-336,-16,368,21.39,1.004431285467555,23.73,1.0051023932889218,4449.49365234375,-7309.81103515625,37.900001525878906,2,12,0.550000011920929,11.35614013671875,3,0,0.0,0.0,0.0,0.0,-0.2799566204953875,0.0,0.0,0.0059784606892039,0.1615155254999999,0.1902293966999999,9.7340023368,0.1211781427264213,-0.6900061368942261,0.1170177161693573,0.7039278149604797,6,44.824894205729166,-73.16351725260417,-0.0933200814,9.719645401200001,-0.1148554848,-0.287138712,9.7483592724,-0.2081755662,-0.001221730472,-0.014355333045999999,0.026267205148,0.011301006866,-0.034513885833999995,-0.023212878968,-0.19140000000000001,-1.86064,-1.44884,1.15304,-0.7453,-0.57304,-0.1902293967,9.7340023368,-0.1615155255,0.005039638197,-0.024434609439999998,0.0015271630900000003,0.48082,-1.30297,-1.01094,-9.88512,-0.47072,10.82656,1.0047668393782385,22.560000000000002
16907,0,1789824,-7,1356,-29,23,529,63,-326,-3197,-2549,-34,1357,-46,48,472,-77,1988,-1285,-988,-224,-16,464,21.42,1.004500370096225,23.72,1.0047767086109054,4449.49365234375,-7309.81103515625,37.900001525878906,2,12,0.550000011920929,11.35614013671875,3,0,0.0,0.0,0.0,0.0,-0.293864518626664,0.0,0.0,-0.0194891015050016,0.2691925425,0.1471585899,9.7375915707,0.1255628764629364,-0.6891528964042664,0.121578462421894,0.70322185754776,6,44.824894205729166,-73.16351725260417,-0.050249274600000005,9.7340023368,-0.2081755662,-0.24406790520000002,9.7411808046,-0.3302095188,0.0070249502139999994,0.161573854922,0.019242254934,0.014660765664,0.144164195696,-0.023518311586,-0.18908,-1.85426,-1.47842,1.15304,-0.7453,-0.57304,-0.14715858990000003,9.737591570700001,-0.2691925425,0.010842857939,0.15286902530899998,-0.0021380283259999997,0.48198,-1.29978,-1.02573,-6.59008,-0.47072,13.65088,1.0046385393535653,22.57
16908,0,1789930,4,1358,-27,29,486,77,-326,-3197,-2549,-32,1357,-42,60,413,-74,1988,-1283,-972,-240,-96,448,21.39,1.0044016777695537,23.72,1.004875400937577,4449.49365234375,-7309.81103515625,37.900001525878906,2,12,0.550000011920929,11.35614013671875,3,0,0.0,0.0,0.0,0.0,-0.3190881713463929,0.0,0.0,-0.0489627772291046,0.2476571390999999,0.1004985492,9.7447700385,0.1315187662839889,-0.6880512833595276,0.1276115477085113,0.7021421790122986,6,44.824894205729166,-73.16351725260417,0.0287138712,9.7483592724,-0.1938186306,-0.2297109696,9.7411808046,-0.3014956476,0.008857545922,0.14844025234799998,0.023518311586,0.01832595708,0.126143671234,-0.022602013732,-0.18908,-1.85426,-1.47842,1.15304,-0.74414,-0.56376,-0.10049854920000001,9.7447700385,-0.24765713910000003,0.013591751501000001,0.137291961791,0.00045814892699999957,0.48198,-1.2992,-1.02109,-7.0608,-2.82432,13.18016,1.0046385393535653,22.555
16909,0,1790035,1,1356,-23,13,383,78,-313,-3196,-2530,-33,1358,-42,54,344,-58,1988,-1283,-972,-288,-32,544,21.4,1.0043622008388848,23.72,1.0047668393782383,4449.49365234375,-7309.81103515625,37.900001525878906,2,12,0.550000011920929,11.34796142578125,3,0,0.0,0.0,0.0,0.0,-0.3044360670982082,0.0,0.0,-0.035701877662662,0.2333002034999999,0.1148554847999999,9.7411808046,0.1367361396551132,-0.6870502233505249,0.1327019482851028,0.7011814117431641,6,44.824894205729166,-73.16351725260417,0.0071784678,9.7340023368,-0.1651047594,-0.2368894374,9.7483592724,-0.3014956476,0.003970624034,0.116980692694,0.023823744204,0.016493361372,0.105068820592,-0.017715091844,-0.18154,-1.85368,-1.4674,1.15304,-0.74414,-0.56376,-0.1148554848,9.741180804599999,-0.23330020350000003,0.010231992702999999,0.11102475664299999,0.003054326179999999,0.48575,-1.29891,-1.01558,-8.47296,-0.94144,16.00448,1.0045645201085616,22.56
16910,0,1790141,-10,1352,-19,13,283,79,-305,-3180,-2501,-37,1352,-41,63,212,-70,2015,-1285,-989,-208,-16,496,21.4,1.0043622008388848,23.72,1.0046582778188995,4449.49365234375,-7309.81103515625,37.900001525878906,2,12,0.550000011920929,11.36431884765625,3,0,0.0,0.0,0.0,0.0,-0.3176997181551151,0.0,0.0,-0.051144919060203,0.2153540339999999,0.1686939932999999,9.7052884656,0.1413870304822921,-0.6861695647239685,0.1371536999940872,0.7002641558647156,6,44.824894205729166,-73.16351725260417,-0.071784678,9.7052884656,-0.1363908882,-0.26560330860000003,9.7052884656,-0.2943171798,0.003970624034,0.086437430894,0.024129176821999998,0.019242254934,0.064751715016,-0.021380283259999997,-0.1769,-1.8444,-1.45058,1.1687,-0.7453,-0.57362,-0.1686939933,9.7052884656,-0.215354034,0.011606439484,0.075594572955,0.0013744467810000004,0.4959,-1.29485,-1.0121,-6.11936,-0.47072,14.59232,1.004510239328892,22.56
16911,0,1790246,-15,1357,-30,26,301,77,-305,-3180,-2501,-44,1351,-45,55,229,-72,2026,-1279,-936,-272,-16,544,21.39,1.004431285467555,23.72,1.0047668393782383,4449.49365234375,-7309.81103515625,37.900001525878906,2,12,0.550000011920929,11.33160400390625,3,0,0.0,0.0,0.0,0.0,-0.401499219367626,0.0,0.0,-0.140864831617257,0.2691925424999999,0.2117648000999999,9.7196454012,0.1458885222673416,-0.6852934956550598,0.1415375024080276,0.6993257999420166,6,44.824894205729166,-73.16351725260417,-0.107677017,9.7411808046,-0.215354034,-0.31585258320000004,9.6981099978,-0.323031051,0.007941248068,0.09193521801799999,0.023518311586,0.016798793989999998,0.069944069522,-0.021991148496,-0.1769,-1.8444,-1.45058,1.17508,-0.74182,-0.54288,-0.2117648001,9.719645401200001,-0.2691925425,0.012370021028999999,0.08093964376999999,0.0007635815449999993,0.4990899999999999,-1.29311,-0.99673,-8.00224,-0.47072,16.00448,1.0045990624228966,22.555
16912,0,1790352,-5,1358,-36,7,-90,82,-306,-3221,-2498,-29,1357,-53,50,-137,-69,2026,-1279,-936,-288,-48,432,21.39,1.004441154700222,23.73,1.00500370096225,4449.49365234375,-7309.81103515625,37.900001525878906,2,12,0.550000011920929,11.36431884765625,3,0,0.0,0.0,0.0,0.0,-0.3714392813470235,0.0,0.0,-0.103823949648265,0.3194418170999999,0.1220339526,9.7447700385,0.083276942372322,-0.6915470957756042,0.0807769820094108,0.712953507900238,6,44.824894205729166,-73.16351725260417,-0.035892339,9.7483592724,-0.2584248408,-0.2081755662,9.7411808046,-0.3804587934,0.0021380283259999997,-0.02748893562,0.025045474675999997,0.0152716309,-0.041844268665999995,-0.021074850641999997,-0.17748,-1.86818,-1.44884,1.17508,-0.74182,-0.54288,-0.1220339526,9.7447700385,-0.31944181709999997,0.008704829612999999,-0.034666602143,0.001985312017,0.49879999999999997,-1.305,-0.99586,-8.47296,-1.41216,12.70944,1.0047224278312359,22.560000000000002
16913,0,1790457,-5,1360,-25,20,-316,82,-306,-3221,-2498,-30,1353,-38,68,-381,-69,2024,-1293,-956,-208,-112,464,21.4,1.0044608931655563,23.74,1.0050727855909205,4449.49365234375,-7309.81103515625,37.900001525878906,2,12,0.550000011920929,11.35614013671875,3,0,0.0,0.0,0.0,0.0,-0.3713570351733681,0.0,0.0,-0.1023199874596705,0.2261217356999999,0.1256231864999999,9.7375915707,0.0806718692183494,-0.6917724013328552,0.0782370120286941,0.7133176326751709,6,44.824894205729166,-73.16351725260417,-0.035892339,9.762716208,-0.179461695,-0.215354034,9.7124669334,-0.2727817764,0.0061086523599999994,-0.09651670728799999,0.025045474675999997,0.020769418023999998,-0.116369827458,-0.021074850641999997,-0.17748,-1.86818,-1.44884,1.17392,-0.74994,-0.55448,-0.1256231865,9.737591570700001,-0.2261217357,0.013439035191999998,-0.106443267373,0.001985312017,0.49822000000000005,-1.3090600000000001,-1.00166,-6.11936,-3.29504,13.65088,1.0047668393782385,22.57
16914,0,1790563,-1,1352,-5,7,-462,67,-326,-3200,-2502,-31,1355,-27,58,-503,-87,2024,-1293,-956,-272,-48,400,21.4,1.0044707623982236,23.73,1.0049444855662473,4449.49365234375,-7309.81103515625,37.900001525878906,2,12,0.550000011920929,11.36431884765625,3,0,0.0,0.0,0.0,0.0,-0.3529463002315113,0.0,0.0,-0.0817509579843034,0.1148554847999999,0.1148554847999999,9.7160561673,0.0758316367864608,-0.6922961473464966,0.0736322849988937,0.7138304710388184,6,44.824894205729166,-73.16351725260417,-0.0071784678,9.7052884656,-0.035892339,-0.2225325018,9.726823869,-0.1938186306,0.0021380283259999997,-0.141109869516,0.020463985405999998,0.017715091844,-0.153632606854,-0.026572637766,-0.18908,-1.856,-1.45116,1.17392,-0.74994,-0.55448,-0.1148554848,9.7160561673,-0.1148554848,0.009926560085000001,-0.14737123818499998,-0.0030543261800000006,0.49242,-1.3029700000000002,-1.00282,-8.00224,-1.41216,11.768,1.0047076239822355,22.564999999999998
16915,0,1790668,-9,1357,-16,19,-288,68,-326,-3200,-2502,-29,1355,-30,35,-333,-88,1990,-1275,-951,-320,-16,416,21.39,1.0044510239328892,23.72,1.004816185541574,4449.49365234375,-7309.81103515625,37.900001525878906,2,12,0.550000011920929,11.35614013671875,3,0,0.0,0.0,0.0,0.0,-0.286224905365279,0.0,0.0,-0.0135609962242212,0.1651047593999999,0.1363908882,9.7340023368,0.0720665454864502,-0.692629873752594,0.0701842159032821,0.71424400806427,6,44.824894205729166,-73.16351725260417,-0.0646062102,9.7411808046,-0.1148554848,-0.2081755662,9.726823869,-0.215354034,0.005803219742,-0.087964593984,0.020769418023999998,0.010690141629999999,-0.101709061794,-0.026878070384,-0.18908,-1.856,-1.45116,1.1542000000000001,-0.7395,-0.55158,-0.1363908882,9.7340023368,-0.1651047594,0.008246680686,-0.094836827889,-0.0030543261800000006,0.48256000000000004,-1.2977500000000002,-1.00137,-9.4144,-0.47072,12.23872,1.0046336047372315,22.555
16916,0,1790773,-6,1357,-18,6,105,69,-322,-3216,-2534,-32,1359,-36,55,60,-73,1990,-1275,-951,-272,-96,448,21.4,1.0044608931655563,23.72,1.0047767086109054,4449.49365234375,-7309.81103515625,37.900001525878906,2,12,0.550000011920929,11.39703369140625,3,0,0.0,0.0,0.0,0.0,-0.2984093679265137,0.0,0.0,-0.0318031269772581,0.1938186305999999,0.1363908882,9.748359272399998,0.0722390338778495,-0.692618727684021,0.0705686137080192,0.7141995429992676,6,44.824894205729166,-73.16351725260417,-0.0430708068,9.7411808046,-0.1292124204,-0.2297109696,9.755537740200001,-0.2584248408,0.001832595708,0.03207042489,0.021074850641999997,0.016798793989999998,0.01832595708,-0.022296581114,-0.18676,-1.86528,-1.46972,1.1542000000000001,-0.7395,-0.55158,-0.1363908882,9.748359272400002,-0.19381863059999999,0.009315694848999998,0.025198190985,-0.0006108652360000012,0.48372000000000004,-1.30239,-1.01065,-8.00224,-2.82432,13.18016,1.0046188008882309,22.56
16917,0,1790879,-1,1352,-17,7,196,88,-322,-3216,-2534,-28,1361,-41,50,124,-67,1968,-1283,-946,-288,-32,528,21.41,1.0044806316308907,23.73,1.00500370096225,4449.49365234375,-7309.81103515625,37.900001525878906,2,12,0.550000011920929,11.36431884765625,3,0,0.0,0.0,0.0,0.0,-0.350619628648576,0.0,0.0,-0.0913599465199389,0.2081755662,0.1040877831,9.7375915707,0.0749893859028816,-0.6923080086708069,0.0731860920786857,0.7139538526535034,6,44.824894205729166,-73.16351725260417,-0.0071784678,9.7052884656,-0.12203395260000001,-0.20099709840000002,9.7698946758,-0.2943171798,0.0021380283259999997,0.059864793128,0.026878070384,0.0152716309,0.037873644632,-0.020463985405999998,-0.18676,-1.86528,-1.46972,1.14144,-0.74414,-0.5486800000000001,-0.10408778310000001,9.737591570700001,-0.2081755662,0.008704829612999999,0.048869218879999995,0.0032070424890000004,0.47734,-1.30471,-1.0091999999999999,-8.47296,-0.94144,15.533760000000001,1.0047421662965703,22.57
16918,0,1790984,-4,1357,-15,-4,-19,94,-303,-3199,-2543,-31,1357,-32,41,-75,-69,1968,-1283,-946,-288,-48,512,21.41,1.0045398470268936,23.72,1.0049247471009128,4449.49365234375,-7309.81103515625,37.900001525878906,2,12,0.550000011920929,11.36431884765625,3,0,0.0,0.0,0.0,0.0,-0.2977701212007123,0.0,0.0,-0.0375091023609968,0.1686939932999999,0.1256231864999999,9.7411808046,0.0759732574224472,-0.6920885443687439,0.0738361626863479,0.713995635509491,6,44.824894205729166,-73.16351725260417,-0.0287138712,9.7411808046,-0.107677017,-0.2225325018,9.7411808046,-0.2297109696,-0.001221730472,-0.005803219742,0.028710666091999997,0.012522737337999999,-0.02290744635,-0.021074850641999997,-0.17574,-1.85542,-1.47494,1.14144,-0.74414,-0.5486800000000001,-0.1256231865,9.7411808046,-0.1686939933,0.005650503432999999,-0.014355333046,0.003817907725,0.48285,-1.2997800000000002,-1.01181,-8.47296,-1.41216,15.06304,1.0047322970639032,22.564999999999998
16919,0,1791090,-10,1353,-31,1,72,92,-303,-3199,-2543,-29,1359,-50,46,3,-48,1977,-1284,-969,-384,-64,480,21.39,1.0042339008142116,23.74,1.0049740932642488,4449.49365234375,-7309.81103515625,37.900001525878906,2,12,0.550000011920929,11.36431884765625,3,0,0.0,0.0,0.0,0.0,-0.3678989505439812,0.0,0.0,-0.1127910954128531,0.2907279458999999,0.1399801221,9.7340023368,0.0770512595772743,-0.691839873790741,0.0744428560137748,0.7140581607818604,6,44.824894205729166,-73.16351725260417,-0.071784678,9.7124669334,-0.2225325018,-0.2081755662,9.755537740200001,-0.35892339,0.000305432618,0.021991148496,0.028099800855999998,0.014049900427999999,0.000916297854,-0.014660765664,-0.17574,-1.85542,-1.47494,1.14666,-0.74472,-0.56202,-0.1399801221,9.7340023368,-0.2907279459,0.007177666522999999,0.011453723175,0.006719517595999999,0.48546,-1.30007,-1.0184799999999998,-11.29728,-1.88288,14.1216,1.0046039970392302,22.564999999999998
16920,0,1791195,-9,1354,-27,24,162,75,-325,-3214,-2517,-41,1353,-47,60,94,-73,1977,-1284,-969,-272,-128,528,21.4,1.0044707623982236,23.72,1.0047174932149026,4449.49365234375,-7309.81103515625,38.0,2,12,0.550000011920929,11.3602294921875,3,0,0.0,0.0,0.0,0.0,-0.3413551399906095,0.0,0.0,-0.0799768688362766,0.2656033086,0.179461695,9.7160561673,0.0788492113351821,-0.6917213201522827,0.0759898498654365,0.7138137817382812,6,44.824894205729166,-73.16351725260417,-0.0646062102,9.719645401200001,-0.1938186306,-0.2943171798,9.7124669334,-0.3373879866,0.007330382832,0.049480084115999995,0.02290744635,0.01832595708,0.028710666091999997,-0.022296581114,-0.1885,-1.86412,-1.45986,1.14666,-0.74472,-0.56202,-0.179461695,9.7160561673,-0.26560330860000003,0.012828169956,0.039095375104,0.0003054326179999997,0.47908,-1.30442,-1.01094,-8.00224,-3.76576,15.533760000000001,1.004594127806563,22.56
16921,0,1791301,3,1350,-28,32,63,65,-325,-3214,-2517,-22,1347,-43,63,-14,-87,1994,-1280,-939,-272,-80,512,21.39,1.0042931162102149,23.73,1.0048359240069085,4449.49365234375,-7309.81103515625,38.0,2,12,0.550000011920929,11.3765869140625,3,0,0.0,0.0,0.0,0.0,-0.3084571559435271,0.0,0.0,-0.0448695098302633,0.2548356068999999,0.0681954441,9.6801638283,0.0812223255634307,-0.6917112469673157,0.0784060060977935,0.7132958769798279,6,44.824894205729166,-73.16351725260417,0.0215354034,9.69093153,-0.20099709840000002,-0.15792629160000002,9.6693961266,-0.3086741154,0.009773843776,0.019242254934,0.01985312017,0.019242254934,-0.004276056651999999,-0.026572637766,-0.1885,-1.86412,-1.45986,1.15652,-0.7424,-0.54462,-0.0681954441,9.6801638283,-0.2548356069,0.014508049355,0.007483099141,-0.0033597587980000003,0.48401,-1.3032599999999999,-1.00224,-8.00224,-2.3536,15.06304,1.0045645201085618,22.560000000000002
16922,0,1791406,7,1358,-15,17,-309,71,-331,-3225,-2493,-13,1354,-30,39,-369,-83,1994,-1280,-939,-240,-80,464,21.41,1.0045398470268936,23.72,1.0046582778188995,4449.49365234375,-7309.81103515625,38.0,2,12,0.550000011920929,11.39703369140625,3,0,0.0,0.0,0.0,0.0,-0.3319124607645361,0.0,0.0,-0.0728212614840571,0.1615155254999999,0.0215354033999999,9.7340023368,0.0715160518884658,-0.6946171522140503,0.0699752569198608,0.7123875021934509,6,44.824894205729166,-73.16351725260417,0.050249274600000005,9.7483592724,-0.107677017,-0.0933200814,9.719645401200001,-0.215354034,0.005192354505999999,-0.094378678962,0.021685715878,0.011911872102,-0.112704636042,-0.025350907293999997,-0.19198,-1.8705,-1.44594,1.15652,-0.7424,-0.54462,-0.0215354034,9.7340023368,-0.1615155255,0.008552113303999999,-0.103541657502,-0.0018325957079999983,0.48227,-1.30645,-0.9952799999999999,-7.0608,-2.3536,13.65088,1.0045990624228964,22.564999999999998
16923,0,1791512,7,1352,-16,14,143,75,-331,-3225,-2493,-13,1357,-24,41,93,-69,1976,-1259,-984,-352,-32,512,21.4,1.0044115470022206,23.73,1.0049543547989144,4449.49365234375,-7309.81103515625,38.0,2,12,0.550000011920929,11.36431884765625,3,0,0.0,0.0,0.0,0.0,-0.4182537213625363,0.0,0.0,-0.163605945935136,0.1435693559999999,0.0215354033999999,9.7232346351,0.0713451728224754,-0.6945337057113647,0.0698507279157638,0.7124982476234436,6,44.824894205729166,-73.16351725260417,0.050249274600000005,9.7052884656,-0.1148554848,-0.0933200814,9.7411808046,-0.1722832272,0.004276056651999999,0.043676864374,0.02290744635,0.012522737337999999,0.028405233473999997,-0.021074850641999997,-0.19198,-1.8705,-1.44594,1.14608,-0.73022,-0.57072,-0.0215354034,9.7232346351,-0.143569356,0.008399396994999999,0.036041048924,0.0009162978540000009,0.47705,-1.30036,-1.00833,-10.35584,-0.94144,15.06304,1.0046829509005675,22.564999999999998
16924,0,1791617,1,1356,-21,-7,260,78,-338,-3219,-2522,-24,1358,-42,28,191,-62,1976,-1259,-984,-224,-64,368,21.39,1.004431285467555,23.72,1.0049247471009128,4449.49365234375,-7309.81103515625,38.0,2,12,0.550000011920929,11.39703369140625,3,0,0.0,0.0,0.0,0.0,-0.4349431785770313,0.0,0.0,-0.1744117378905091,0.2261217357,0.0825523797,9.7411808046,0.0751340165734291,-0.6940017938613892,0.073454849421978,0.7122645974159241,6,44.824894205729166,-73.16351725260417,0.0071784678,9.7340023368,-0.1507478238,-0.1722832272,9.7483592724,-0.3014956476,-0.0021380283259999997,0.07941248068,0.023823744204,0.008552113303999999,0.058337630037999993,-0.018936822316,-0.19604,-1.86702,-1.46276,1.14608,-0.73022,-0.57072,-0.0825523797,9.741180804599999,-0.22612173570000002,0.0032070424889999996,0.06887505535899999,0.0024434609439999994,0.47502,-1.2986199999999999,-1.01674,-6.59008,-1.88288,10.82656,1.004678016284234,22.555
16925,0,1791722,5,1350,-35,-4,177,83,-338,-3219,-2522,-21,1356,-50,28,109,-68,1964,-1288,-944,-272,-64,512,21.39,1.0042931162102149,23.73,1.0047273624475697,4449.49365234375,-7309.81103515625,38.0,2,12,0.550000011920929,11.38885498046875,3,0,0.0,0.0,0.0,0.0,-0.3287621046932857,0.0,0.0,-0.055743039857576,0.3050848814999999,0.0574277423999999,9.712466933399998,0.0783814489841461,-0.6933727860450745,0.0766022205352783,0.7121957540512085,6,44.824894205729166,-73.16351725260417,0.035892339,9.69093153,-0.251246373,-0.1507478238,9.7340023368,-0.35892339,-0.001221730472,0.054061573386,0.025350907293999997,0.008552113303999999,0.033292155361999996,-0.020769418023999998,-0.19604,-1.86702,-1.46276,1.13912,-0.74704,-0.54752,-0.05742774240000001,9.7124669334,-0.3050848815,0.0036651914159999996,0.04367686437399999,0.0022907446349999996,0.47153999999999996,-1.30703,-1.00514,-8.00224,-1.88288,15.06304,1.0045102393288923,22.560000000000002
16926,0,1791828,4,1360,-40,7,228,79,-332,-3225,-2520,-24,1350,-57,38,179,-69,1964,-1288,-944,-272,-48,400,21.39,1.004381939304219,23.72,1.0049740932642488,4449.49365234375,-7309.81103515625,38.0,2,12,0.550000011920929,11.38885498046875,3,0,0.0,0.0,0.0,0.0,-0.2686097995559727,0.0,0.0,0.001877446391484,0.3481556883,0.071784678,9.726823869,0.0814438983798027,-0.69275963306427,0.0795333981513977,0.7121273875236511,6,44.824894205729166,-73.16351725260417,0.0287138712,9.762716208,-0.287138712,-0.1722832272,9.69093153,-0.4091726646,0.0021380283259999997,0.06963863690399999,0.024129176821999998,0.011606439484,0.054672438622,-0.021074850641999997,-0.19256,-1.8705,-1.4616,1.13912,-0.74704,-0.54752,-0.071784678,9.726823869,-0.3481556883,0.006872233905,0.06215553776299999,0.0015271630900000003,0.4732799999999999,-1.30877,-1.0045600000000001,-8.00224,-1.41216,11.768,1.004678016284234,22.555
16927,0,1791933,4,1357,-39,28,-2,76,-329,-3221,-2536,-21,1353,-59,58,-85,-77,1967,-1262,-940,-288,-32,512,21.4,1.0044707623982236,23.72,1.0047668393782383,4449.49365234375,-7309.81103515625,38.0,2,12,0.550000011920929,11.38067626953125,3,0,0.0,0.0,0.0,0.0,-0.2485778123015247,0.0,0.0,0.0106634245872432,0.3517449222,0.0610169763,9.726823869,0.0831489041447639,-0.6925137042999268,0.0811328589916229,0.7119891047477722,6,44.824894205729166,-73.16351725260417,0.0287138712,9.7411808046,-0.2799602442,-0.1507478238,9.7124669334,-0.4235296002,0.008552113303999999,-0.000610865236,0.023212878968,0.017715091844,-0.02596177253,-0.023518311586,-0.19082,-1.86818,-1.47088,1.14086,-0.73196,-0.5452,-0.061016976300000005,9.726823869,-0.3517449222,0.013133602574,-0.013286318883,-0.00015271630899999986,0.47502,-1.30007,-1.00804,-8.47296,-0.94144,15.06304,1.004618800888231,22.56
16928,0,1792039,-4,1352,-25,42,11,69,-329,-3221,-2536,-31,1353,-42,86,-44,-68,1967,-1262,-940,-320,-96,464,21.39,1.0043424623735504,23.74,1.0049740932642488,4449.49365234375,-7309.81103515625,38.0,2,12,0.550000011920929,11.39703369140625,3,0,0.0,0.0,0.0,0.0,-0.281827510678244,0.0,0.0,-0.0351950988883928,0.2404786712999999,0.1256231864999999,9.7088776995,0.0838080048561096,-0.6925666928291321,0.0817155092954635,0.7117937207221985,6,44.824894205729166,-73.16351725260417,-0.0287138712,9.7052884656,-0.179461695,-0.2225325018,9.7124669334,-0.3014956476,0.012828169956,0.003359758798,0.021074850641999997,0.026267205148,-0.013439035192,-0.020769418023999998,-0.19082,-1.86818,-1.47088,1.14086,-0.73196,-0.5452,-0.1256231865,9.7088776995,-0.2404786713,0.019547687552,-0.005039638197,0.00015271630899999986,0.47502,-1.30007,-1.00804,-9.4144,-2.82432,13.65088,1.0046582778188995,22.564999999999998
16929,0,1792144,-5,1352,-16,34,-69,75,-330,-3213,-2521,-27,1353,-36,74,-119,-76,1974,-1295,-957,-224,-16,512,21.4,1.004253639279546,23.71,1.0046385393535653,4449.49365234375,-7309.81103515625,38.09999847412109,2,12,0.550000011920929,11.35614013671875,3,0,0.0,0.0,0.0,0.0,-0.2203821885864944,0.0,0.0,0.0262173871088761,0.1866401628,0.1148554847999999,9.7088776995,0.0848036631941795,-0.6926568150520325,0.0826859250664711,0.7114758491516113,6,44.824894205729166,-73.16351725260417,-0.035892339,9.7052884656,-0.1148554848,-0.1938186306,9.7124669334,-0.2584248408,0.010384709011999999,-0.021074850641999997,0.02290744635,0.022602013732,-0.036346481542,-0.023212878968,-0.19140000000000001,-1.86354,-1.46218,1.14492,-0.7511,-0.55506,-0.1148554848,9.7088776995,-0.1866401628,0.016493361372,-0.028710666092,-0.00015271630899999986,0.47675999999999996,-1.30732,-1.00862,-6.59008,-0.47072,15.06304,1.0044460893165557,22.555
16930,0,1792250,-2,1354,2,10,-129,78,-330,-3213,-2521,-29,1356,-19,43,-173,-78,1974,-1295,-957,-240,-64,512,21.39,1.0043523316062175,23.72,1.0047767086109054,4449.49365234375,-7309.81103515625,38.09999847412109,2,12,0.550000011920929,11.35614013671875,3,0,0.0,0.0,0.0,0.0,-0.2316914428055008,0.0,0.0,0.0040180987887357,0.0610169762999999,0.1112662509,9.726823869,0.0836003720760345,-0.6927676200866699,0.0816674679517746,0.7116280794143677,6,44.824894205729166,-73.16351725260417,-0.0143569356,9.719645401200001,0.0143569356,-0.2081755662,9.7340023368,-0.1363908882,0.0030543261799999997,-0.039400807722,0.023823744204,0.013133602574,-0.052839842914,-0.023823744204,-0.19140000000000001,-1.86354,-1.46218,1.14492,-0.7511,-0.55506,-0.1112662509,9.726823869,-0.061016976300000005,0.008093964377,-0.046120325318,0.0,0.47675999999999996,-1.30732,-1.00862,-7.0608,-1.88288,15.06304,1.0045645201085613,22.555
16931,0,1792355,-9,1353,-10,-2,318,87,-328,-3249,-2533,-31,1350,-32,29,251,-61,1979,-1282,-967,-256,0,464,21.39,1.0045102393288925,23.74,1.0050135701949174,4449.49365234375,-7309.81103515625,38.09999847412109,2,12,0.550000011920929,11.33978271484375,3,0,0.0,0.0,0.0,0.0,-0.2834977428950854,0.0,0.0,-0.059513896683453,0.1507478237999999,0.1435693559999999,9.7016992317,0.0514597184956073,-0.6987283825874329,0.0504852570593357,0.7117456793785095,6,44.824894205729166,-73.16351725260417,-0.0646062102,9.7124669334,-0.071784678,-0.2225325018,9.69093153,-0.2297109696,-0.000610865236,0.09712757252399999,0.026572637766,0.008857545922,0.07666358711799999,-0.018631389698,-0.19024,-1.88442,-1.4691400000000001,1.14782,-0.74356,-0.56086,-0.143569356,9.701699231700001,-0.1507478238,0.0041233403430000004,0.08689557982099999,0.003970624034,0.47879000000000005,-1.31399,-1.0150000000000001,-7.53152,0.0,13.65088,1.004761904761905,22.564999999999998
16932,0,1792461,-7,1358,-40,8,255,89,-328,-3249,-2533,-34,1357,-52,33,211,-51,1979,-1282,-967,-320,-64,448,21.38,1.0044214162348877,23.72,1.0047668393782383,4449.49365234375,-7309.81103515625,38.09999847412109,2,12,0.550000011920929,11.36431884765625,3,0,0.0,0.0,0.0,0.0,-0.3017639487372167,0.0,0.0,-0.0812516080671019,0.3302095187999999,0.1471585899,9.7447700385,0.0550783611834049,-0.6982450485229492,0.0538108982145786,0.7117054462432861,6,44.824894205729166,-73.16351725260417,-0.050249274600000005,9.7483592724,-0.287138712,-0.24406790520000002,9.7411808046,-0.3732803256,0.002443460944,0.07788531758999999,0.027183503002,0.010079276394,0.064446282398,-0.015577063518,-0.19024,-1.88442,-1.4691400000000001,1.14782,-0.74356,-0.56086,-0.14715858990000003,9.7447700385,-0.33020951880000005,0.006261368668999999,0.071165799994,0.005803219742,0.47879000000000005,-1.31399,-1.0150000000000001,-9.4144,-1.88288,13.18016,1.004594127806563,22.549999999999997
16933,0,1792566,-6,1355,-31,15,-86,78,-328,-3218,-2502,-39,1355,-52,66,-148,-58,1987,-1287,-936,-336,-128,416,21.4,1.0044707623982236,23.72,1.0047174932149026,4449.49365234375,-7309.81103515625,38.09999847412109,2,12,0.550000011920929,11.36431884765625,3,0,0.0,0.0,0.0,0.0,-0.386966849434579,0.0,0.0,-0.169767648610769,0.2979064137,0.1615155254999999,9.726823869,0.0553413890302181,-0.6981855630874634,0.0538927018642425,0.7117372155189514,6,44.824894205729166,-73.16351725260417,-0.0430708068,9.726823869,-0.2225325018,-0.2799602442,9.726823869,-0.3732803256,0.00458148927,-0.026267205148,0.023823744204,0.020158552788,-0.045204027464,-0.017715091844,-0.19024,-1.86644,-1.45116,1.15246,-0.74646,-0.54288,-0.16151552549999998,9.726823869,-0.29790641370000004,0.012370021028999999,-0.035735616306,0.003054326179999999,0.48111000000000004,-1.3064500000000001,-0.99702,-9.88512,-3.76576,12.23872,1.004594127806563,22.56
16934,0,1792671,-8,1351,-17,22,89,68,-328,-3218,-2502,-32,1356,-42,61,21,-78,1987,-1287,-936,-320,-16,400,21.39,1.0043918085368864,23.71,1.004747100912904,4449.49365234375,-7309.81103515625,38.09999847412109,2,12,0.550000011920929,11.35614013671875,3,0,0.0,0.0,0.0,0.0,-0.3916130989827283,0.0,0.0,-0.1619993104468542,0.2117648000999999,0.1435693559999999,9.7160561673,0.0552441179752349,-0.6983071565628052,0.0539243035018444,0.7116230726242065,6,44.824894205729166,-73.16351725260417,-0.0574277424,9.6981099978,-0.12203395260000001,-0.2297109696,9.7340023368,-0.3014956476,0.006719517596,0.027183503002,0.020769418023999998,0.018631389698,0.006414084978,-0.023823744204,-0.19024,-1.86644,-1.45116,1.15246,-0.74646,-0.54288,-0.143569356,9.7160561673,-0.2117648001,0.012675453647,0.016798793989999998,-0.0015271630900000003,0.48111000000000004,-1.3064500000000001,-0.99702,-9.4144,-0.47072,11.768,1.0045694547248951,22.55
16935,0,1792777,2,1352,-17,17,57,63,-350,-3224,-2484,-23,1356,-30,44,-4,-82,1964,-1264,-960,-240,0,432,21.4,1.0044214162348877,23.72,1.004816185541574,4449.49365234375,-7309.81103515625,38.09999847412109,2,12,0.550000011920929,11.36431884765625,3,0,0.0,0.0,0.0,0.0,-0.3915828277909001,0.0,0.0,-0.1501583286659676,0.1686939932999999,0.0753739118999999,9.7196454012,0.0558234080672264,-0.6983194351196289,0.054836481809616,0.7114961743354797,6,44.824894205729166,-73.16351725260417,0.0143569356,9.7052884656,-0.12203395260000001,-0.1651047594,9.7340023368,-0.215354034,0.005192354505999999,0.017409659225999997,0.019242254934,0.013439035192,-0.001221730472,-0.025045474675999997,-0.203,-1.86992,-1.44072,1.13912,-0.73312,-0.5568,-0.07537391189999999,9.719645401200001,-0.1686939933,0.009315694849,0.008093964377,-0.002901609870999999,0.4680599999999999,-1.30152,-0.99876,-7.0608,0.0,12.70944,1.0046188008882309,22.56
16936,0,1792882,5,1350,-14,2,-14,80,-350,-3224,-2484,-18,1359,-26,42,-72,-76,1964,-1264,-960,-336,-48,464,21.39,1.004381939304219,23.72,1.0047668393782383,4449.49365234375,-7309.81103515625,38.09999847412109,2,12,0.550000011920929,11.35614013671875,3,0,0.0,0.0,0.0,0.0,-0.372108802871044,0.0,0.0,-0.1233920658941519,0.1435693559999999,0.0466600407,9.7232346351,0.0556138381361961,-0.6982213258743286,0.0548341497778892,0.7116090655326843,6,44.824894205729166,-73.16351725260417,0.035892339,9.69093153,-0.10049854920000001,-0.1292124204,9.755537740200001,-0.1866401628,0.000610865236,-0.004276056651999999,0.024434609439999998,0.012828169956,-0.021991148496,-0.023212878968,-0.203,-1.86992,-1.44072,1.13912,-0.73312,-0.5568,-0.0466600407,9.7232346351,-0.143569356,0.006719517596,-0.013133602574,0.0006108652359999994,0.4680599999999999,-1.30152,-0.99876,-9.88512,-1.41216,13.65088,1.0045743893412287,22.555
16937,0,1792988,1,1359,-23,-6,361,83,-326,-3231,-2508,-24,1354,-40,29,298,-67,1981,-1274,-966,-320,-80,528,21.39,1.004441154700222,23.74,1.0049642240315817,4449.49365234375,-7309.81103515625,38.09999847412109,2,12,0.550000011920929,11.38885498046875,3,0,0.0,0.0,0.0,0.0,-0.3666859864268154,0.0,0.0,-0.1107701027959465,0.2261217357,0.0825523797,9.7375915707,0.0577565692365169,-0.6978645324707031,0.056897897273302,0.7116262912750244,6,44.824894205729166,-73.16351725260417,0.0071784678,9.755537740200001,-0.1651047594,-0.1722832272,9.719645401200001,-0.287138712,-0.001832595708,0.110261175098,0.025350907293999997,0.008857545922,0.091018920164,-0.020463985405999998,-0.18908,-1.87398,-1.45464,1.1489800000000001,-0.73892,-0.56028,-0.0825523797,9.737591570700001,-0.2261217357,0.003512475107,0.100640047631,0.0024434609439999994,0.47995000000000004,-1.30645,-1.00746,-9.4144,-2.3536,15.533760000000001,1.004702689365902,22.564999999999998
16938,0,1793093,1,1354,-27,9,447,87,-326,-3231,-2508,-25,1355,-50,57,386,-66,1981,-1274,-966,-240,-16,496,21.4,1.0043523316062175,23.72,1.004806316308907,4449.49365234375,-7309.81103515625,38.09999847412109,2,12,0.550000011920929,11.35614013671875,3,0,0.0,0.0,0.0,0.0,-0.2415837735237595,0.0,0.0,0.0223074036070069,0.2763710103,0.0861416135999999,9.7232346351,0.0629482865333557,-0.6973467469215393,0.061834443360567,0.7112816572189331,6,44.824894205729166,-73.16351725260417,0.0071784678,9.719645401200001,-0.1938186306,-0.179461695,9.726823869,-0.35892339,0.002748893562,0.136528380246,0.026572637766,0.017409659225999997,0.117896990548,-0.020158552788,-0.18908,-1.87398,-1.45464,1.1489800000000001,-0.73892,-0.56028,-0.0861416136,9.7232346351,-0.2763710103,0.010079276394,0.127212685397,0.0032070424890000004,0.47995000000000004,-1.30645,-1.00746,-7.0608,-0.47072,14.59232,1.0045793239575622,22.56
16939,0,1793199,-3,1355,-28,16,422,69,-313,-3222,-2508,-24,1352,-49,66,366,-71,1981,-1285,-968,-320,-80,480,21.4,1.0045201085615594,23.72,1.0047174932149026,4449.49365234375,-7309.81103515625,38.20000076293945,2,12,0.550000011920929,11.36431884765625,3,0,0.0,0.0,0.0,0.0,-0.3517358575411614,0.0,0.0,-0.1017761011919839,0.2763710103,0.0969093152999999,9.7160561673,0.0676558762788772,-0.6969437003135681,0.0664716362953186,0.71082603931427,6,44.824894205729166,-73.16351725260417,-0.0215354034,9.726823869,-0.20099709840000002,-0.1722832272,9.7052884656,-0.35174492220000003,0.004886921888,0.128892564796,0.021074850641999997,0.020158552788,0.11178833818799999,-0.021685715878,-0.18154,-1.86876,-1.45464,1.1489800000000001,-0.7453,-0.56144,-0.09690931529999999,9.7160561673,-0.2763710103,0.012522737337999999,0.120340451492,-0.00030543261800000145,0.48372000000000004,-1.30703,-1.00804,-9.4144,-2.3536,14.1216,1.004618800888231,22.56
16940,0,1793304,3,1356,-20,26,279,75,-313,-3222,-2508,-26,1358,-52,61,220,-81,1981,-1285,-968,-272,-16,400,21.4,1.0044214162348877,23.72,1.0047174932149026,4449.49365234375,-7309.81103515625,38.20000076293945,2,12,0.550000011920929,11.36431884765625,3,0,0.0,0.0,0.0,0.0,-0.3322113668015977,0.0,0.0,-0.0806176553832743,0.2584248407999999,0.0825523796999999,9.7411808046,0.0712469741702079,-0.6966853737831116,0.0700979530811309,0.7103798985481262,6,44.824894205729166,-73.16351725260417,0.0215354034,9.7340023368,-0.143569356,-0.1866401628,9.7483592724,-0.3732803256,0.007941248068,0.085215700422,0.02290744635,0.018631389698,0.06719517595999999,-0.024740042057999997,-0.18154,-1.86876,-1.45464,1.1489800000000001,-0.7453,-0.56144,-0.08255237970000001,9.741180804599999,-0.2584248408,0.013286318883,0.076205438191,-0.0009162978539999991,0.48372000000000004,-1.30703,-1.00804,-8.00224,-0.47072,11.768,1.0045694547248951,22.56
16941,0,1793410,1,1353,-32,13,-242,73,-314,-3206,-2501,-20,1357,-53,47,-300,-76,1995,-1278,-961,-208,-16,464,21.4,1.0044214162348877,23.71,1.0046385393535653,4449.49365234375,-7309.81103515625,38.20000076293945,2,12,0.550000011920929,11.35614013671875,3,0,0.0,0.0,0.0,0.0,-0.3324884237949974,0.0,0.0,-0.0785194974537348,0.3050848815,0.0681954440999999,9.726823869,0.0970255434513092,-0.6904021501541138,0.0943934470415115,0.7106481790542603,6,44.824894205729166,-73.16351725260417,0.0071784678,9.7124669334,-0.2297109696,-0.143569356,9.7411808046,-0.3804587934,0.003970624034,-0.073914693556,0.022296581114,0.014355333045999999,-0.0916297854,-0.023212878968,-0.18212,-1.85948,-1.45058,1.1571,-0.74124,-0.55738,-0.0681954441,9.726823869,-0.3050848815,0.009162978539999998,-0.082772239478,-0.00045814892699999957,0.48749,-1.30036,-1.0039799999999999,-6.11936,-0.47072,13.65088,1.0045299777942265,22.555
16942,0,1793515,3,1354,-34,9,-787,77,-314,-3206,-2501,-16,1356,-52,54,-857,-89,1995,-1278,-961,-256,-64,432,21.41,1.004372070071552,23.71,1.0047964470762398,4449.49365234375,-7309.81103515625,38.20000076293945,2,12,0.550000011920929,11.37249755859375,3,0,0.0,0.0,0.0,0.0,-0.2985503449807216,0.0,0.0,-0.0436232267760482,0.3086741154,0.0466600406999999,9.726823869,0.0903750956058502,-0.6911152005195618,0.088207297027111,0.7116260528564453,6,44.824894205729166,-73.16351725260417,0.0215354034,9.719645401200001,-0.24406790520000002,-0.1148554848,9.7340023368,-0.3732803256,0.002748893562,-0.240375470366,0.023518311586,0.016493361372,-0.261755753626,-0.027183503002,-0.18212,-1.85948,-1.45058,1.1571,-0.74124,-0.55738,-0.0466600407,9.726823869,-0.3086741154,0.009621127467,-0.25106561199599997,-0.001832595708,0.48749,-1.30036,-1.0039799999999999,-7.53152,-1.88288,12.70944,1.004584258573896,22.560000000000002
16943,0,1793621,4,1355,-5,31,-518,76,-326,-3233,-2532,-28,1351,-18,54,-569,-81,1975,-1287,-966,-352,-16,480,21.39,1.0043918085368864,23.72,1.0049247471009128,4449.49365234375,-7309.81103515625,38.20000076293945,2,12,0.550000011920929,11.35614013671875,3,0,0.0,0.0,0.0,0.0,-0.323623631584551,0.0,0.0,-0.0734458445671624,0.0825523797,0.0861416136,9.712466933399998,0.081437349319458,-0.6921086311340332,0.0797806233167648,0.712733268737793,6,44.824894205729166,-73.16351725260417,0.0287138712,9.726823869,-0.035892339,-0.20099709840000002,9.6981099978,-0.1292124204,0.009468411158,-0.158214096124,0.023212878968,0.016493361372,-0.17379115964199998,-0.024740042057999997,-0.18908,-1.87514,-1.46856,1.1455,-0.74646,-0.56028,-0.08614161360000001,9.7124669334,-0.0825523797,0.012980886264999998,-0.166002627883,-0.0007635815449999993,0.47820999999999997,-1.3108,-1.01442,-10.35584,-0.47072,14.1216,1.0046582778188995,22.555
16944,0,1793726,4,1358,-21,29,573,61,-328,-3211,-2524,-29,1356,-40,79,525,-86,1975,-1287,-966,-304,-48,464,21.4,1.0044608931655563,23.71,1.0047372316802368,4449.49365234375,-7309.81103515625,38.20000076293945,2,12,0.550000011920929,11.39703369140625,3,0,0.0,0.0,0.0,0.0,-0.3409389060607921,0.0,0.0,-0.0930811427625034,0.2189432678999999,0.0897308475,9.7411808046,0.0846322700381279,-0.6919544339179993,0.0831597819924354,0.712124228477478,6,44.824894205729166,-73.16351725260417,0.0287138712,9.7483592724,-0.1507478238,-0.2081755662,9.7340023368,-0.287138712,0.008857545922,0.17501289011399998,0.018631389698,0.024129176821999998,0.16035212445,-0.026267205148,-0.19024,-1.86238,-1.46392,1.1455,-0.74646,-0.56028,-0.0897308475,9.741180804599999,-0.21894326790000002,0.016493361372,0.167682507282,-0.003817907725,0.47763,-1.30442,-1.0121,-8.94368,-1.41216,13.65088,1.0045990624228964,22.555
16945,0,1793831,10,1352,-30,20,-36,67,-328,-3211,-2524,-12,1355,-47,44,-93,-77,1946,-1282,-959,-304,-16,512,21.39,1.0044510239328892,23.73,1.0047273624475697,4449.49365234375,-7309.81103515625,38.29999923706055,2,12,0.550000011920929,11.36431884765625,3,0,0.0,0.0,0.0,0.0,-0.308868434684882,0.0,0.0,-0.0581289384994278,0.2763710103,0.0071784678,9.7160561673,0.087524726986885,-0.6915789246559143,0.0862622410058975,0.7117702960968018,6,44.824894205729166,-73.16351725260417,0.071784678,9.7052884656,-0.215354034,-0.0861416136,9.726823869,-0.3373879866,0.0061086523599999994,-0.010995574248,0.020463985405999998,0.013439035192,-0.028405233473999997,-0.023518311586,-0.19024,-1.86238,-1.46392,1.12868,-0.74356,-0.55622,-0.007178467799999998,9.7160561673,-0.2763710103,0.009773843776,-0.019700403861,-0.0015271630900000003,0.46921999999999997,-1.30297,-1.01007,-8.94368,-0.47072,15.06304,1.0045891931902293,22.560000000000002
16946,0,1793937,5,1355,-15,2,-108,97,-311,-3223,-2526,-18,1350,-28,42,-162,-54,1946,-1282,-959,-240,-80,416,21.4,1.0044214162348877,23.72,1.0046681470515668,4449.49365234375,-7309.81103515625,38.29999923706055,2,12,0.550000011920929,11.3929443359375,3,0,0.0,0.0,0.0,0.0,-0.28405336962768,0.0,0.0,-0.0319906756869984,0.1543370577,0.0466600407,9.7088776995,0.0848187357187271,-0.6915936470031738,0.0835648477077484,0.7124050855636597,6,44.824894205729166,-73.16351725260417,0.035892339,9.726823869,-0.107677017,-0.1292124204,9.69093153,-0.20099709840000002,0.000610865236,-0.032986722744,0.029626963946,0.012828169956,-0.049480084115999995,-0.016493361372,-0.18038,-1.86934,-1.46508,1.12868,-0.74356,-0.55622,-0.0466600407,9.7088776995,-0.1543370577,0.006719517596,-0.041233403429999996,0.006566801287000001,0.47414999999999996,-1.30645,-1.01065,-7.0608,-2.3536,12.23872,1.0045447816432271,22.56
16947,0,1794042,-1,1349,-27,29,584,107,-311,-3223,-2526,-29,1355,-43,60,523,-37,1985,-1265,-972,-240,-16,480,21.4,1.0044707623982236,23.72,1.00486553170491,4449.49365234375,-7309.81103515625,38.29999923706055,2,12,0.550000011920929,11.36431884765625,3,0,0.0,0.0,0.0,0.0,-0.2212867454144386,0.0,0.0,0.0251482622263258,0.2512463729999999,0.107677017,9.7052884656,0.0896074920892715,-0.6909958720207214,0.0876946523785591,0.711902379989624,6,44.824894205729166,-73.16351725260417,-0.0071784678,9.683753062200001,-0.1938186306,-0.2081755662,9.726823869,-0.3086741154,0.008857545922,0.178372648912,0.032681290126,0.01832595708,0.15974125921399998,-0.011301006866,-0.18038,-1.86934,-1.46508,1.1513,-0.7337,-0.56376,-0.107677017,9.7052884656,-0.251246373,0.013591751501000001,0.16905695406299998,0.010690141629999999,0.48546,-1.30152,-1.0144199999999999,-7.0608,-0.47072,14.1216,1.0046681470515668,22.56
16948,0,1794148,-11,1360,-30,23,127,95,-321,-3209,-2532,-38,1353,-52,63,64,-49,1960,-1310,-968,-224,-80,480,21.4,1.0045299777942265,23.72,1.004983962496916,4449.49365234375,-7309.81103515625,38.29999923706055,2,12,0.550000011920929,11.38067626953125,3,0,0.0,0.0,0.0,0.0,-0.3206692860181215,0.0,0.0,-0.0895293912399645,0.2943171797999999,0.1758724611,9.7375915707,0.0945965275168418,-0.69046950340271,0.0920266285538673,0.7112204432487488,6,44.824894205729166,-73.16351725260417,-0.07896314580000001,9.762716208,-0.215354034,-0.2727817764,9.7124669334,-0.3732803256,0.0070249502139999994,0.038789942486,0.029016098709999997,0.019242254934,0.019547687552,-0.014966198282,-0.18618,-1.86122,-1.46856,1.1368,-0.7598,-0.56144,-0.17587246110000002,9.737591570700001,-0.2943171798,0.013133602574,0.029168815018999997,0.007024950213999999,0.47531,-1.31051,-1.0150000000000001,-6.59008,-2.3536,14.1216,1.0047569701455712,22.56
16949,0,1794253,-12,1355,-12,25,-369,76,-321,-3209,-2532,-42,1352,-25,51,-412,-79,1960,-1310,-968,-272,-80,400,21.39,1.0045102393288925,23.72,1.0050234394275843,4449.49365234375,-7309.81103515625,38.29999923706055,2,12,0.550000011920929,11.35614013671875,3,0,0.0,0.0,0.0,0.0,-0.4196274997168667,0.0,0.0,-0.1882114556103321,0.1328016543,0.1938186305999999,9.7160561673,0.0918083041906356,-0.6908414363861084,0.0892202407121658,0.7115821838378906,6,44.824894205729166,-73.16351725260417,-0.0861416136,9.726823869,-0.0861416136,-0.3014956476,9.7052884656,-0.179461695,0.00763581545,-0.112704636042,0.023212878968,0.015577063518,-0.125838238616,-0.024129176821999998,-0.18618,-1.86122,-1.46856,1.1368,-0.7598,-0.56144,-0.1938186306,9.7160561673,-0.13280165430000002,0.011606439484,-0.119271437329,-0.00045814892699999957,0.47531,-1.31051,-1.0150000000000001,-8.00224,-2.3536,11.768,1.0047668393782385,22.555
16950,0,1794359,-11,1356,-14,21,544,66,-318,-3231,-2542,-36,1354,-23,54,475,-69,1976,-1290,-965,-272,-48,512,21.4,1.004678016284234,23.72,1.0047076239822357,4449.49365234375,-7309.81103515625,38.29999923706055,2,12,0.550000011920929,11.35614013671875,3,0,0.0,0.0,0.0,0.0,-0.5355641657097607,0.0,0.0,-0.296599026087223,0.1328016543,0.1686939933,9.726823869,0.3536080121994018,-0.6081393957138062,0.3465706706047058,0.6204971671104431,6,44.824894205729166,-73.16351725260417,-0.07896314580000001,9.7340023368,-0.10049854920000001,-0.2584248408,9.719645401200001,-0.1651047594,0.006414084978,0.16615534419199998,0.020158552788,0.016493361372,0.14508049355,-0.021074850641999997,-0.18444,-1.87398,-1.4743600000000001,1.14608,-0.7482,-0.5597,-0.1686939933,9.726823869,-0.13280165430000002,0.011453723175,0.155617918871,-0.00045814892699999957,0.48082,-1.31109,-1.01703,-8.00224,-1.41216,15.06304,1.0046928201332348,22.56
16951,0,1794464,2,1356,-22,-10,465,62,-318,-3231,-2542,-29,1359,-40,37,406,-82,1976,-1290,-965,-320,-144,528,21.4,1.0044214162348877,23.72,1.0047668393782383,4449.49365234375,-7309.81103515625,38.400001525878906,2,12,0.550000011920929,11.36431884765625,3,0,0.0,0.0,0.0,0.0,-0.5359434885925832,0.0,0.0,-0.2733709006068606,0.2225325017999999,0.0969093152999999,9.7447700385,0.3591134250164032,-0.6048823595046997,0.352334588766098,0.6172643303871155,6,44.824894205729166,-73.16351725260417,0.0143569356,9.7340023368,-0.15792629160000002,-0.2081755662,9.755537740200001,-0.287138712,-0.0030543261799999997,0.14202616736999998,0.018936822316,0.011301006866,0.124005642908,-0.025045474675999997,-0.18444,-1.87398,-1.4743600000000001,1.14608,-0.7482,-0.5597,-0.09690931529999999,9.7447700385,-0.2225325018,0.004123340343,0.133015905139,-0.003054326179999999,0.48082,-1.31109,-1.01703,-9.4144,-4.23648,15.533760000000001,1.004594127806563,22.56
16952,0,1794570,3,1353,-21,-4,146,95,-324,-3205,-2508,-25,1351,-44,40,84,-50,1985,-1297,-957,-320,-48,512,21.4,1.0044115470022206,23.71,1.0046385393535653,4449.49365234375,-7309.81103515625,38.400001525878906,2,12,0.550000011920929,11.38067626953125,3,0,0.0,0.0,0.0,0.0,-0.4357614858765029,0.0,0.0,-0.1488722170274112,0.2333002034999999,0.0789631458,9.7052884656,0.3614243566989898,-0.6032596230506897,0.3548436164855957,0.6160652041435242,6,44.824894205729166,-73.16351725260417,0.0215354034,9.7124669334,-0.1507478238,-0.179461695,9.6981099978,-0.31585258320000004,-0.001221730472,0.044593162228,0.029016098709999997,0.012217304719999999,0.025656339912,-0.0152716309,-0.18792,-1.8589,-1.45464,1.1513,-0.75226,-0.55506,-0.0789631458,9.705288465599999,-0.23330020350000003,0.005497787123999999,0.03512475107,0.006872233904999999,0.48169,-1.30558,-1.00485,-9.4144,-1.41216,15.06304,1.004525043177893,22.555
16953,0,1794675,-18,1352,-27,7,354,102,-324,-3205,-2508,-40,1360,-44,48,287,-42,1985,-1297,-957,-272,-16,512,21.39,1.004441154700222,23.73,1.0051517394522576,4449.49365234375,-7309.81103515625,38.400001525878906,2,12,0.550000011920929,11.38885498046875,3,0,0.0,0.0,0.0,0.0,-0.5559135385897939,0.0,0.0,-0.2710030490075283,0.2548356068999999,0.2081755662,9.7340023368,0.3638031482696533,-0.6016805768013,0.3569748997688293,0.6149770617485046,6,44.824894205729166,-73.16351725260417,-0.1292124204,9.7052884656,-0.1938186306,-0.287138712,9.762716208,-0.31585258320000004,0.0021380283259999997,0.108123146772,0.031154127036,0.014660765664,0.087659161366,-0.012828169956,-0.18792,-1.8589,-1.45464,1.1513,-0.75226,-0.55506,-0.2081755662,9.7340023368,-0.2548356069,0.008399396994999999,0.097891154069,0.009162978539999998,0.48169,-1.30558,-1.00485,-8.00224,-0.47072,15.06304,1.0047964470762398,22.560000000000002
16954,0,1794780,-15,1356,-22,29,749,68,-294,-3206,-2542,-42,1361,-43,73,707,-75,2012,-1291,-963,-320,-32,432,21.4,1.0044214162348877,23.72,1.0049247471009128,4449.49365234375,-7309.81103515625,38.400001525878906,2,12,0.550000011920929,11.36431884765625,3,0,0.0,0.0,0.0,0.0,-0.607630637894937,0.0,0.0,-0.3018847652401806,0.2333002034999999,0.2045863322999999,9.7519485063,0.3697998523712158,-0.5983057022094727,0.3625551760196686,0.6114181876182556,6,44.824894205729166,-73.16351725260417,-0.107677017,9.7340023368,-0.15792629160000002,-0.3014956476,9.7698946758,-0.3086741154,0.008857545922,0.22876903088199999,0.020769418023999998,0.022296581114,0.21594086092599998,-0.02290744635,-0.17052,-1.85948,-1.4743600000000001,1.16696,-0.74878,-0.55854,-0.2045863323,9.7519485063,-0.23330020350000003,0.015577063518,0.22235494590399998,-0.0010690141630000007,0.49822,-1.30413,-1.01645,-9.4144,-0.94144,12.70944,1.0046730816679004,22.56
16955,0,1794886,-5,1352,-15,11,657,58,-294,-3206,-2542,-33,1352,-39,68,585,-83,2012,-1291,-963,-288,-16,432,21.4,1.0043622008388848,23.72,1.0047273624475697,4449.49365234375,-7309.81103515625,38.400001525878906,2,12,0.550000011920929,11.38885498046875,3,0,0.0,0.0,0.0,0.0,-0.508958709105252,0.0,0.0,-0.1751524379197666,0.1938186305999999,0.1363908882,9.7052884656,0.3771228790283203,-0.5941392779350281,0.3697173595428467,0.6067008972167969,6,44.824894205729166,-73.16351725260417,-0.035892339,9.7052884656,-0.107677017,-0.2368894374,9.7052884656,-0.2799602442,0.003359758798,0.20066923002599998,0.017715091844,0.020769418023999998,0.17867808152999998,-0.025350907293999997,-0.17052,-1.85948,-1.4743600000000001,1.16696,-0.74878,-0.55854,-0.1363908882,9.7052884656,-0.19381863059999999,0.012064588410999999,0.189673655778,-0.003817907724999998,0.49822,-1.30413,-1.01645,-8.47296,-0.47072,12.70944,1.0045447816432271,22.56
16956,0,1794991,1,1355,-24,0,272,65,-306,-3208,-2488,-24,1355,-37,40,197,-82,2011,-1290,-927,-288,-128,512,21.4,1.0043622008388848,23.73,1.0048951394029115,4449.49365234375,-7309.81103515625,38.400001525878906,2,12,0.550000011920929,11.3929443359375,3,0,0.0,0.0,0.0,0.0,-0.4864814718331681,0.0,0.0,-0.1452146908774906,0.2189432679,0.0825523797,9.726823869,0.3811303675174713,-0.591607928276062,0.3739791810512543,0.6040524244308472,6,44.824894205729166,-73.16351725260417,0.0071784678,9.726823869,-0.1722832272,-0.1722832272,9.726823869,-0.26560330860000003,0.0,0.08307767209599999,0.01985312017,0.012217304719999999,0.060170225746,-0.025045474675999997,-0.17748,-1.86064,-1.44304,1.16638,-0.7482,-0.53766,-0.0825523797,9.726823869,-0.21894326790000002,0.0061086523599999994,0.07162394892099999,-0.0025961772529999993,0.49445,-1.30442,-0.9903500000000001,-8.47296,-3.76576,15.06304,1.0046286701208982,22.564999999999998
16957,0,1795097,2,1356,-29,-7,-93,88,-306,-3208,-2488,-22,1359,-47,31,-158,-65,2011,-1290,-927,-336,-32,512,21.4,1.0043128546755489,23.72,1.0049148778682455,4449.49365234375,-7309.81103515625,38.400001525878906,2,12,0.550000011920929,11.38885498046875,3,0,0.0,0.0,0.0,0.0,-0.5596648913509998,0.0,0.0,-0.2137192561968377,0.2727817764,0.0717846779999999,9.7447700385,0.3814065158367157,-0.591149091720581,0.3744628727436065,0.6040276288986206,6,44.824894205729166,-73.16351725260417,0.0143569356,9.7340023368,-0.2081755662,-0.15792629160000002,9.755537740200001,-0.3373879866,-0.0021380283259999997,-0.028405233473999997,0.026878070384,0.009468411158,-0.048258353643999996,-0.01985312017,-0.17748,-1.86064,-1.44304,1.16638,-0.7482,-0.53766,-0.071784678,9.7447700385,-0.2727817764,0.003665191416,-0.038331793558999995,0.003512475107,0.49445,-1.30442,-0.9903500000000001,-9.88512,-0.94144,15.06304,1.0046138662718973,22.56
16958,0,1795202,-4,1356,-31,16,-7,92,-293,-3202,-2465,-40,1352,-49,58,-66,-56,2035,-1288,-926,-368,-48,528,21.39,1.004441154700222,23.72,1.004983962496916,4449.49365234375,-7309.81103515625,38.5,2,12,0.550000011920929,11.36431884765625,3,0,0.0,0.0,0.0,0.0,-0.5901411576077903,0.0,0.0,-0.2306011157066111,0.2871387119999999,0.1579262916,9.7196454012,0.3808450102806091,-0.5913432836532593,0.3737911283969879,0.6046076416969299,6,44.824894205729166,-73.16351725260417,-0.0287138712,9.7340023368,-0.2225325018,-0.287138712,9.7052884656,-0.35174492220000003,0.004886921888,-0.0021380283259999997,0.028099800855999998,0.017715091844,-0.020158552788,-0.017104226607999998,-0.16994,-1.85716,-1.4297,1.1803,-0.74704,-0.53708,-0.15792629160000002,9.719645401200001,-0.287138712,0.011301006866,-0.011148290557,0.005497787124,0.50518,-1.3021,-0.98339,-10.82656,-1.41216,15.533760000000001,1.004712558598569,22.555
16959,0,1795308,-18,1351,-26,33,207,66,-293,-3202,-2465,-44,1356,-41,61,148,-75,2035,-1288,-926,-336,-64,480,21.41,1.004372070071552,23.71,1.0048457932395756,4449.49365234375,-7309.81103515625,38.5,2,12,0.550000011920929,11.36431884765625,3,0,0.0,0.0,0.0,0.0,-0.5115333283201734,0.0,0.0,-0.1351088361179272,0.2404786713,0.2225325018,9.7160561673,0.382252961397171,-0.5905870795249939,0.3749966919422149,0.6037111282348633,6,44.824894205729166,-73.16351725260417,-0.1292124204,9.6981099978,-0.1866401628,-0.31585258320000004,9.7340023368,-0.2943171798,0.010079276394,0.063224551926,0.020158552788,0.018631389698,0.045204027464,-0.02290744635,-0.16994,-1.85716,-1.4297,1.1803,-0.74704,-0.53708,-0.2225325018,9.7160561673,-0.2404786713,0.014355333046,0.054214289695,-0.0013744467810000004,0.50518,-1.3021,-0.98339,-9.88512,-1.88288,14.1216,1.0046089316555638,22.560000000000002
16960,0,1795413,-4,1351,-18,19,21,54,-325,-3206,-2494,-28,1348,-31,56,-36,-90,2005,-1295,-941,-288,-32,512,21.39,1.0044016777695537,23.73,1.0049444855662473,4449.49365234375,-7309.81103515625,38.5,2,12,0.550000011920929,11.36431884765625,3,0,0.0,0.0,0.0,0.0,-0.4935556134772412,0.0,0.0,-0.1093798951505912,0.1758724611,0.1148554847999999,9.6873422961,0.2504759430885315,-0.6530010104179382,0.2435771226882934,0.6719536781311035,6,44.824894205729166,-73.16351725260417,-0.0287138712,9.6981099978,-0.1292124204,-0.20099709840000002,9.6765745944,-0.2225325018,0.005803219742,0.006414084978,0.016493361372,0.017104226607999998,-0.010995574248,-0.02748893562,-0.1885,-1.85948,-1.44652,1.1629,-0.7511,-0.54578,-0.1148554848,9.687342296099999,-0.1758724611,0.011453723175,-0.002290744635,-0.005497787124,0.4872,-1.30529,-0.9961500000000001,-8.47296,-0.94144,15.06304,1.0046730816679004,22.560000000000002
16961,0,1795519,5,1354,-21,-2,-104,75,-294,-3199,-2487,-22,1352,-42,29,-149,-80,2005,-1295,-941,-256,-96,464,21.4,1.0045299777942265,23.72,1.004983962496916,4449.49365234375,-7309.81103515625,38.5,2,12,0.550000011920929,11.39703369140625,3,0,0.0,0.0,0.0,0.0,-0.4291785449364426,0.0,0.0,-0.0427347525252025,0.2261217357,0.0610169763,9.712466933399998,0.2491794824600219,-0.6532975435256958,0.2428134530782699,0.6724237203598022,6,44.824894205729166,-73.16351725260417,0.035892339,9.719645401200001,-0.1507478238,-0.15792629160000002,9.7052884656,-0.3014956476,-0.000610865236,-0.031764992272,0.02290744635,0.008857545922,-0.045509460082,-0.024434609439999998,-0.17052,-1.85542,-1.44246,1.1629,-0.7511,-0.54578,-0.06101697630000001,9.712466933400002,-0.22612173570000002,0.0041233403430000004,-0.038637226176999995,-0.0007635815449999993,0.49619,-1.30326,-0.9941200000000001,-7.53152,-2.82432,13.65088,1.0047569701455712,22.56
16962,0,1795624,-1,1354,-33,17,80,96,-294,-3199,-2487,-19,1355,-50,55,29,-62,2029,-1297,-924,-320,-112,480,21.39,1.0043918085368864,23.72,1.004806316308907,4449.49365234375,-7309.81103515625,38.5,2,12,0.550000011920929,11.35614013671875,3,0,0.0,0.0,0.0,0.0,-0.4145453319332787,0.0,0.0,-0.0305462888086203,0.2979064137,0.0717846779999999,9.7232346351,0.2488609999418258,-0.6532416343688965,0.242560401558876,0.672687292098999,6,44.824894205729166,-73.16351725260417,-0.0071784678,9.719645401200001,-0.2368894374,-0.1363908882,9.726823869,-0.35892339,0.005192354505999999,0.024434609439999998,0.029321531328,0.016798793989999998,0.008857545922,-0.018936822316,-0.17052,-1.85542,-1.44246,1.17682,-0.75226,-0.53592,-0.071784678,9.7232346351,-0.29790641370000004,0.010995574247999998,0.016646077680999998,0.005192354506,0.50315,-1.30384,-0.98919,-9.4144,-3.29504,14.1216,1.0045990624228966,22.555
16963,0,1795729,-11,1357,-28,30,271,100,-309,-3218,-2481,-38,1352,-46,70,207,-47,2029,-1297,-924,-336,-16,416,21.4,1.004687885516901,23.72,1.00486553170491,4449.49365234375,-7309.81103515625,38.5,2,12,0.550000011920929,11.33978271484375,3,0,0.0,0.0,0.0,0.0,-0.4863714174708728,0.0,0.0,-0.1102688411991095,0.2656033086,0.1758724611,9.7232346351,0.2508940398693084,-0.6525582671165466,0.2441635876893997,0.6720149517059326,6,44.824894205729166,-73.16351725260417,-0.07896314580000001,9.7411808046,-0.20099709840000002,-0.2727817764,9.7052884656,-0.3302095188,0.00916297854,0.082772239478,0.0305432618,0.021380283259999997,0.063224551926,-0.014355333045999999,-0.17922,-1.86644,-1.43898,1.17682,-0.75226,-0.53592,-0.17587246110000002,9.7232346351,-0.26560330860000003,0.0152716309,0.07299839570200001,0.008093964377,0.4988,-1.30935,-0.9874499999999999,-9.88512,-0.47072,12.23872,1.0047767086109056,22.56
16964,0,1795835,-11,1352,-20,29,14,81,-309,-3218,-2481,-32,1353,-41,58,-41,-69,2021,-1289,-962,-320,-96,384,21.4,1.0044707623982236,23.71,1.0047964470762398,4449.49365234375,-7309.81103515625,38.5,2,12,0.550000011920929,11.38067626953125,3,0,0.0,0.0,0.0,0.0,-0.4699722030299167,0.0,0.0,-0.0876122517234369,0.2189432679,0.1543370577,9.7088776995,0.2522343695163727,-0.6521546840667725,0.2452452480792999,0.6715108752250671,6,44.824894205729166,-73.16351725260417,-0.07896314580000001,9.7052884656,-0.143569356,-0.2297109696,9.7124669334,-0.2943171798,0.008857545922,0.004276056651999999,0.024740042057999997,0.017715091844,-0.012522737337999999,-0.021074850641999997,-0.17922,-1.86644,-1.43898,1.17218,-0.74762,-0.55796,-0.1543370577,9.7088776995,-0.21894326790000002,0.013286318883000001,-0.004123340343,0.001832595708,0.49648000000000003,-1.3070300000000001,-0.99847,-9.4144,-2.82432,11.29728,1.0046336047372317,22.555
16965,0,1795940,-10,1354,-16,9,-151,64,-303,-3224,-2491,-40,1357,-30,58,-201,-80,2021,-1289,-962,-384,-16,512,21.4,1.0044608931655563,23.72,1.004816185541574,4449.49365234375,-7309.81103515625,38.5,2,12,0.550000011920929,11.38885498046875,3,0,0.0,0.0,0.0,0.0,-0.471674066701041,0.0,0.0,-0.0872049394791122,0.1651047593999999,0.1794616949999999,9.730413102899998,0.2504560649394989,-0.6527281999588013,0.2436832636594772,0.6721876263618469,6,44.824894205729166,-73.16351725260417,-0.071784678,9.719645401200001,-0.1148554848,-0.287138712,9.7411808046,-0.215354034,0.002748893562,-0.046120325318,0.019547687552,0.017715091844,-0.061391956218,-0.024434609439999998,-0.17574,-1.86992,-1.44478,1.17218,-0.74762,-0.55796,-0.179461695,9.730413102900002,-0.1651047594,0.010231992703,-0.053756140768,-0.0024434609439999994,0.49822,-1.30877,-1.00137,-11.29728,-0.47072,15.06304,1.0046385393535653,22.56
16966,0,1796046,0,1357,-18,1,70,67,-303,-3224,-2491,-30,1355,-29,47,33,-81,2007,-1327,-962,-368,-96,432,21.4,1.0045793239575622,23.72,1.004816185541574,4449.49365234375,-7309.81103515625,38.5,2,12,0.550000011920929,11.37249755859375,3,0,0.0,0.0,0.0,0.0,-0.4415430183683818,0.0,0.0,-0.0574038514374248,0.1686939933,0.1076770169999999,9.7340023368,0.2494590878486633,-0.65292888879776,0.2431370317935943,0.6725611686706543,6,44.824894205729166,-73.16351725260417,0.0,9.7411808046,-0.1292124204,-0.215354034,9.726823869,-0.2081755662,0.000305432618,0.021380283259999997,0.020463985405999998,0.014355333045999999,0.010079276394,-0.024740042057999997,-0.17574,-1.86992,-1.44478,1.16406,-0.76966,-0.55796,-0.107677017,9.7340023368,-0.1686939933,0.007330382831999999,0.015729779827,-0.0021380283259999997,0.49416000000000004,-1.31979,-1.00137,-10.82656,-2.82432,12.70944,1.0046977547495681,22.56
16967,0,1796151,-3,1355,-19,-7,346,78,-285,-3192,-2494,-26,1357,-36,38,288,-62,2007,-1327,-962,-352,-96,512,21.4,1.0044214162348877,23.72,1.0047668393782383,4449.49365234375,-7309.81103515625,38.5,2,12,0.550000011920929,11.34796142578125,3,0,0.0,0.0,0.0,0.0,-0.5170791182823932,0.0,0.0,-0.1380952352376127,0.1974078644999999,0.1040877831,9.7340023368,0.2517799437046051,-0.6518299579620361,0.2456598728895187,0.6718451380729675,6,44.824894205729166,-73.16351725260417,-0.0215354034,9.726823869,-0.1363908882,-0.1866401628,9.7411808046,-0.2584248408,-0.0021380283259999997,0.105679685828,0.023823744204,0.011606439484,0.087964593984,-0.018936822316,-0.1653,-1.8513600000000001,-1.44652,1.16406,-0.76966,-0.55796,-0.1040877831,9.7340023368,-0.1974078645,0.004734205579,0.096822139906,0.0024434609439999994,0.49938000000000005,-1.31051,-1.00224,-10.35584,-2.82432,15.06304,1.004594127806563,22.56
16968,0,1796257,-3,1349,-16,-6,715,97,-285,-3192,-2494,-30,1353,-36,37,650,-51,2025,-1294,-941,-320,-16,512,21.4,1.0045299777942265,23.72,1.00486553170491,4449.49365234375,-7309.81103515625,38.5,2,12,0.550000011920929,11.35614013671875,3,0,0.0,0.0,0.0,0.0,-0.4757569026060787,0.0,0.0,-0.0897022103954075,0.1866401628,0.1184447186999999,9.6981099978,0.2572298943996429,-0.6495141386985779,0.2508207857608795,0.670114278793335,6,44.824894205729166,-73.16351725260417,-0.0215354034,9.683753062200001,-0.1148554848,-0.215354034,9.7124669334,-0.2584248408,-0.001832595708,0.21838432186999998,0.029626963946,0.011301006866,0.1985312017,-0.015577063518,-0.1653,-1.8513600000000001,-1.44652,1.1745,-0.75052,-0.54578,-0.1184447187,9.6981099978,-0.1866401628,0.004734205579,0.20845776178499997,0.007024950214,0.5046,-1.30094,-0.9961500000000001,-9.4144,-0.47072,15.06304,1.0046977547495684,22.56
16969,0,1796362,-11,1342,-31,2,1310,84,-281,-3215,-2484,-39,1352,-49,45,1259,-40,2025,-1294,-941,-288,-80,512,21.4,1.0044115470022206,23.71,1.0047964470762398,4449.49365234375,-7309.81103515625,38.5,2,12,0.550000011920929,11.36431884765625,3,0,0.0,0.0,0.0,0.0,-0.5282107995706463,0.0,0.0,-0.1452917374204259,0.2871387119999999,0.1794616949999999,9.6693961266,0.2681941986083984,-0.6450703144073486,0.2611973285675049,0.6661322712898254,6,44.824894205729166,-73.16351725260417,-0.07896314580000001,9.6335037876,-0.2225325018,-0.2799602442,9.7052884656,-0.35174492220000003,0.000610865236,0.40011672958,0.025656339912,0.01374446781,0.38453966606199996,-0.012217304719999999,-0.16298,-1.8647,-1.44072,1.1745,-0.75052,-0.54578,-0.179461695,9.6693961266,-0.287138712,0.007177666522999999,0.392328197821,0.006719517596000001,0.50576,-1.30761,-0.99325,-8.47296,-2.3536,15.06304,1.0046039970392302,22.555
16970,0,1796468,9,1345,-52,4,1314,63,-281,-3215,-2484,-24,1349,-87,54,1291,-69,2045,-1284,-924,-240,-80,464,21.39,1.0044905008635578,23.72,1.004806316308907,4449.49365234375,-7309.81103515625,38.5,2,12,0.550000011920929,11.36431884765625,3,0,0.0,0.0,0.0,0.0,-0.5411967600777727,0.0,0.0,-0.1538516388022545,0.4989035120999999,0.0538385085,9.6693961266,0.2122129797935485,-0.6635420918464661,0.2049507647752761,0.6875120401382446,6,44.824894205729166,-73.16351725260417,0.0646062102,9.655039191,-0.3732803256,-0.1722832272,9.683753062200001,-0.6245266986,0.001221730472,0.40133846005199997,0.019242254934,0.016493361372,0.39431350983799995,-0.021074850641999997,-0.16298,-1.8647,-1.44072,1.1861,-0.74472,-0.53592,-0.0538385085,9.6693961266,-0.4989035121,0.008857545921999999,0.397825984945,-0.0009162978539999991,0.51156,-1.30471,-0.98832,-7.0608,-2.3536,13.65088,1.0046484085862324,22.555
16971,0,1796573,-12,1350,-62,1,105,65,-250,-3210,-2462,-34,1353,-76,28,-10,-88,2045,-1284,-924,-256,-144,464,21.39,1.0045102393288925,23.72,1.0047668393782383,4449.49365234375,-7309.81103515625,38.5,2,12,0.550000011920929,11.36431884765625,3,0,0.0,0.0,0.0,0.0,-0.5043792326939461,0.0,0.0,-0.1096161657705978,0.4953142781999999,0.1651047594,9.7016992317,0.2189004868268966,-0.6614609360694885,0.2117305099964141,0.6853629350662231,6,44.824894205729166,-73.16351725260417,-0.0861416136,9.69093153,-0.4450650036,-0.24406790520000002,9.7124669334,-0.5455635528,0.000305432618,0.03207042489,0.01985312017,0.008552113303999999,-0.0030543261799999997,-0.026878070384,-0.145,-1.8618000000000001,-1.4279600000000001,1.1861,-0.74472,-0.53592,-0.16510475940000002,9.701699231700001,-0.4953142782,0.004428772960999999,0.014508049354999998,-0.003512475107,0.52055,-1.30326,-0.98194,-7.53152,-4.23648,13.65088,1.0046385393535653,22.555
16972,0,1796678,-10,1354,-59,21,-485,73,-250,-3210,-2462,-39,1359,-72,56,-558,-88,2077,-1308,-894,-368,-16,448,21.39,1.004441154700222,23.72,1.0049247471009128,4449.49365234375,-7309.81103515625,38.5,2,12,0.550000011920929,11.36431884765625,3,0,0.0,0.0,0.0,0.0,-0.5013884964072167,0.0,0.0,-0.105488511460394,0.4701896409,0.1758724611,9.7375915707,0.2141678482294082,-0.6629436016082764,0.2074554413557052,0.6867315769195557,6,44.824894205729166,-73.16351725260417,-0.071784678,9.719645401200001,-0.4235296002,-0.2799602442,9.755537740200001,-0.5168496816,0.006414084978,-0.14813481972999998,0.022296581114,0.017104226607999998,-0.170431400844,-0.026878070384,-0.145,-1.8618000000000001,-1.4279600000000001,1.20466,-0.75864,-0.51852,-0.1758724611,9.737591570700001,-0.47018964090000004,0.011759155793,-0.15928311028699998,-0.0022907446349999996,0.52983,-1.3102200000000002,-0.9732400000000001,-10.82656,-0.47072,13.18016,1.0046829509005675,22.555
16973,0,1796784,2,1355,-22,61,-155,86,-252,-3210,-2441,-25,1360,-40,93,-226,-61,2077,-1308,-894,-400,-112,464,21.4,1.0045201085615594,23.72,1.0047668393782383,4449.49365234375,-7309.81103515625,38.5,2,12,0.550000011920929,11.39703369140625,3,0,0.0,0.0,0.0,0.0,-0.3857312926847487,0.0,0.0,0.0165482904770602,0.2225325017999999,0.0825523796999999,9.7447700385,0.2077113687992096,-0.6651700139045715,0.201098620891571,0.6884506940841675,6,44.824894205729166,-73.16351725260417,0.0143569356,9.726823869,-0.15792629160000002,-0.179461695,9.762716208,-0.287138712,0.018631389698,-0.04734205579,0.026267205148,0.028405233473999997,-0.06902777166799999,-0.018631389698,-0.14616,-1.8618000000000001,-1.41578,1.20466,-0.75864,-0.51852,-0.0825523797,9.7447700385,-0.2225325018,0.023518311586,-0.05818491372899999,0.003817907725,0.52925,-1.3102200000000002,-0.96715,-11.768,-3.29504,13.65088,1.0046434739698988,22.56
16974,0,1796889,-1,1351,-25,35,-501,90,-252,-3210,-2441,-35,1355,-37,81,-545,-64,2053,-1312,-904,-304,-48,464,21.39,1.0044905008635578,23.73,1.0049543547989144,4449.49365234375,-7309.81103515625,38.5,2,12,0.550000011920929,11.35614013671875,3,0,0.0,0.0,0.0,0.0,-0.4002322634737171,0.0,0.0,-0.0100695177274131,0.2225325017999999,0.1292124203999999,9.712466933399998,0.2008804827928543,-0.667423665523529,0.1941389143466949,0.6902918219566345,6,44.824894205729166,-73.16351725260417,-0.0071784678,9.6981099978,-0.179461695,-0.251246373,9.726823869,-0.26560330860000003,0.010690141629999999,-0.153021741618,0.02748893562,0.024740042057999997,-0.16646077681,-0.019547687552,-0.14616,-1.8618000000000001,-1.41578,1.19074,-0.76096,-0.52432,-0.1292124204,9.7124669334,-0.2225325018,0.017715091843999997,-0.159741259214,0.003970624034,0.5222899999999999,-1.31138,-0.9700500000000001,-8.94368,-1.41216,13.65088,1.004722427831236,22.560000000000002
16975,0,1796995,-38,1359,-3,9,-1455,88,-251,-3203,-2464,-69,1346,-37,33,-1499,-79,2053,-1312,-904,-288,-16,528,21.4,1.0044707623982236,23.72,1.0049148778682455,4449.49365234375,-7309.81103515625,38.5,2,12,0.550000011920929,11.37249755859375,3,0,0.0,0.0,0.0,0.0,-0.4344495965468183,0.0,0.0,-0.0519027416550979,0.1435693559999999,0.3840480273,9.7088776995,0.1854644417762756,-0.6714751720428467,0.1790784150362014,0.6947338581085205,6,44.824894205729166,-73.16351725260417,-0.2727817764,9.755537740200001,-0.0215354034,-0.4953142782,9.6622176588,-0.26560330860000003,0.002748893562,-0.44440445919,0.026878070384,0.010079276394,-0.45784349438199995,-0.024129176821999998,-0.14558,-1.85774,-1.42912,1.19074,-0.76096,-0.52432,-0.3840480273,9.7088776995,-0.143569356,0.006414084977999999,-0.45112397678599997,0.0013744467810000004,0.5225799999999999,-1.30935,-0.97672,-8.47296,-0.47072,15.533760000000001,1.0046928201332346,22.56
16976,0,1797100,-25,1357,-30,3,-1215,75,-251,-3203,-2464,-47,1358,-51,26,-1258,-97,2042,-1275,-954,-256,-48,384,21.39,1.0044510239328892,23.72,1.004983962496916,4449.49365234375,-7309.81103515625,38.5,2,12,0.550000011920929,11.3602294921875,3,0,0.0,0.0,0.0,0.0,-0.4418794399264607,0.0,0.0,-0.0612120166286314,0.2907279458999999,0.2584248407999999,9.7447700385,0.1676971018314361,-0.6755300164222717,0.1621667742729187,0.6994560956954956,6,44.824894205729166,-73.16351725260417,-0.179461695,9.7411808046,-0.215354034,-0.3373879866,9.7483592724,-0.36610185780000004,0.000916297854,-0.37110063087,0.02290744635,0.007941248068,-0.384234233444,-0.029626963946,-0.14558,-1.85774,-1.42912,1.18436,-0.7395,-0.55332,-0.2584248408,9.7447700385,-0.2907279459,0.004428772960999999,-0.377667432157,-0.0033597587980000003,0.51939,-1.29862,-0.99122,-7.53152,-1.41216,11.29728,1.0047174932149026,22.555
16977,0,1797206,-5,1354,-20,20,-449,62,-326,-3197,-2473,-36,1357,-40,75,-488,-95,2042,-1275,-954,-272,-32,432,21.39,1.004500370096225,23.72,1.0049740932642488,4449.49365234375,-7309.81103515625,38.5,2,12,0.550000011920929,11.39703369140625,3,0,0.0,0.0,0.0,0.0,-0.5632097163462079,0.0,0.0,-0.1926812682675117,0.2153540339999999,0.1471585899,9.730413102899998,0.1565403491258621,-0.6780263781547546,0.1518259048461914,0.7019432187080383,6,44.824894205729166,-73.16351725260417,-0.035892339,9.719645401200001,-0.143569356,-0.2584248408,9.7411808046,-0.287138712,0.0061086523599999994,-0.137139245482,0.018936822316,0.02290744635,-0.149051117584,-0.029016098709999997,-0.18908,-1.85426,-1.43434,1.18436,-0.7395,-0.55332,-0.1471585899,9.730413102900002,-0.21535403400000003,0.014508049355,-0.143095181533,-0.005039638196999999,0.49764,-1.29688,-0.99383,-8.00224,-0.94144,12.70944,1.0047372316802368,22.555
16978,0,1797311,4,1351,-14,38,180,84,-313,-3211,-2501,-19,1356,-31,86,121,-71,1979,-1264,-957,-208,-16,560,21.4,1.0043523316062175,23.72,1.0047569701455712,4449.49365234375,-7309.81103515625,38.5,2,12,0.550000011920929,11.35614013671875,3,0,0.0,0.0,0.0,0.0,-0.574783291979899,0.0,0.0,-0.1879599650641481,0.1615155254999999,0.0538385084999999,9.7160561673,0.1529651284217834,-0.6790903210639954,0.1485224813222885,0.7024095058441162,6,44.824894205729166,-73.16351725260417,0.0287138712,9.6981099978,-0.10049854920000001,-0.1363908882,9.7340023368,-0.2225325018,0.011606439484,0.05497787124,0.025656339912,0.026267205148,0.036957346778,-0.021685715878,-0.18154,-1.86238,-1.45058,1.14782,-0.73312,-0.55506,-0.0538385085,9.7160561673,-0.1615155255,0.018936822316,0.045967609009,0.001985312017,0.48314,-1.29775,-1.00282,-6.11936,-0.47072,16.4752,1.0045546508758942,22.56
16979,0,1797417,-3,1355,-8,4,32,82,-313,-3211,-2501,-22,1358,-27,54,-39,-62,1979,-1264,-957,-288,-96,432,21.39,1.0044905008635578,23.72,1.00486553170491,4449.49365234375,-7309.81103515625,38.5,2,12,0.550000011920929,11.37249755859375,3,0,0.0,0.0,0.0,0.0,-0.5134984036507104,0.0,0.0,-0.1107262664049272,0.1256231864999999,0.0897308474999999,9.737591570699998,0.2981271743774414,-0.6349667310714722,0.2908928990364074,0.6506295800209045,6,44.824894205729166,-73.16351725260417,-0.0215354034,9.726823869,-0.0574277424,-0.15792629160000002,9.7483592724,-0.1938186306,0.001221730472,0.009773843776,0.025045474675999997,0.016493361372,-0.011911872102,-0.018936822316,-0.18154,-1.86238,-1.45058,1.14782,-0.73312,-0.55506,-0.08973084750000002,9.737591570700001,-0.1256231865,0.008857545921999999,-0.0010690141629999999,0.003054326179999999,0.48314,-1.29775,-1.00282,-8.47296,-2.82432,12.70944,1.004678016284234,22.555
16980,0,1797522,-6,1356,-17,-18,102,85,-333,-3207,-2483,-32,1355,-31,14,47,-79,1995,-1283,-958,-240,-48,512,21.39,1.004381939304219,23.73,1.0048852701702442,4449.49365234375,-7309.81103515625,38.400001525878906,2,12,0.550000011920929,11.37249755859375,3,0,0.0,0.0,0.0,0.0,-0.5041627682426154,0.0,0.0,-0.0980786808723517,0.1722832272,0.1363908882,9.730413102899998,0.2964308857917785,-0.6354104280471802,0.2893749177455902,0.6516475081443787,6,44.824894205729166,-73.16351725260417,-0.0430708068,9.7340023368,-0.12203395260000001,-0.2297109696,9.726823869,-0.2225325018,-0.005497787124,0.031154127036,0.02596177253,0.004276056651999999,0.014355333045999999,-0.024129176821999998,-0.19314,-1.86006,-1.44014,1.1571,-0.74414,-0.55564,-0.1363908882,9.7304131029,-0.1722832272,-0.0006108652360000003,0.022754730041,0.0009162978540000009,0.48198,-1.3021,-0.9978899999999999,-7.0608,-1.41216,15.06304,1.0046336047372315,22.560000000000002
16981,0,1797628,0,1364,-32,-6,622,61,-333,-3207,-2483,-25,1352,-48,33,554,-83,1995,-1283,-958,-304,-64,480,21.4,1.0044115470022206,23.71,1.004697754749568,4449.49365234375,-7309.81103515625,38.400001525878906,2,12,0.550000011920929,11.35614013671875,3,0,0.0,0.0,0.0,0.0,-0.5990235301037492,0.0,0.0,-0.189761209115338,0.2871387119999999,0.0897308474999999,9.748359272399998,0.2983515858650207,-0.6341747641563416,0.2917203605175018,0.6509285569190979,6,44.824894205729166,-73.16351725260417,0.0,9.7914300792,-0.2297109696,-0.179461695,9.7052884656,-0.3445664544,-0.001832595708,0.189979088396,0.018631389698,0.010079276394,0.169209670372,-0.025350907293999997,-0.19314,-1.86006,-1.44014,1.1571,-0.74414,-0.55564,-0.0897308475,9.7483592724,-0.287138712,0.004123340343,0.179594379384,-0.0033597587979999986,0.48198,-1.3021,-0.9978899999999999,-8.94368,-1.88288,14.1216,1.0045546508758942,22.555
16982,0,1797733,5,1354,-31,18,1152,53,-321,-3209,-2479,-21,1355,-42,66,1103,-80,1994,-1277,-956,-240,-64,464,21.39,1.0045102393288925,23.72,1.004816185541574,4449.49365234375,-7309.81103515625,38.400001525878906,2,12,0.550000011920929,11.36431884765625,3,0,0.0,0.0,0.0,0.0,-0.6724461256529825,0.0,0.0,-0.2511466241525656,0.2620140747,0.0574277423999999,9.7232346351,0.3055188059806824,-0.6307958364486694,0.2991485893726349,0.647506833076477,6,44.824894205729166,-73.16351725260417,0.035892339,9.719645401200001,-0.2225325018,-0.1507478238,9.726823869,-0.3014956476,0.005497787124,0.351858375936,0.016187928754,0.020158552788,0.336892177654,-0.024434609439999998,-0.18618,-1.86122,-1.43782,1.15652,-0.74066,-0.55448,-0.05742774240000001,9.7232346351,-0.26201407470000004,0.012828169955999998,0.344375276795,-0.004123340343,0.48517,-1.30094,-0.9961500000000001,-7.0608,-1.88288,13.65088,1.0046632124352333,22.555
16983,0,1797838,6,1352,-28,37,1501,71,-321,-3209,-2479,-14,1348,-39,84,1437,-71,1994,-1277,-956,-256,-48,528,21.39,1.004381939304219,23.72,1.0050826548235874,4449.49365234375,-7309.81103515625,38.400001525878906,2,12,0.550000011920929,11.36431884765625,3,0,0.0,0.0,0.0,0.0,-0.651395180084199,0.0,0.0,-0.2116254681649219,0.2404786713,0.0287138711999999,9.69093153,0.3174668550491333,-0.6253097057342529,0.3108662664890289,0.6415331959724426,6,44.824894205729166,-73.16351725260417,0.0430708068,9.7052884656,-0.20099709840000002,-0.10049854920000001,9.6765745944,-0.2799602442,0.011301006866,0.45845435961799996,0.021685715878,0.025656339912,0.438906672066,-0.021685715878,-0.18618,-1.86122,-1.43782,1.15652,-0.74066,-0.55448,-0.028713871200000005,9.69093153,-0.2404786713,0.018478673389,0.44868051584199997,0.0,0.48517,-1.30094,-0.9961500000000001,-7.53152,-1.41216,15.533760000000001,1.0047322970639032,22.555
16984,0,1797944,26,1355,-79,11,1013,102,-271,-3195,-2471,1,1365,-74,53,933,-52,2044,-1286,-947,-272,-160,448,21.4,1.0045201085615594,23.71,1.0047372316802368,4449.49365234375,-7309.81103515625,38.400001525878906,2,12,0.550000011920929,11.37249755859375,3,0,0.0,0.0,0.0,0.0,-0.6408311426057532,0.0,0.0,-0.1856263447072161,0.5491527866999999,-0.0969093152999999,9.762716208,0.328054815530777,-0.6200273036956787,0.3209656178951263,0.6363389492034912,6,44.824894205729166,-73.16351725260417,0.1866401628,9.726823869,-0.5670989562000001,0.0071784678,9.798608547,-0.5312066172000001,0.003359758798,0.309403242034,0.031154127036,0.016187928754,0.28496863259399996,-0.015882496136,-0.15718000000000001,-1.8531,-1.43318,1.18552,-0.74588,-0.54926,0.0969093153,9.762716208,-0.5491527867000001,0.009773843776,0.297185937314,0.00763581545,0.5141699999999999,-1.29949,-0.99122,-8.00224,-4.7072,13.18016,1.0046286701208982,22.555
16985,0,1798049,-16,1350,-36,-10,178,103,-271,-3195,-2471,-46,1353,-54,19,111,-51,2044,-1286,-947,-272,-48,480,21.39,1.0044510239328892,23.72,1.005122131754256,4449.49365234375,-7309.81103515625,38.400001525878906,2,12,0.550000011920929,11.35614013671875,3,0,0.0,0.0,0.0,0.0,-0.7273767420152859,0.0,0.0,-0.2653964962479323,0.3230310509999999,0.2225325018,9.7016992317,0.3317666053771972,-0.6179029941558838,0.32438525557518,0.6347448825836182,6,44.824894205729166,-73.16351725260417,-0.1148554848,9.69093153,-0.2584248408,-0.3302095188,9.7124669334,-0.3876372612,-0.0030543261799999997,0.054367006004,0.031459559654,0.005803219742,0.033903020597999996,-0.015577063518,-0.15718000000000001,-1.8531,-1.43318,1.18552,-0.74588,-0.54926,-0.2225325018,9.701699231700001,-0.323031051,0.001374446781,0.044135013300999996,0.007941248068,0.5141699999999999,-1.29949,-0.99122,-8.00224,-1.41216,14.1216,1.0047865778435727,22.555
16986,0,1798155,-15,1351,-36,0,54,74,-250,-3205,-2471,-44,1357,-50,39,4,-71,2070,-1289,-909,-272,-16,496,21.39,1.004431285467555,23.71,1.0049543547989144,4449.49365234375,-7309.81103515625,38.400001525878906,2,12,0.550000011920929,11.38885498046875,3,0,0.0,0.0,0.0,0.0,-0.587017336151918,0.0,0.0,-0.1023234855620605,0.3086741154,0.2117648000999999,9.7196454012,0.3294783234596252,-0.618806779384613,0.3222791850566864,0.6361275911331177,6,44.824894205729166,-73.16351725260417,-0.107677017,9.6981099978,-0.2584248408,-0.31585258320000004,9.7411808046,-0.35892339,0.0,0.016493361372,0.022602013732,0.011911872102,0.001221730472,-0.021685715878,-0.145,-1.8589,-1.43318,1.2006000000000001,-0.74762,-0.52722,-0.2117648001,9.719645401200001,-0.3086741154,0.005955936051,0.008857545921999999,0.00045814892699999957,0.5278,-1.3032599999999999,-0.9802,-8.00224,-0.47072,14.59232,1.0046928201332346,22.55
16987,0,1798260,2,1356,-27,9,187,56,-250,-3205,-2471,-25,1355,-46,76,137,-81,2070,-1289,-909,-272,-32,560,21.4,1.0044214162348877,23.71,1.0047964470762398,4449.49365234375,-7309.81103515625,38.400001525878906,2,12,0.550000011920929,11.35614013671875,3,0,0.0,0.0,0.0,0.0,-0.4726927679531051,0.0,0.0,0.0165774674470617,0.2620140747,0.0825523796999999,9.730413102899998,0.3287329375743866,-0.6192235946655273,0.3219040930271148,0.6362975239753723,6,44.824894205729166,-73.16351725260417,0.0143569356,9.7340023368,-0.1938186306,-0.179461695,9.726823869,-0.3302095188,0.002748893562,0.057115899565999995,0.017104226607999998,0.023212878968,0.041844268665999995,-0.024740042057999997,-0.145,-1.8589,-1.43318,1.2006000000000001,-0.74762,-0.52722,-0.0825523797,9.7304131029,-0.2620140747,0.012980886265,0.049480084115999995,-0.003817907725,0.5278,-1.3032599999999999,-0.9802,-8.00224,-0.94144,16.4752,1.0046089316555638,22.555
16988,0,1798366,5,1355,-41,9,-273,82,-251,-3186,-2464,-19,1354,-51,59,-354,-68,2063,-1264,-912,-272,-48,448,21.39,1.0045102393288925,23.71,1.004747100912904,4449.49365234375,-7309.81103515625,38.400001525878906,2,12,0.550000011920929,11.37249755859375,3,0,0.0,0.0,0.0,0.0,-0.4472013940248051,0.0,0.0,0.0324539996074141,0.3302095188,0.0502492745999999,9.7232346351,0.3261551856994629,-0.6206617951393127,0.3196127414703369,0.6373770236968994,6,44.824894205729166,-73.16351725260417,0.035892339,9.726823869,-0.2943171798,-0.1363908882,9.719645401200001,-0.36610185780000004,0.002748893562,-0.083383104714,0.025045474675999997,0.018020524462,-0.108123146772,-0.020769418023999998,-0.14558,-1.84788,-1.42912,1.19654,-0.73312,-0.52896,-0.050249274600000005,9.7232346351,-0.33020951880000005,0.010384709012,-0.09575312574299999,0.0021380283259999997,0.52548,-1.2905,-0.9790399999999999,-8.00224,-1.41216,13.18016,1.0046286701208982,22.55
16989,0,1798471,1,1354,-21,9,-596,104,-251,-3186,-2464,-31,1360,-40,45,-658,-52,2061,-1299,-932,-272,-16,512,21.41,1.0044806316308907,23.71,1.0046385393535653,4449.49365234375,-7309.81103515625,38.400001525878906,2,12,0.550000011920929,11.37249755859375,3,0,0.0,0.0,0.0,0.0,-0.4298054357087161,0.0,0.0,0.039059055943107,0.2189432678999999,0.1076770169999999,9.7411808046,0.119756206870079,-0.68523770570755,0.1155480220913887,0.7090532779693604,6,44.824894205729166,-73.16351725260417,0.0071784678,9.719645401200001,-0.1507478238,-0.2225325018,9.762716208,-0.287138712,0.002748893562,-0.182037840328,0.031764992272,0.01374446781,-0.200974662644,-0.015882496136,-0.14558,-1.84788,-1.42912,1.19538,-0.75342,-0.54056,-0.107677017,9.7411808046,-0.21894326790000002,0.008246680686,-0.19150625148599998,0.007941248068,0.5249,-1.30065,-0.9848399999999999,-8.00224,-0.47072,15.06304,1.004559585492228,22.560000000000002
16990,0,1798577,-18,1351,-15,16,-590,94,-253,-3186,-2457,-42,1354,-29,41,-634,-63,2061,-1299,-932,-256,-80,464,21.39,1.004549716259561,23.72,1.0049740932642488,4449.49365234375,-7309.81103515625,38.400001525878906,2,12,0.550000011920929,11.3438720703125,3,0,0.0,0.0,0.0,0.0,-0.4622886640437798,0.0,0.0,-0.0100327712042808,0.1579262916,0.2153540339999999,9.7088776995,0.1100690811872482,-0.6865963935852051,0.1059162989258766,0.7108107805252075,6,44.824894205729166,-73.16351725260417,-0.1292124204,9.6981099978,-0.107677017,-0.3014956476,9.719645401200001,-0.2081755662,0.004886921888,-0.18020524461999998,0.028710666091999997,0.012522737337999999,-0.193644279812,-0.019242254934,-0.14674,-1.84788,-1.42506,1.19538,-0.75342,-0.54056,-0.21535403400000003,9.7088776995,-0.1579262916,0.008704829612999999,-0.186924762216,0.004734205578999999,0.52432,-1.30065,-0.98281,-7.53152,-2.3536,13.65088,1.0047619047619047,22.555
16991,0,1798682,-11,1357,-11,-2,-266,79,-253,-3186,-2457,-41,1358,-34,42,-328,-77,2024,-1290,-953,-288,-96,352,21.39,1.0045102393288925,23.71,1.0048457932395756,4449.49365234375,-7309.81103515625,38.400001525878906,2,12,0.550000011920929,11.36431884765625,3,0,0.0,0.0,0.0,0.0,-0.4476983598808458,0.0,0.0,-0.0014406596715405,0.1615155254999999,0.1866401628,9.7447700385,0.1032037958502769,-0.6873854994773865,0.0993811041116714,0.7120208144187927,6,44.824894205729166,-73.16351725260417,-0.07896314580000001,9.7411808046,-0.07896314580000001,-0.2943171798,9.7483592724,-0.24406790520000002,-0.000610865236,-0.08124507638799999,0.024129176821999998,0.012828169956,-0.10018189870399999,-0.023518311586,-0.14674,-1.84788,-1.42506,1.17392,-0.7482,-0.55274,-0.1866401628,9.7447700385,-0.1615155255,0.00610865236,-0.09071348754599999,0.0003054326179999997,0.51359,-1.2980399999999999,-0.9889,-8.47296,-2.82432,10.35584,1.0046780162842341,22.55
16992,0,1798787,-7,1355,-30,17,181,59,-293,-3202,-2473,-33,1357,-37,56,116,-83,2024,-1290,-953,-224,-80,416,21.4,1.0044115470022206,23.71,1.004697754749568,4449.49365234375,-7309.81103515625,38.400001525878906,2,12,0.550000011920929,11.37249755859375,3,0,0.0,0.0,0.0,0.0,-0.3306399272342876,0.0,0.0,0.1102630868390147,0.2404786712999999,0.1435693559999999,9.7340023368,0.1008674502372741,-0.6876609921455383,0.0975234657526016,0.7123463749885559,6,44.824894205729166,-73.16351725260417,-0.050249274600000005,9.726823869,-0.215354034,-0.2368894374,9.7411808046,-0.26560330860000003,0.005192354505999999,0.055283303857999996,0.018020524462,0.017104226607999998,0.035430183688,-0.025350907293999997,-0.16994,-1.85716,-1.43434,1.17392,-0.7482,-0.55274,-0.143569356,9.7340023368,-0.2404786713,0.011148290556999998,0.045356743773,-0.0036651914159999983,0.50199,-1.30268,-0.99354,-6.59008,-2.3536,12.23872,1.0045546508758942,22.555
16993,0,1798893,-1,1354,-21,38,331,74,-293,-3202,-2473,-23,1359,-37,65,262,-75,2045,-1277,-934,-320,-48,416,21.4,1.0045201085615594,23.72,1.00486553170491,4449.49365234375,-7309.81103515625,38.400001525878906,2,12,0.550000011920929,11.34796142578125,3,0,0.0,0.0,0.0,0.0,-0.3670216341229873,0.0,0.0,0.0498662785684221,0.2081755662,0.0861416136,9.7375915707,0.10249625146389,-0.6875179409980774,0.0994318053126335,0.711988091468811,6,44.824894205729166,-73.16351725260417,-0.0071784678,9.719645401200001,-0.1507478238,-0.1651047594,9.755537740200001,-0.26560330860000003,0.011606439484,0.101098196558,0.022602013732,0.01985312017,0.080023345916,-0.02290744635,-0.16994,-1.85716,-1.43434,1.1861,-0.74066,-0.54172,-0.0861416136,9.737591570700001,-0.20817556620000002,0.015729779827,0.09056077123699999,-0.00015271630899999986,0.50808,-1.29891,-0.98803,-9.4144,-1.41216,12.23872,1.0046928201332346,22.56
16994,0,1798998,-5,1351,-21,-7,-89,88,-260,-3200,-2496,-33,1356,-36,38,-137,-61,2045,-1277,-934,-288,-16,464,21.41,1.004372070071552,23.69,1.004816185541574,4449.49365234375,-7309.81103515625,38.400001525878906,2,12,0.550000011920929,11.38885498046875,3,0,0.0,0.0,0.0,0.0,-0.3618465580029326,0.0,0.0,0.0420523390223801,0.2045863323,0.1363908882,9.7160561673,0.1011137291789054,-0.6875705122947693,0.0980779752135276,0.7123226523399353,6,44.824894205729166,-73.16351725260417,-0.035892339,9.6981099978,-0.1507478238,-0.2368894374,9.7340023368,-0.2584248408,-0.0021380283259999997,-0.027183503002,0.026878070384,0.011606439484,-0.041844268665999995,-0.018631389698,-0.1508,-1.856,-1.44768,1.1861,-0.74066,-0.54172,-0.1363908882,9.7160561673,-0.2045863323,0.004734205579,-0.034513885833999995,0.004123340343,0.5176499999999999,-1.29833,-0.9947,-8.47296,-0.47072,13.65088,1.004594127806563,22.55
16995,0,1799104,-18,1357,-29,-7,-110,82,-262,-3212,-2453,-48,1348,-46,36,-168,-64,2036,-1268,-918,-320,-48,448,21.39,1.0044510239328892,23.72,1.004816185541574,4449.49365234375,-7309.81103515625,38.400001525878906,2,12,0.550000011920929,11.38067626953125,3,0,0.0,0.0,0.0,0.0,-0.3431851641052458,0.0,0.0,0.0467274359299416,0.2691925425,0.2368894374,9.7088776995,0.0976559445261955,-0.6877679824829102,0.0946424975991249,0.7130787968635559,6,44.824894205729166,-73.16351725260417,-0.1292124204,9.7411808046,-0.2081755662,-0.3445664544,9.6765745944,-0.3302095188,-0.0021380283259999997,-0.033597587979999996,0.025045474675999997,0.010995574248,-0.051312679824,-0.019547687552,-0.15196,-1.86296,-1.4227400000000001,1.18088,-0.73544,-0.53244,-0.2368894374,9.7088776995,-0.2691925425,0.004428772961,-0.042455133901999995,0.002748893561999999,0.5144599999999999,-1.2992,-0.9775900000000001,-9.4144,-1.41216,13.18016,1.0046336047372315,22.555
16996,0,1799209,-16,1354,-24,26,35,73,-262,-3212,-2453,-43,1350,-50,57,-19,-83,2036,-1268,-918,-304,-112,512,21.39,1.0043918085368864,23.71,1.0049050086355786,4449.49365234375,-7309.81103515625,38.29999923706055,2,12,0.550000011920929,11.33160400390625,3,0,0.0,0.0,0.0,0.0,-0.298925825346267,0.0,0.0,0.0812057927596408,0.2656033086,0.2117648000999999,9.7052884656,0.0954951047897338,-0.687939465045929,0.0927392393350601,0.7134559750556946,6,44.824894205729166,-73.16351725260417,-0.1148554848,9.719645401200001,-0.1722832272,-0.3086741154,9.69093153,-0.35892339,0.007941248068,0.010690141629999999,0.022296581114,0.017409659225999997,-0.005803219742,-0.025350907293999997,-0.15196,-1.86296,-1.4227400000000001,1.18088,-0.73544,-0.53244,-0.2117648001,9.7052884656,-0.26560330860000003,0.012675453646999998,0.0024434609439999994,-0.0015271630899999986,0.5144599999999999,-1.2992,-0.9775900000000001,-8.94368,-3.29504,15.06304,1.0046484085862324,22.55
16997,0,1799315,1,1350,-19,22,67,76,-280,-3202,-2525,-29,1360,-41,65,10,-67,2034,-1274,-895,-272,-112,400,21.39,1.004441154700222,23.71,1.0048951394029115,4449.49365234375,-7309.81103515625,38.29999923706055,2,12,0.550000011920929,11.35614013671875,3,0,0.0,0.0,0.0,0.0,-0.2170075283767851,0.0,0.0,0.1481710939632446,0.2153540339999999,0.1004985492,9.726823869,0.094308391213417,-0.688196063041687,0.0918020904064178,0.7134875059127808,6,44.824894205729166,-73.16351725260417,0.0071784678,9.69093153,-0.1363908882,-0.2081755662,9.762716208,-0.2943171798,0.006719517596,0.020463985405999998,0.023212878968,0.01985312017,0.0030543261799999997,-0.020463985405999998,-0.1624,-1.85716,-1.4645,1.17972,-0.73892,-0.5191,-0.1004985492,9.726823869,-0.215354034,0.013286318883,0.011759155793,0.0013744467810000004,0.5086600000000001,-1.2980399999999999,-0.9918,-8.00224,-3.29504,11.768,1.0046681470515668,22.55
16998,0,1799420,-8,1352,-21,19,-17,87,-280,-3202,-2525,-33,1355,-44,51,-70,-57,2034,-1274,-895,-208,-16,528,21.4,1.0044214162348877,23.72,1.0050727855909205,4449.49365234375,-7309.81103515625,38.29999923706055,2,12,0.550000011920929,11.35614013671875,3,0,0.0,0.0,0.0,0.0,-0.2575082091025732,0.0,0.0,0.0787205720329698,0.2333002034999999,0.1471585899,9.7160561673,0.2109674960374832,-0.6670376062393188,0.2055803686380386,0.6843174695968628,6,44.824894205729166,-73.16351725260417,-0.0574277424,9.7052884656,-0.1507478238,-0.2368894374,9.726823869,-0.31585258320000004,0.005803219742,-0.005192354505999999,0.026572637766,0.015577063518,-0.021380283259999997,-0.017409659225999997,-0.1624,-1.85716,-1.4645,1.17972,-0.73892,-0.5191,-0.1471585899,9.7160561673,-0.23330020350000003,0.01069014163,-0.013286318882999998,0.004581489270000001,0.5086600000000001,-1.2980399999999999,-0.9918,-6.11936,-0.47072,15.533760000000001,1.004747100912904,22.56
16999,0,1799526,-10,1356,-27,3,-315,79,-287,-3207,-2506,-34,1350,-43,40,-373,-71,2023,-1268,-908,-320,-48,512,21.4,1.0043523316062175,23.71,1.004697754749568,4449.49365234375,-7309.81103515625,38.29999923706055,2,12,0.550000011920929,11.36431884765625,3,0,0.0,0.0,0.0,0.0,-0.2242009242580201,0.0,0.0,0.0946107029532531,0.2512463729999999,0.1579262916,9.712466933399998,0.206151008605957,-0.668418288230896,0.2007273882627487,0.6858770847320557,6,44.824894205729166,-73.16351725260417,-0.071784678,9.7340023368,-0.1938186306,-0.24406790520000002,9.69093153,-0.3086741154,0.000916297854,-0.09621127467,0.024129176821999998,0.012217304719999999,-0.113926366514,-0.021685715878,-0.16646,-1.86006,-1.45348,1.17334,-0.73544,-0.52664,-0.15792629160000002,9.7124669334,-0.251246373,0.006566801286999999,-0.105068820592,0.0012217304719999988,0.50344,-1.29775,-0.99006,-9.4144,-1.41216,15.06304,1.0045250431778927,22.555
17000,0,1799631,-10,1354,-24,19,-299,61,-287,-3207,-2506,-37,1360,-43,51,-365,-94,2023,-1268,-908,-288,-16,464,21.39,1.004441154700222,23.73,1.004993831729583,4449.49365234375,-7309.81103515625,38.29999923706055,2,12,0.550000011920929,11.3602294921875,3,0,0.0,0.0,0.0,0.0,-0.2837808897005948,0.0,0.0,0.0140111994720033,0.2404786712999999,0.1686939932999999,9.7411808046,0.2000248283147812,-0.6701111793518066,0.1949885487556457,0.6876922249794006,6,44.824894205729166,-73.16351725260417,-0.071784678,9.719645401200001,-0.1722832272,-0.26560330860000003,9.762716208,-0.3086741154,0.005803219742,-0.09132435278199999,0.018631389698,0.015577063518,-0.11148290557,-0.028710666091999997,-0.16646,-1.86006,-1.45348,1.17334,-0.73544,-0.52664,-0.1686939933,9.7411808046,-0.2404786713,0.01069014163,-0.10140362917599999,-0.005039638196999999,0.50344,-1.29775,-0.99006,-8.47296,-0.47072,13.65088,1.0047174932149026,22.560000000000002
17001,0,1799736,2,1360,-32,9,-241,67,-273,-3192,-2491,-11,1356,-49,60,-309,-89,2003,-1278,-936,-336,-96,448,21.41,1.004431285467555,23.72,1.0047767086109054,4449.49365234375,-7309.81103515625,38.29999923706055,2,12,0.550000011920929,11.39703369140625,3,0,0.0,0.0,0.0,0.0,-0.2697552281826144,0.0,0.0,0.0177924134090539,0.2907279458999999,0.0323031051,9.748359272399998,0.1946595013141632,-0.6716310381889343,0.1901978105306625,0.6890894770622253,6,44.824894205729166,-73.16351725260417,0.0143569356,9.762716208,-0.2297109696,-0.07896314580000001,9.7340023368,-0.35174492220000003,0.002748893562,-0.07360926093799999,0.020463985405999998,0.01832595708,-0.094378678962,-0.027183503002,-0.15834,-1.8513600000000001,-1.44478,1.16174,-0.74124,-0.54288,-0.03230310510000001,9.7483592724,-0.2907279459,0.010537425321,-0.08399396995,-0.0033597587980000003,0.5017,-1.2963,-0.99383,-9.88512,-2.82432,13.18016,1.0046039970392302,22.564999999999998
17002,0,1799842,4,1349,-34,20,-701,92,-273,-3192,-2491,-18,1355,-52,53,-743,-69,2003,-1278,-936,-224,-16,448,21.39,1.004500370096225,23.72,1.004816185541574,4449.49365234375,-7309.81103515625,38.29999923706055,2,12,0.550000011920929,11.3929443359375,3,0,0.0,0.0,0.0,0.0,-0.1576320329225979,0.0,0.0,0.1204952313907849,0.3086741154,0.0502492746,9.7052884656,0.1871345490217209,-0.6737009882926941,0.182954728603363,0.6911116242408752,6,44.824894205729166,-73.16351725260417,0.0287138712,9.683753062200001,-0.24406790520000002,-0.1292124204,9.726823869,-0.3732803256,0.0061086523599999994,-0.214108265218,0.028099800855999998,0.016187928754,-0.226936435174,-0.021074850641999997,-0.15834,-1.8513600000000001,-1.44478,1.16174,-0.74124,-0.54288,-0.0502492746,9.7052884656,-0.3086741154,0.011148290557,-0.220522350196,0.003512475107,0.5017,-1.2963,-0.99383,-6.59008,-0.47072,13.18016,1.0046582778188995,22.555
17003,0,1799947,-19,1364,-8,15,-735,99,-307,-3206,-2505,-40,1364,-26,42,-810,-60,1999,-1292,-963,-304,-48,464,21.39,1.0044016777695537,23.72,1.004806316308907,4449.49365234375,-7309.81103515625,38.29999923706055,2,12,0.550000011920929,11.36431884765625,3,0,0.0,0.0,0.0,0.0,-0.1841019968736942,0.0,0.0,0.0725113218585259,0.1220339526,0.2117648000999999,9.7914300792,0.1760766059160232,-0.6765767335891724,0.1719604134559631,0.6940249800682068,6,44.824894205729166,-73.16351725260417,-0.1363908882,9.7914300792,-0.0574277424,-0.287138712,9.7914300792,-0.1866401628,0.00458148927,-0.22449297422999998,0.030237829182,0.012828169956,-0.24740042057999997,-0.01832595708,-0.17806,-1.85948,-1.4529,1.1594200000000001,-0.74936,-0.55854,-0.2117648001,9.7914300792,-0.12203395260000001,0.008704829613,-0.23594669740499996,0.005955936051,0.49068000000000006,-1.30442,-1.0057200000000002,-8.94368,-1.41216,13.65088,1.0046039970392302,22.555
17004,0,1800053,-21,1351,-5,15,420,68,-307,-3206,-2505,-47,1361,-22,56,376,-77,1999,-1292,-963,-272,-32,464,21.4,1.0043523316062175,23.71,1.004697754749568,4449.49365234375,-7309.81103515625,38.29999923706055,2,12,0.550000011920929,11.38067626953125,3,0,0.0,0.0,0.0,0.0,-0.1770321909525105,0.0,0.0,0.0657303911017062,0.0969093152999999,0.2440679052,9.7340023368,0.174469769001007,-0.6770632266998291,0.1702980697154998,0.6943662166595459,6,44.824894205729166,-73.16351725260417,-0.1507478238,9.6981099978,-0.035892339,-0.3373879866,9.7698946758,-0.15792629160000002,0.00458148927,0.12828169956,0.020769418023999998,0.017104226607999998,0.11484266436799999,-0.023518311586,-0.17806,-1.85948,-1.4529,1.1594200000000001,-0.74936,-0.55854,-0.24406790520000002,9.7340023368,-0.0969093153,0.010842857938999998,0.12156218196399998,-0.0013744467810000004,0.49068000000000006,-1.30442,-1.0057200000000002,-8.00224,-0.94144,13.65088,1.0045250431778927,22.555
17005,0,1800158,5,1357,-25,-4,310,59,-319,-3224,-2489,-16,1358,-45,33,236,-99,1972,-1262,-947,-240,-80,480,21.39,1.0043523316062175,23.71,1.004855662472243,4449.49365234375,-7309.81103515625,38.20000076293945,2,12,0.550000011920929,11.39703369140625,3,0,0.0,0.0,0.0,0.0,-0.2077901855158032,0.0,0.0,0.0216785498758647,0.2512463729999999,0.0394815729,9.7447700385,0.1764680296182632,-0.6764549612998962,0.1727685928344726,0.6938434839248657,6,44.824894205729166,-73.16351725260417,0.035892339,9.7411808046,-0.179461695,-0.1148554848,9.7483592724,-0.323031051,-0.001221730472,0.09468411158,0.018020524462,0.010079276394,0.072082097848,-0.030237829182,-0.18502,-1.86992,-1.44362,1.14376,-0.73196,-0.54926,-0.0394815729,9.7447700385,-0.251246373,0.004428772960999999,0.083383104714,-0.0061086523599999994,0.4793700000000001,-1.30094,-0.99644,-7.0608,-2.3536,14.1216,1.0046039970392302,22.55
17006,0,1800264,10,1352,-27,-20,270,66,-319,-3224,-2489,0,1356,-42,20,214,-73,1972,-1262,-947,-288,-128,464,21.39,1.004431285467555,23.73,1.0049444855662473,4449.49365234375,-7309.81103515625,38.20000076293945,2,12,0.550000011920929,11.37249755859375,3,0,0.0,0.0,0.0,0.0,-0.2617136363009601,0.0,0.0,-0.0461112853983727,0.2476571390999999,-0.0358923389999999,9.7196454012,0.1757389605045318,-0.6761553287506104,0.1726792454719543,0.6943426728248596,6,44.824894205729166,-73.16351725260417,0.071784678,9.7052884656,-0.1938186306,0.0,9.7340023368,-0.3014956476,-0.0061086523599999994,0.08246680685999999,0.020158552788,0.0061086523599999994,0.065362580252,-0.022296581114,-0.18502,-1.86992,-1.44362,1.14376,-0.73196,-0.54926,0.035892339,9.719645401200001,-0.24765713910000003,0.0,0.073914693556,-0.0010690141630000007,0.4793700000000001,-1.30094,-0.99644,-8.47296,-3.76576,13.65088,1.0046878855169012,22.560000000000002
17007,0,1800369,8,1359,-42,-2,470,83,-290,-3186,-2496,-13,1355,-61,48,417,-56,1989,-1274,-951,-272,-80,496,21.41,1.004372070071552,23.72,1.00486553170491,4449.49365234375,-7309.81103515625,38.20000076293945,2,12,0.550000011920929,11.36431884765625,3,0,0.0,0.0,0.0,0.0,-0.2808911581114099,0.0,0.0,-0.0686298847822869,0.3696910917,0.0179461694999999,9.7411808046,0.1774659156799316,-0.6754365563392639,0.1745267212390899,0.6941410303115845,6,44.824894205729166,-73.16351725260417,0.0574277424,9.755537740200001,-0.3014956476,-0.0933200814,9.726823869,-0.43788653580000003,-0.000610865236,0.14355333046,0.025350907293999997,0.014660765664,0.127365401706,-0.017104226607999998,-0.1682,-1.84788,-1.44768,1.15362,-0.73892,-0.55158,-0.0179461695,9.7411808046,-0.36969109170000003,0.007024950214,0.135459366083,0.004123340343,0.49271000000000004,-1.2934,-0.99963,-8.00224,-2.3536,14.59232,1.004618800888231,22.564999999999998
17008,0,1800475,5,1352,-41,32,537,92,-290,-3186,-2496,-19,1353,-61,76,474,-51,1989,-1274,-951,-288,-16,400,21.4,1.0043029854428818,23.72,1.0049740932642488,4449.49365234375,-7309.81103515625,38.20000076293945,2,12,0.550000011920929,11.36431884765625,3,0,0.0,0.0,0.0,0.0,-0.2669473211566311,0.0,0.0,-0.0586540956837067,0.3661018578,0.0502492745999999,9.7088776995,0.1323353499174118,-0.6835009455680847,0.1278307139873504,0.7063803672790527,6,44.824894205729166,-73.16351725260417,0.035892339,9.7052884656,-0.2943171798,-0.1363908882,9.7124669334,-0.43788653580000003,0.009773843776,0.164017315866,0.028099800855999998,0.023212878968,0.144775060932,-0.015577063518,-0.1682,-1.84788,-1.44768,1.15362,-0.73892,-0.55158,-0.050249274600000005,9.7088776995,-0.36610185780000004,0.016493361372,0.154396188399,0.006261368668999999,0.49271000000000004,-1.2934,-0.99963,-8.47296,-0.47072,11.768,1.0046385393535653,22.56
17009,0,1800580,-6,1352,-36,45,343,91,-301,-3212,-2488,-33,1354,-47,74,282,-51,1998,-1281,-954,-240,-80,464,21.39,1.0043523316062175,23.72,1.0050826548235874,4449.49365234375,-7309.81103515625,38.20000076293945,2,12,0.550000011920929,11.36431884765625,3,0,0.0,0.0,0.0,0.0,-0.2487314864334417,0.0,0.0,-0.0426639908108979,0.2979064137,0.1399801221,9.712466933399998,0.1347286403179168,-0.6833353638648987,0.1297946721315384,0.7057297229766846,6,44.824894205729166,-73.16351725260417,-0.0430708068,9.7052884656,-0.2584248408,-0.2368894374,9.719645401200001,-0.3373879866,0.01374446781,0.10476338797399999,0.027794368237999998,0.022602013732,0.086131998276,-0.015577063518,-0.17458,-1.86296,-1.44304,1.15884,-0.74298,-0.55332,-0.1399801221,9.712466933400002,-0.29790641370000004,0.018173240771,0.095447693125,0.0061086523599999994,0.49213000000000007,-1.30297,-0.9981800000000001,-7.0608,-2.3536,13.65088,1.0047174932149026,22.555
17010,0,1800685,1,1356,-10,18,-91,80,-301,-3212,-2488,-30,1357,-33,51,-165,-79,1998,-1281,-954,-336,-16,448,21.4,1.0044115470022206,23.71,1.004697754749568,4449.49365234375,-7309.81103515625,38.20000076293945,2,12,0.550000011920929,11.38067626953125,3,0,0.0,0.0,0.0,0.0,-0.3012331901786805,0.0,0.0,-0.1004065857737453,0.1543370577,0.1040877830999999,9.7375915707,0.1318765431642532,-0.6839256286621094,0.1270536333322525,0.7061952948570251,6,44.824894205729166,-73.16351725260417,0.0071784678,9.7340023368,-0.071784678,-0.215354034,9.7411808046,-0.2368894374,0.005497787124,-0.027794368237999998,0.024434609439999998,0.015577063518,-0.050396381969999994,-0.024129176821999998,-0.17458,-1.86296,-1.44304,1.15884,-0.74298,-0.55332,-0.1040877831,9.737591570700001,-0.1543370577,0.010537425321,-0.039095375104,0.00015271630899999986,0.49213000000000007,-1.30297,-0.9981800000000001,-9.88512,-0.47072,13.18016,1.0045546508758942,22.555
17011,0,1800791,0,1353,-30,-7,-202,69,-292,-3227,-2478,-22,1353,-36,21,-253,-86,2000,-1294,-958,-368,-32,432,21.39,1.0043918085368864,23.71,1.0046385393535653,4449.49365234375,-7309.81103515625,38.20000076293945,2,12,0.5799999833106995,11.38067626953125,3,0,0.0,0.0,0.0,0.0,-0.2938600968263843,0.0,0.0,-0.0881556243442021,0.2368894373999999,0.0789631458,9.7124669334,0.1261985450983047,-0.6846594214439392,0.1219135969877243,0.7074266672134399,6,44.824894205729166,-73.16351725260417,0.0,9.7124669334,-0.215354034,-0.15792629160000002,9.7124669334,-0.2584248408,-0.0021380283259999997,-0.061697388836,0.021074850641999997,0.006414084978,-0.07727445235399999,-0.026267205148,-0.16936,-1.87166,-1.43724,1.16,-0.75052,-0.55564,-0.07896314580000001,9.7124669334,-0.2368894374,0.002138028326,-0.069485920595,-0.002596177253000001,0.49532,-1.31109,-0.99644,-10.82656,-0.94144,12.70944,1.0045151739452258,22.55
17012,0,1800896,6,1355,-27,-9,-160,76,-305,-3214,-2458,-26,1358,-48,34,-218,-76,2000,-1294,-958,-224,-64,512,21.39,1.0046681470515668,23.7,1.004993831729583,4449.49365234375,-7309.81103515625,38.20000076293945,2,12,0.5799999833106995,11.36431884765625,3,0,0.0,0.0,0.0,0.0,-0.4368488790839188,0.0,0.0,-0.234367665396129,0.2691925425,0.0717846779999999,9.737591570699998,0.1203105971217155,-0.685294508934021,0.1166391968727111,0.7087256908416748,6,44.824894205729166,-73.16351725260417,0.0430708068,9.726823869,-0.1938186306,-0.1866401628,9.7483592724,-0.3445664544,-0.002748893562,-0.048869218879999995,0.023212878968,0.010384709011999999,-0.06658431072399999,-0.023212878968,-0.1769,-1.86412,-1.42564,1.16,-0.75052,-0.55564,-0.071784678,9.737591570700001,-0.2691925425,0.0038179077249999994,-0.057726764801999994,0.0,0.49154999999999993,-1.30732,-0.99064,-6.59008,-1.88288,15.06304,1.004830989390575,22.545
17013,0,1801002,2,1356,-29,20,167,73,-305,-3214,-2458,-20,1354,-53,60,114,-67,1985,-1270,-975,-304,-32,416,21.41,1.0046484085862324,23.71,1.0049050086355786,4449.49365234375,-7309.81103515625,38.20000076293945,2,12,0.5799999833106995,11.39703369140625,3,0,0.0,0.0,0.0,0.0,-0.5314512701014991,0.0,0.0,-0.3155232475064617,0.2943171798,0.0646062101999999,9.726823869,0.1175936087965965,-0.685638964176178,0.1143642142415046,0.709219217300415,6,44.824894205729166,-73.16351725260417,0.0143569356,9.7340023368,-0.2081755662,-0.143569356,9.719645401200001,-0.3804587934,0.0061086523599999994,0.051007247206,0.022296581114,0.01832595708,0.034819318451999995,-0.020463985405999998,-0.1769,-1.86412,-1.42564,1.1513,-0.7366,-0.5655,-0.0646062102,9.726823869,-0.2943171798,0.012217304719999999,0.042913282829,0.0009162978540000009,0.48719999999999997,-1.30036,-0.9955700000000001,-8.94368,-0.94144,12.23872,1.0047767086109056,22.560000000000002
17014,0,1801107,3,1353,-29,38,192,78,-290,-3226,-2478,-20,1357,-51,77,126,-70,1985,-1270,-975,-272,-128,352,21.39,1.004431285467555,23.73,1.0050431778929187,4449.49365234375,-7309.81103515625,38.09999847412109,2,12,0.5799999833106995,11.36431884765625,3,0,0.0,0.0,0.0,0.0,-0.5064625779320255,0.0,0.0,-0.2636080398502339,0.2871387119999999,0.0610169762999999,9.726823869,0.1170330271124839,-0.6858851313591003,0.1140593662858009,0.7091230154037476,6,44.824894205729166,-73.16351725260417,0.0215354034,9.7124669334,-0.2081755662,-0.143569356,9.7411808046,-0.36610185780000004,0.011606439484,0.058643062656,0.023823744204,0.023518311586,0.038484509868,-0.021380283259999997,-0.1682,-1.87108,-1.43724,1.1513,-0.7366,-0.5655,-0.061016976300000005,9.726823869,-0.287138712,0.017562375535,0.048563786262,0.0012217304720000006,0.49155,-1.30384,-1.00137,-8.00224,-3.76576,10.35584,1.0047372316802368,22.560000000000002
17015,0,1801213,3,1353,-24,19,-41,87,-290,-3226,-2478,-29,1354,-37,58,-87,-59,2003,-1261,-939,-224,-112,432,21.4,1.0043029854428818,23.71,1.0047865778435727,4449.49365234375,-7309.81103515625,38.09999847412109,2,12,0.5799999833106995,11.35614013671875,3,0,0.0,0.0,0.0,0.0,-0.4541093579757024,0.0,0.0,-0.1870943812026807,0.2189432679,0.0933200814,9.7160561673,0.1145255044102668,-0.6863442063331604,0.1117042228579521,0.7094630599021912,6,44.824894205729166,-73.16351725260417,0.0215354034,9.7124669334,-0.1722832272,-0.2081755662,9.719645401200001,-0.26560330860000003,0.005803219742,-0.012522737337999999,0.026572637766,0.017715091844,-0.026572637766,-0.018020524462,-0.1682,-1.87108,-1.43724,1.16174,-0.73138,-0.54462,-0.0933200814,9.7160561673,-0.21894326790000002,0.011759155793,-0.019547687552,0.004276056651999999,0.49677,-1.30123,-0.9909300000000001,-6.59008,-3.29504,12.70944,1.0045447816432271,22.555
17016,0,1801318,-7,1357,-12,11,-89,101,-301,-3216,-2489,-34,1354,-34,41,-147,-57,2003,-1261,-939,-256,-96,432,21.39,1.0042832469775476,23.7,1.004875400937577,4449.49365234375,-7309.81103515625,38.09999847412109,2,12,0.5799999833106995,11.35614013671875,3,0,0.0,0.0,0.0,0.0,-0.5051787869187819,0.0,0.0,-0.2258680093323079,0.1651047594,0.1471585899,9.730413102899998,0.1101866289973259,-0.6869003772735596,0.1074099391698837,0.7102745175361633,6,44.824894205729166,-73.16351725260417,-0.050249274600000005,9.7411808046,-0.0861416136,-0.24406790520000002,9.719645401200001,-0.24406790520000002,0.003359758798,-0.027183503002,0.030848694418,0.012522737337999999,-0.044898594846,-0.017409659225999997,-0.17458,-1.86528,-1.44362,1.16174,-0.73138,-0.54462,-0.14715858990000003,9.730413102900002,-0.16510475940000002,0.007941248068,-0.036041048924,0.006719517596000001,0.49358,-1.29833,-0.9941199999999999,-7.53152,-2.82432,12.70944,1.0045793239575622,22.545
17017,0,1801424,-7,1356,-32,12,-216,93,-301,-3216,-2489,-35,1353,-49,40,-264,-64,1998,-1268,-950,-288,-80,448,21.4,1.0044214162348877,23.7,1.0047767086109054,4449.49365234375,-7309.81103515625,38.09999847412109,2,12,0.5799999833106995,11.37249755859375,3,0,0.0,0.0,0.0,0.0,-0.533974049050423,0.0,0.0,-0.2386107690720204,0.2907279458999999,0.1507478237999999,9.7232346351,0.1055104359984397,-0.6878771185874939,0.1020996049046516,0.7108224034309387,6,44.824894205729166,-73.16351725260417,-0.050249274600000005,9.7340023368,-0.2297109696,-0.251246373,9.7124669334,-0.35174492220000003,0.003665191416,-0.065973445488,0.028405233473999997,0.012217304719999999,-0.080634211152,-0.019547687552,-0.17458,-1.86528,-1.44362,1.15884,-0.73544,-0.551,-0.1507478238,9.723234635099999,-0.2907279459,0.007941248068,-0.07330382831999999,0.004428772960999999,0.49213000000000007,-1.30036,-0.9973099999999999,-8.47296,-2.3536,13.18016,1.0045990624228964,22.549999999999997
17018,0,1801529,-7,1352,-17,15,112,76,-307,-3214,-2510,-40,1349,-36,58,69,-69,1998,-1268,-950,-272,-128,448,21.4,1.0045201085615594,23.71,1.0048457932395756,4449.49365234375,-7309.81103515625,38.09999847412109,2,12,0.5799999833106995,11.37249755859375,3,0,0.0,0.0,0.0,0.0,-0.5149811585424117,0.0,0.0,-0.2013769434823463,0.1902293967,0.1686939932999999,9.694520763899998,0.1017733216285705,-0.6883514523506165,0.0986855030059814,0.71138995885849,6,44.824894205729166,-73.16351725260417,-0.050249274600000005,9.7052884656,-0.12203395260000001,-0.287138712,9.683753062200001,-0.2584248408,0.00458148927,0.034208453215999995,0.023212878968,0.017715091844,0.021074850641999997,-0.021074850641999997,-0.17806,-1.86412,-1.4558,1.15884,-0.73544,-0.551,-0.1686939933,9.694520763900002,-0.1902293967,0.011148290557,0.027641651928999998,0.0010690141630000007,0.49039000000000005,-1.29978,-1.0034,-8.00224,-3.76576,13.18016,1.0046829509005675,22.555
17019,0,1801635,-13,1349,-24,38,7,78,-307,-3214,-2510,-37,1360,-49,63,-26,-75,2021,-1292,-951,-288,-64,544,21.4,1.0044608931655563,23.7,1.0047668393782383,4449.49365234375,-7309.81103515625,38.09999847412109,2,12,0.5799999833106995,11.34796142578125,3,0,0.0,0.0,0.0,0.0,-0.4111613361696447,0.0,0.0,-0.0836771672484607,0.2620140747,0.1794616949999999,9.7232346351,0.1004136800765991,-0.6886867880821228,0.0975120440125465,0.711420476436615,6,44.824894205729166,-73.16351725260417,-0.0933200814,9.683753062200001,-0.1722832272,-0.26560330860000003,9.762716208,-0.35174492220000003,0.011606439484,0.0021380283259999997,0.023823744204,0.019242254934,-0.007941248068,-0.02290744635,-0.17806,-1.86412,-1.4558,1.17218,-0.74936,-0.55158,-0.17946169500000003,9.7232346351,-0.26201407470000004,0.015424347209,-0.002901609871,0.00045814892699999957,0.49706,-1.30674,-1.00369,-8.47296,-1.88288,16.00448,1.0046138662718973,22.549999999999997
17020,0,1801740,2,1353,-3,15,-64,86,-317,-3220,-2471,-34,1362,-20,51,-112,-58,2021,-1292,-951,-272,-80,512,21.39,1.004441154700222,23.73,1.0048852701702442,4449.49365234375,-7309.81103515625,38.09999847412109,2,12,0.5799999833106995,11.37249755859375,3,0,0.0,0.0,0.0,0.0,-0.378806964614663,0.0,0.0,-0.0497028769367613,0.0825523796999999,0.1148554847999999,9.7447700385,0.0960431769490242,-0.6893438100814819,0.0933368355035781,0.7119474411010742,6,44.824894205729166,-73.16351725260417,0.0143569356,9.7124669334,-0.0215354034,-0.24406790520000002,9.777073143600001,-0.143569356,0.00458148927,-0.019547687552,0.026267205148,0.015577063518,-0.034208453215999995,-0.017715091844,-0.18386,-1.8676,-1.43318,1.17218,-0.74936,-0.55158,-0.1148554848,9.7447700385,-0.08255237970000001,0.010079276394,-0.026878070383999995,0.004276056651999999,0.49416,-1.3084799999999999,-0.9923799999999999,-8.00224,-2.3536,15.06304,1.0046632124352333,22.560000000000002
17021,0,1801845,-10,1350,-13,8,132,85,-317,-3220,-2471,-39,1351,-34,48,85,-62,1984,-1302,-973,-304,-64,448,21.39,1.004441154700222,23.71,1.004855662472243,4449.49365234375,-7309.81103515625,38.0,2,12,0.5799999833106995,11.35614013671875,3,0,0.0,0.0,0.0,0.0,-0.4297793888028343,0.0,0.0,-0.1037091475027743,0.1686939932999999,0.1758724611,9.694520763899998,0.0941161811351776,-0.6895137429237366,0.0914243012666702,0.7122882604598999,6,44.824894205729166,-73.16351725260417,-0.071784678,9.69093153,-0.0933200814,-0.2799602442,9.6981099978,-0.24406790520000002,0.002443460944,0.040317105576,0.02596177253,0.014660765664,0.02596177253,-0.018936822316,-0.18386,-1.8676,-1.43318,1.15072,-0.75516,-0.56434,-0.1758724611,9.6945207639,-0.1686939933,0.008552113304,0.033139439053,0.003512475107,0.48342999999999997,-1.31138,-0.9987599999999999,-8.94368,-1.88288,13.18016,1.0046484085862324,22.55
17022,0,1801951,-11,1344,-24,2,253,84,-319,-3216,-2490,-43,1356,-38,41,181,-61,1984,-1302,-973,-240,-16,512,21.38,1.004431285467555,23.72,1.004806316308907,4449.49365234375,-7309.81103515625,38.0,2,12,0.5799999833106995,11.32342529296875,3,0,0.0,0.0,0.0,0.0,-0.5229699052291601,0.0,0.0,-0.1972577120448978,0.2225325017999999,0.1938186305999999,9.69093153,0.0934114158153534,-0.6894585490226746,0.0907477587461471,0.712520956993103,6,44.824894205729166,-73.16351725260417,-0.07896314580000001,9.6478607232,-0.1722832272,-0.3086741154,9.7340023368,-0.2727817764,0.000610865236,0.07727445235399999,0.025656339912,0.012522737337999999,0.055283303857999996,-0.018631389698,-0.18502,-1.86528,-1.4442,1.15072,-0.75516,-0.56434,-0.1938186306,9.69093153,-0.2225325018,0.006566801286999999,0.066278878106,0.003512475107,0.48285,-1.3102200000000002,-1.00427,-7.0608,-0.47072,15.06304,1.004618800888231,22.549999999999997
17023,0,1802056,-4,1349,-27,9,179,73,-319,-3216,-2490,-38,1350,-47,35,117,-75,1976,-1275,-978,-240,-48,464,21.39,1.004500370096225,23.72,1.004983962496916,4449.49365234375,-7309.81103515625,38.0,2,12,0.5799999833106995,11.35614013671875,3,0,0.0,0.0,0.0,0.0,-0.46176534309023,0.0,0.0,-0.1253824127722144,0.2656033086,0.1507478237999999,9.6873422961,0.0931888818740844,-0.6893476843833923,0.0906440019607544,0.7126705646514893,6,44.824894205729166,-73.16351725260417,-0.0287138712,9.683753062200001,-0.1938186306,-0.2727817764,9.69093153,-0.3373879866,0.002748893562,0.054672438622,0.022296581114,0.010690141629999999,0.035735616306,-0.02290744635,-0.18502,-1.86528,-1.4442,1.14608,-0.7395,-0.56724,-0.1507478238,9.6873422961,-0.26560330860000003,0.006719517595999999,0.045204027464,-0.0003054326179999997,0.48053,-1.30239,-1.00572,-7.0608,-1.41216,13.65088,1.0047421662965705,22.555
17024,0,1802162,-7,1353,-34,15,11,64,-305,-3198,-2510,-33,1355,-46,53,-49,-84,1976,-1275,-978,-272,-128,384,21.4,1.0044608931655563,23.7,1.0047273624475697,4449.49365234375,-7309.81103515625,38.0,2,12,0.5799999833106995,11.38885498046875,3,0,0.0,0.0,0.0,0.0,-0.4487370823001433,0.0,0.0,-0.1060236191199445,0.2871387119999999,0.1435693559999999,9.7196454012,0.0910777673125267,-0.6895472407341003,0.0888756588101387,0.7129731178283691,6,44.824894205729166,-73.16351725260417,-0.050249274600000005,9.7124669334,-0.24406790520000002,-0.2368894374,9.726823869,-0.3302095188,0.00458148927,0.003359758798,0.019547687552,0.016187928754,-0.014966198282,-0.025656339912,-0.1769,-1.85484,-1.4558,1.14608,-0.7395,-0.56724,-0.143569356,9.719645401200001,-0.287138712,0.010384709011999999,-0.005803219742,-0.0030543261800000006,0.48458999999999997,-1.29717,-1.01152,-8.00224,-3.76576,11.29728,1.004594127806563,22.549999999999997
