	timestamp_s	timestamp_ms	imu1_accel_x	imu1_accel_y	imu1_accel_z	imu1_gyro_x	imu1_gyro_y	imu1_gyro_z	imu1_mag_x	imu1_mag_y	imu1_mag_z	imu2_accel_x	imu2_accel_y	imu2_accel_z	imu2_gyro_x	imu2_gyro_y	imu2_gyro_z	imu2_mag_x	imu2_mag_y	imu2_mag_z	high_g_accel_x	high_g_accel_y	high_g_accel_z	baro1_temp	baro1_pres	baro2_temp	baro2_pres	gps_lat	gps_long	gps_alt	battery_voltage	pyro_cont	heading	vtg	pos_x	pos_y	pos_z	vel_x	vel_y	vel_z	q_x	q_y	q_z	q_w	state	gps_lat_mod	gps_long_mod	imu1_accel_x_real	imu1_accel_y_real	imu1_accel_z_real	imu2_accel_x_real	imu2_accel_y_real	imu2_accel_z_real	imu1_gyro_x_real	imu1_gyro_y_real	imu1_gyro_z_real	imu2_gyro_x_real	imu2_gyro_y_real	imu2_gyro_z_real	imu1_mag_x_real	imu1_mag_y_real	imu1_mag_z_real	imu2_mag_x_real	imu2_mag_y_real	imu2_mag_z_real	imu_accel_x_avg	imu_accel_y_avg	imu_accel_z_avg	imu_gyro_x_avg	imu_gyro_y_avg	imu_gyro_z_avg	imu_mag_x_avg	imu_mag_y_avg	imu_mag_z_avg	high_g_accel_x_real	high_g_accel_y_real	high_g_accel_z_real	baro_pres_avg	baro_temp_avg
70189	7400373	0	168	-1354	22	-58	136	57	301	1096	-3036	179	-1373	4	15	19	-98	189	2803	-872	384	-80	416	33.22	0.9905847520355292	33.53	0.9994571922033062	4449.47802734375	-7309.845703125	37.70000076293945	6.730920314788818	3	0.0	0.0	0.0	0.0	-0.0263664928073577	0.0	0.0	-0.1827239780460658	0.0	0.0	0.0	0.0	12	44.8246337890625	-73.16409505208334	1.2059825904	-9.719645401200001	0.15792629160000002	1.2849457362	-9.8560362894	0.0287138712	-0.017715091844	0.041538836047999995	0.017409659225999997	0.00458148927	0.005803219742	-0.029932396564	0.17458	0.63568	-1.76088	0.10962	1.62574	-0.50576	1.2454641633	-9.7878408453	0.0933200814	-0.006566801287000001	0.023671027895	-0.006261368669000001	0.1421	1.13071	-1.1333199999999999	11.29728	-2.3536	12.23872	0.9950209721194176	33.375
70190	7400478	0	168	-1354	46	-66	136	85	308	1108	-3047	171	-1373	14	14	25	-67	189	2803	-872	352	-192	448	33.23	0.9905551443375278	33.53	0.999447322970639	4449.47802734375	-7309.845703125	37.70000076293945	6.730920314788818	3	0.0	0.0	0.0	0.0	-0.0008628337240274	0.0	0.0	-0.1382137626119211	0.0	0.0	0.0	0.0	12	44.8246337890625	-73.16409505208334	1.2059825904	-9.719645401200001	0.3302095188	1.2275179938	-9.8560362894	0.10049854920000001	-0.020158552788	0.041538836047999995	0.02596177253	0.004276056651999999	0.00763581545	-0.020463985405999998	0.17864	0.64264	-1.76726	0.10962	1.62574	-0.50576	1.2167502921	-9.7878408453	0.215354034	-0.007941248068	0.024587325748999998	0.002748893562000001	0.14412999999999998	1.13419	-1.13651	10.35584	-5.64864	13.18016	0.9950012336540834	33.379999999999995
70191	7400584	0	190	-1357	57	-35	62	85	308	1108	-3047	196	-1374	25	21	-32	-76	192	2809	-856	480	-256	400	33.22	0.9905847520355292	33.53	0.9999309153713298	4449.47802734375	-7309.845703125	37.70000076293945	6.722057819366455	3	0.0	0.0	0.0	0.0	0.0218614761179192	0.0	0.0	-0.1033167851121802	0.0	0.0	0.0	0.0	12	44.8246337890625	-73.16409505208334	1.363908882	-9.7411808046	0.4091726646	1.4069796888000001	-9.8632147572	0.179461695	-0.010690141629999999	0.018936822316	0.02596177253	0.006414084978	-0.009773843776	-0.023212878968	0.17864	0.64264	-1.76726	0.11136	1.6292200000000001	-0.49648	1.3854442854000002	-9.8021977809	0.2943171798	-0.0021380283259999993	0.00458148927	0.0013744467810000004	0.145	1.13593	-1.13187	14.1216	-7.53152	11.768	0.9952578337034295	33.375
70192	7400689	0	200	-1359	54	-12	100	76	284	1075	-3088	209	-1375	29	69	-4	-72	192	2809	-856	400	-64	448	33.23	0.9907130520602024	33.52	0.9995953614606464	4449.47802734375	-7309.845703125	37.70000076293945	6.730920314788818	3	0.0	0.0	0.0	0.0	0.041523161386564	0.0	0.0	-0.0751275655281856	0.0	0.0	0.0	0.0	12	44.8246337890625	-73.16409505208334	1.43569356	-9.755537740200001	0.3876372612	1.5002997702	-9.870393225	0.2081755662	-0.003665191416	0.0305432618	0.023212878968	0.021074850641999997	-0.001221730472	-0.021991148496	0.16472	0.6235	-1.79104	0.11136	1.6292200000000001	-0.49648	1.4679966651	-9.812965482600001	0.29790641370000004	0.008704829612999999	0.014660765664	0.0006108652359999994	0.13804	1.12636	-1.1437599999999999	11.768	-1.88288	13.18016	0.9951542067604244	33.375
70193	7400795	0	204	-1352	32	8	79	30	284	1075	-3088	213	-1373	13	66	1	-109	188	2814	-859	384	-112	480	33.23	0.9906637058968664	33.52	0.9994867999013076	4449.47802734375	-7309.845703125	37.70000076293945	6.713195323944092	3	0.0	0.0	0.0	0.0	0.0567805759064121	0.0	0.0	-0.0537441052195571	0.0	0.0	0.0	0.0	12	44.8246337890625	-73.16409505208334	1.4644074312000002	-9.7052884656	0.2297109696	1.5290136414	-9.8560362894	0.0933200814	0.002443460944	0.024129176821999998	0.00916297854	0.020158552788	0.000305432618	-0.033292155361999996	0.16472	0.6235	-1.79104	0.10904	1.63212	-0.49822	1.4967105363000002	-9.7806623775	0.1615155255	0.011301006866	0.012217304719999999	-0.012064588410999999	0.13688	1.12781	-1.14463	11.29728	-3.29504	14.1216	0.9950752528990869	33.375
70194	7400900	0	188	-1353	16	9	130	33	307	1082	-3048	198	-1369	-3	60	30	-112	188	2814	-859	512	-176	448	33.21	0.9906834443622008	33.53	0.9995262768319764	4449.47802734375	-7309.845703125	37.70000076293945	6.730920314788818	3	0.0	0.0	0.0	0.0	0.0901055237932761	0.0	0.0	-0.0147528379153736	0.0	0.0	0.0	0.0	12	44.8246337890625	-73.16409505208334	1.3495519464	-9.7124669334	0.1148554848	1.4213366244	-9.8273224182	-0.0215354034	0.002748893562	0.03970624034	0.010079276394	0.01832595708	0.00916297854	-0.034208453215999995	0.17806	0.62756	-1.76784	0.10904	1.63212	-0.49822	1.3854442854000002	-9.7698946758	0.0466600407	0.010537425321	0.024434609439999998	-0.012064588410999999	0.14355	1.12984	-1.13303	15.06304	-5.17792	13.18016	0.9951048605970886	33.370000000000005
70195	7401005	0	179	-1356	7	-23	82	50	307	1082	-3048	178	-1368	-2	50	-12	-104	164	2827	-853	400	-80	496	33.24	0.9907920059215396	33.53	0.9997927461139896	4449.47802734375	-7309.845703125	37.70000076293945	6.704333305358887	3	0.0	0.0	0.0	0.0	0.1151695580214032	0.0	0.0	0.006676442584001	0.0	0.0	0.0	0.0	12	44.8246337890625	-73.16409505208334	1.2849457362	-9.7340023368	0.050249274600000005	1.2777672684	-9.8201439504	-0.0143569356	-0.0070249502139999994	0.025045474675999997	0.0152716309	0.0152716309	-0.003665191416	-0.031764992272	0.17806	0.62756	-1.76784	0.09512	1.6396600000000001	-0.49474	1.2813565023	-9.7770731436	0.0179461695	0.004123340343	0.010690141629999999	-0.008246680686	0.13659	1.13361	-1.1312900000000001	11.768	-2.3536	14.59232	0.9952923760177645	33.385000000000005
70196	7401111	0	178	-1353	21	-36	60	78	291	1090	-3012	191	-1373	1	20	-34	-69	164	2827	-853	416	-128	384	33.23	0.9905551443375278	33.54	0.9995854922279792	4449.47802734375	-7309.845703125	37.70000076293945	6.730920314788818	3	0.0	0.0	0.0	0.0	0.2014098810937848	0.0	0.0	0.0873818588332558	0.0	0.0	0.0	0.0	12	44.8246337890625	-73.16409505208334	1.2777672684	-9.7124669334	0.1507478238	1.3710873498	-9.8560362894	0.0071784678	-0.010995574248	0.01832595708	0.023823744204	0.0061086523599999994	-0.010384709011999999	-0.021074850641999997	0.16878	0.6322	-1.74696	0.09512	1.6396600000000001	-0.49474	1.3244273091	-9.7842516114	0.07896314580000001	-0.0024434609440000003	0.003970624034000001	0.0013744467810000004	0.13195	1.13593	-1.1208500000000001	12.23872	-3.76576	11.29728	0.9950703182827535	33.385
70197	7401216	0	194	-1359	41	-47	75	95	307	1073	-3063	197	-1367	13	24	-9	-52	202	2812	-846	448	-96	464	33.23	0.990762398223538	33.51	0.9995854922279792	4449.47802734375	-7309.845703125	37.70000076293945	6.722057819366455	3	0.0	0.0	0.0	0.0	0.0807331673749914	0.0	0.0	-0.0479416860362225	0.0	0.0	0.0	0.0	12	44.8246337890625	-73.16409505208334	1.3926227532	-9.755537740200001	0.2943171798	1.4141581566	-9.812965482600001	0.0933200814	-0.014355333045999999	0.02290744635	0.029016098709999997	0.007330382832	-0.002748893562	-0.015882496136	0.17806	0.62234	-1.77654	0.11716	1.63096	-0.49068	1.4033904549	-9.784251611400002	0.19381863059999999	-0.0035124751069999993	0.010079276394	0.006566801286999999	0.14761	1.12665	-1.13361	13.18016	-2.82432	13.65088	0.9951739452257586	33.37
70198	7401322	0	199	-1352	50	-35	55	71	307	1073	-3063	206	-1369	33	27	-28	-68	202	2812	-846	352	-144	448	33.21	0.9907327905255366	33.53	0.9996150999259809	4449.47802734375	-7309.845703125	37.70000076293945	6.713195323944092	3	0.0	0.0	0.0	0.0	0.0291733136689526	0.0	0.0	-0.097976063679335	0.0	0.0	0.0	0.0	12	44.8246337890625	-73.16409505208334	1.4285150922	-9.7052884656	0.35892339	1.4787643668000001	-9.8273224182	0.2368894374	-0.010690141629999999	0.016798793989999998	0.021685715878	0.008246680686	-0.008552113303999999	-0.020769418023999998	0.17806	0.62234	-1.77654	0.11716	1.63096	-0.49068	1.4536397295	-9.7663054419	0.29790641370000004	-0.0012217304719999997	0.004123340343	0.0004581489270000013	0.14761	1.12665	-1.13361	10.35584	-4.23648	13.18016	0.9951739452257587	33.370000000000005
70199	7401427	0	205	-1356	44	-9	117	53	291	1081	-3055	210	-1368	18	67	18	-94	203	2794	-859	352	-80	416	33.23	0.9905156674068591	33.53	0.999575622995312	4449.47802734375	-7309.845703125	37.70000076293945	6.713195323944092	3	0.0	0.0	0.0	0.0	0.1694123754418787	0.0	0.0	0.0542445996631335	0.0	0.0	0.0	0.0	12	44.8246337890625	-73.16409505208334	1.4715858990000001	-9.7340023368	0.31585258320000004	1.507478238	-9.8201439504	0.1292124204	-0.002748893562	0.035735616306	0.016187928754	0.020463985405999998	0.005497787124	-0.028710666091999997	0.16878	0.62698	-1.7719	0.11774	1.62052	-0.49822	1.4895320685	-9.7770731436	0.2225325018	0.008857545921999999	0.020616701715	-0.006261368668999999	0.14326	1.12375	-1.13506	10.35584	-2.3536	12.23872	0.9950456452010856	33.379999999999995
70200	7401532	0	189	-1356	35	14	96	29	291	1081	-3055	194	-1371	10	111	13	-114	203	2794	-859	432	-176	416	33.22	0.9907031828275352	33.53	0.9998223538119912	4449.47802734375	-7309.845703125	37.70000076293945	6.713195323944092	3	0.0	0.0	0.0	0.0	0.0788887200422111	0.0	0.0	-0.0463774542562064	0.0	0.0	0.0	0.0	12	44.8246337890625	-73.16409505208334	1.3567304142	-9.7340023368	0.251246373	1.3926227532	-9.8416793538	0.071784678	0.004276056651999999	0.029321531328	0.008857545922	0.033903020597999996	0.003970624034	-0.034819318451999995	0.16878	0.62698	-1.7719	0.11774	1.62052	-0.49822	1.3746765837	-9.7878408453	0.1615155255	0.019089538625	0.016646077681	-0.012980886264999998	0.14326	1.12375	-1.13506	12.70944	-5.17792	12.23872	0.9952627683197632	33.375
70201	7401638	0	175	-1354	24	0	119	41	302	1096	-3109	184	-1370	3	70	20	-97	196	2804	-823	384	-80	480	33.24	0.9906439674315322	33.52	0.9996545768566494	4449.47802734375	-7309.845703125	37.70000076293945	6.722057819366455	3	0.0	0.0	0.0	0.0	0.1659460466561754	0.0	0.0	0.0454850545685149	0.0	0.0	0.0	0.0	12	44.8246337890625	-73.16409505208334	1.256231865	-9.719645401200001	0.1722832272	1.3208380752	-9.834500886	0.0215354034	0.0	0.036346481542	0.012522737337999999	0.021380283259999997	0.0061086523599999994	-0.029626963946	0.17516	0.63568	-1.80322	0.11368	1.62632	-0.47734	1.2885349701	-9.777073143600001	0.09690931529999999	0.010690141629999999	0.021227566951	-0.008552113304	0.14442	1.131	-1.14028	11.29728	-2.3536	14.1216	0.9951492721440908	33.38
70202	7401743	0	169	-1363	14	-32	109	62	302	1096	-3109	178	-1371	1	40	9	-84	196	2804	-823	480	-160	448	33.22	0.9907031828275352	33.53	0.9996644460893166	4449.47802734375	-7309.845703125	37.70000076293945	6.739782333374023	3	0.0	0.0	0.0	0.0	0.0534054841779563	0.0	0.0	-0.0785339218513082	0.0	0.0	0.0	0.0	12	44.8246337890625	-73.16409505208334	1.2131610582	-9.7842516114	0.10049854920000001	1.2777672684	-9.8416793538	0.0071784678	-0.009773843776	0.033292155361999996	0.018936822316	0.012217304719999999	0.002748893562	-0.025656339912	0.17516	0.63568	-1.80322	0.11368	1.62632	-0.47734	1.2454641633	-9.8129654826	0.05383850850000001	0.0012217304719999997	0.018020524461999997	-0.0033597587980000003	0.14442	1.131	-1.14028	14.1216	-4.7072	13.18016	0.995183814458426	33.375
70203	7401849	0	174	-1353	14	-54	127	83	320	1100	-3067	186	-1372	-1	11	33	-62	186	2806	-846	416	-96	352	33.21	0.990574882802862	33.53	0.9996644460893166	4449.47802734375	-7309.845703125	37.70000076293945	6.730920314788818	3	0.0	0.0	0.0	0.0	0.0690872448581444	0.0	0.0	-0.0580749349144314	0.0	0.0	0.0	0.0	12	44.8246337890625	-73.16409505208334	1.2490533972	-9.7124669334	0.10049854920000001	1.3351950108000001	-9.848857821600001	-0.0071784678	-0.016493361372	0.038789942486	0.025350907293999997	0.003359758798	0.010079276394	-0.018936822316	0.1856	0.638	-1.77886	0.10788	1.62748	-0.49068	1.292124204	-9.7806623775	0.0466600407	-0.006566801286999999	0.024434609439999998	0.0032070424889999987	0.14673999999999998	1.13274	-1.13477	12.23872	-2.82432	10.35584	0.9951196644460893	33.370000000000005
70204	7401954	0	198	-1357	30	-62	87	70	320	1100	-3067	202	-1367	4	-6	7	-77	186	2806	-846	336	-96	512	33.23	0.9906143597335308	33.51	0.9995164075993092	4449.47802734375	-7309.845703125	37.70000076293945	6.730920314788818	3	0.0	0.0	0.0	0.0	0.1734520647777518	0.0	0.0	0.051174584232119	0.0	0.0	0.0	0.0	12	44.8246337890625	-73.16409505208334	1.4213366244	-9.7411808046	0.215354034	1.4500504956	-9.812965482600001	0.0287138712	-0.018936822316	0.026572637766	0.021380283259999997	-0.001832595708	0.0021380283259999997	-0.023518311586	0.1856	0.638	-1.77886	0.10788	1.62748	-0.49068	1.43569356	-9.777073143600001	0.1220339526	-0.010384709012	0.014355333046	-0.0010690141630000007	0.14673999999999998	1.13274	-1.13477	9.88512	-2.82432	15.06304	0.9950653836664201	33.37
70205	7402059	0	200	-1360	45	-52	154	56	327	1095	-3012	215	-1367	18	20	61	-94	191	2813	-845	400	-224	400	33.24	0.990634098198865	33.51	0.999743399950654	4449.47802734375	-7309.845703125	38.0	6.713195323944092	3	0.0	0.0	0.0	0.0	0.0108396724493293	0.0	0.0	-0.1248300080398019	0.0	0.0	0.0	0.0	12	44.8246337890625	-73.16409505208334	1.43569356	-9.762716208	0.323031051	1.5433705770000001	-9.812965482600001	0.1292124204	-0.015882496136	0.047036623172	0.017104226607999998	0.0061086523599999994	0.018631389698	-0.028710666091999997	0.18966	0.6351	-1.74696	0.11078	1.63154	-0.4901	1.4895320685	-9.7878408453	0.2261217357	-0.004886921888	0.032834006435	-0.005803219742	0.15022	1.1333199999999999	-1.11853	11.768	-6.59008	11.768	0.9951887490747595	33.375
70206	7402165	0	188	-1359	54	-22	106	41	327	1095	-3012	195	-1369	22	48	5	-112	191	2813	-845	448	-224	384	33.23	0.9906143597335308	33.53	0.9997236614853195	4449.47802734375	-7309.845703125	38.0	6.713195323944092	3	0.0	0.0	0.0	0.0	0.0129225712054429	0.0	0.0	-0.1141471523462575	0.0	0.0	0.0	0.0	12	44.8246337890625	-73.16409505208334	1.3495519464	-9.755537740200001	0.3876372612	1.3998012210000002	-9.8273224182	0.15792629160000002	-0.006719517596	0.032375857508	0.012522737337999999	0.014660765664	0.0015271630899999999	-0.034208453215999995	0.18966	0.6351	-1.74696	0.11078	1.63154	-0.4901	1.3746765837000001	-9.791430079200001	0.2727817764	0.003970624034	0.016951510298999998	-0.010842857938999998	0.15022	1.1333199999999999	-1.11853	13.18016	-6.59008	11.29728	0.9951690106094252	33.379999999999995
70207	7402270	0	187	-1354	35	20	97	42	308	1100	-3055	188	-1373	9	76	7	-113	182	2818	-823	464	-80	528	33.23	0.9907130520602024	33.52	0.9995460152973108	4449.47802734375	-7309.845703125	38.0	6.722057819366455	3	0.0	0.0	0.0	0.0	0.0332233395743822	0.0	0.0	-0.0829234652647794	0.0	0.0	0.0	0.0	12	44.8246337890625	-73.16409505208334	1.3423734786000001	-9.719645401200001	0.251246373	1.3495519464	-9.8560362894	0.0646062102	0.0061086523599999994	0.029626963946	0.012828169956	0.023212878968	0.0021380283259999997	-0.034513885833999995	0.17864	0.638	-1.7719	0.10556	1.6344400000000001	-0.47734	1.3459627125	-9.7878408453	0.15792629160000002	0.014660765664	0.015882496136	-0.010842857938999997	0.1421	1.13622	-1.12462	13.65088	-2.3536	15.533760000000001	0.9951295336787567	33.375
70208	7402375	0	169	-1357	18	6	89	57	308	1100	-3055	179	-1370	5	75	13	-85	182	2818	-823	480	-192	512	33.22	0.9905946212681964	33.52	0.999753269183321	4449.47802734375	-7309.845703125	38.0	6.713195323944092	3	0.0	0.0	0.0	0.0	-0.0480190899354412	0.0	0.0	-0.1591587929681372	0.0	0.0	0.0	0.0	12	44.8246337890625	-73.16409505208334	1.2131610582	-9.7411808046	0.1292124204	1.2849457362	-9.834500886	0.035892339	0.001832595708	0.027183503002	0.017409659225999997	0.02290744635	0.003970624034	-0.02596177253	0.17864	0.638	-1.7719	0.10556	1.6344400000000001	-0.47734	1.2490533972	-9.7878408453	0.0825523797	0.012370021028999999	0.015577063518	-0.004276056652000001	0.1421	1.13622	-1.12462	14.1216	-5.64864	15.06304	0.9951739452257586	33.370000000000005
70209	7402480	0	181	-1357	8	-15	66	79	305	1083	-3075	183	-1365	-4	42	-33	-74	187	2819	-857	368	-48	432	33.22	0.9905847520355292	33.53	0.9997236614853195	4449.47802734375	-7309.845703125	38.0	6.730920314788818	3	0.0	0.0	0.0	0.0	-0.1074949171789836	0.0	0.0	-0.2028364466035663	0.0	0.0	0.0	0.0	12	44.8246337890625	-73.16409505208334	1.2993026718	-9.7411808046	0.0574277424	1.3136596074	-9.798608547	-0.0287138712	-0.00458148927	0.020158552788	0.024129176821999998	0.012828169956	-0.010079276394	-0.022602013732	0.1769	0.62814	-1.7835	0.10846	1.63502	-0.49706	1.3064811396	-9.7698946758	0.0143569356	0.004123340343	0.005039638197	0.0007635815449999993	0.14268	1.13158	-1.14028	10.82656	-1.41216	12.70944	0.9951542067604244	33.375
70210	7402585	0	193	-1357	15	-45	109	84	305	1083	-3075	204	-1364	-6	35	29	-68	187	2819	-857	480	-112	384	33.23	0.9906044905008636	33.52	0.9998026153466568	4449.47802734375	-7309.845703125	38.0	6.713195323944092	3	0.0	0.0	0.0	0.0	-0.2530668630829771	0.0	0.0	-0.3345100634100127	0.0	0.0	0.0	0.0	12	44.8246337890625	-73.16409505208334	1.3854442854	-9.7411808046	0.107677017	1.4644074312000002	-9.7914300792	-0.0430708068	-0.01374446781	0.033292155361999996	0.025656339912	0.010690141629999999	0.008857545922	-0.020769418023999998	0.1769	0.62814	-1.7835	0.10846	1.63502	-0.49706	1.4249258583	-9.7663054419	0.0323031051	-0.0015271630900000003	0.021074850641999997	0.002443460944000001	0.14268	1.13158	-1.14028	14.1216	-3.29504	11.29728	0.9952035529237602	33.375
70211	7402691	0	207	-1353	30	-41	106	59	332	1074	-3066	207	-1368	6	19	20	-73	203	2793	-845	448	-224	512	33.23	0.9906735751295336	33.53	0.9997730076486552	4449.47802734375	-7309.845703125	38.0	6.704333305358887	3	0.0	0.0	0.0	0.0	-0.2687408945460496	0.0	0.0	-0.320994682634992	0.0	0.0	0.0	0.0	12	44.8246337890625	-73.16409505208334	1.4859428346	-9.7124669334	0.215354034	1.4859428346	-9.8201439504	0.0430708068	-0.012522737337999999	0.032375857508	0.018020524462	0.005803219742	0.0061086523599999994	-0.022296581114	0.19256	0.62292	-1.77828	0.11774	1.61994	-0.4901	1.4859428346	-9.7663054419	0.1292124204	-0.0033597587979999994	0.019242254934	-0.0021380283259999997	0.15515	1.12143	-1.13419	13.18016	-6.59008	15.06304	0.9952232913890944	33.379999999999995
70212	7402796	0	205	-1359	46	-42	103	35	332	1074	-3066	208	-1371	24	29	10	-112	203	2793	-845	400	-96	448	33.22	0.9906439674315322	33.53	0.9997730076486552	4449.47802734375	-7309.845703125	38.0	6.713195323944092	3	0.0	0.0	0.0	0.0	-0.3105561674697576	0.0	0.0	-0.3309078197721475	0.0	0.0	0.0	0.0	12	44.8246337890625	-73.16409505208334	1.4715858990000001	-9.755537740200001	0.3302095188	1.4931213024	-9.8416793538	0.1722832272	-0.012828169956	0.031459559654	0.010690141629999999	0.008857545922	0.0030543261799999997	-0.034208453215999995	0.19256	0.62292	-1.77828	0.11774	1.61994	-0.4901	1.4823536007000002	-9.798608547	0.25124637299999997	-0.001985312017	0.017256942916999998	-0.011759155793	0.15515	1.12143	-1.13419	11.768	-2.82432	13.18016	0.9952084875400937	33.375
70213	7402901	0	191	-1353	48	-7	145	29	324	1089	-3038	194	-1368	28	58	53	-121	205	2817	-854	496	-144	496	33.23	0.9906637058968664	33.53	0.999881569207994	4449.47802734375	-7309.845703125	38.0	6.713195323944092	3	0.0	0.0	0.0	0.0	-0.2746668405961334	0.0	0.0	-0.2638896279367824	0.0	0.0	0.0	0.0	12	44.8246337890625	-73.16409505208334	1.3710873498	-9.7124669334	0.3445664544	1.3926227532	-9.8201439504	0.20099709840000002	-0.0021380283259999997	0.04428772961	0.008857545922	0.017715091844	0.016187928754	-0.036957346778	0.18792	0.63162	-1.76204	0.1189	1.63386	-0.49532	1.3818550515	-9.7663054419	0.2727817764	0.0077885317590000004	0.030237829182	-0.014049900428	0.15341	1.13274	-1.1286800000000001	14.59232	-4.23648	14.59232	0.9952726375524301	33.379999999999995
70214	7403007	0	175	-1358	31	5	95	39	327	1076	-3074	175	-1373	10	89	1	-111	205	2817	-854	448	-160	336	33.23	0.9906044905008636	33.53	0.9995262768319764	4449.47802734375	-7309.845703125	38.0	6.730920314788818	3	0.0	0.0	0.0	0.0	-0.2047315348629139	0.0	0.0	-0.1652760439197854	0.0	0.0	0.0	0.0	12	44.8246337890625	-73.16409505208334	1.256231865	-9.7483592724	0.2225325018	1.256231865	-9.8560362894	0.071784678	0.0015271630899999999	0.029016098709999997	0.011911872102	0.027183503002	0.000305432618	-0.033903020597999996	0.18966	0.62408	-1.78292	0.1189	1.63386	-0.49532	1.256231865	-9.8021977809	0.1471585899	0.014355333045999999	0.014660765663999998	-0.010995574247999998	0.15428	1.12897	-1.1391200000000001	13.18016	-4.7072	9.88512	0.9950653836664201	33.379999999999995
70215	7403112	0	169	-1355	22	7	87	62	327	1076	-3074	178	-1374	2	77	-16	-91	173	2799	-861	320	-80	448	33.22	0.990693313594868	33.52	0.9995460152973108	4449.47802734375	-7309.845703125	38.0	6.722057819366455	3	0.0	0.0	0.0	0.0	-0.1819629818978453	0.0	0.0	-0.1233628430090135	0.0	0.0	0.0	0.0	12	44.8246337890625	-73.16409505208334	1.2131610582	-9.726823869	0.15792629160000002	1.2777672684	-9.8632147572	0.0143569356	0.0021380283259999997	0.026572637766	0.018936822316	0.023518311586	-0.004886921888	-0.027794368237999998	0.18966	0.62408	-1.78292	0.10034	1.62342	-0.49938	1.2454641633	-9.7950193131	0.08614161360000001	0.012828169955999998	0.010842857939	-0.004428772960999999	0.145	1.12375	-1.14115	9.4144	-2.3536	13.18016	0.9951196644460893	33.370000000000005
70216	7403218	0	186	-1355	13	-7	54	78	292	1081	-3030	186	-1376	1	53	-30	-63	173	2799	-861	384	-80	528	33.22	0.990693313594868	33.52	0.9996447076239824	4449.47802734375	-7309.845703125	38.0	6.713195323944092	3	0.0	0.0	0.0	0.0	-0.160599820089816	0.0	0.0	-0.0903463235082708	0.0	0.0	0.0	0.0	12	44.8246337890625	-73.16409505208334	1.3351950108000001	-9.726823869	0.0933200814	1.3351950108000001	-9.8775716928	0.0071784678	-0.0021380283259999997	0.016493361372	0.023823744204	0.016187928754	-0.00916297854	-0.019242254934	0.16936	0.62698	-1.7574	0.10034	1.62342	-0.49938	1.3351950108000001	-9.8021977809	0.050249274600000005	0.0070249502139999994	0.003665191415999999	0.0022907446349999996	0.13485	1.1252	-1.12839	11.29728	-2.3536	15.533760000000001	0.9951690106094252	33.370000000000005
70217	7403323	0	197	-1357	19	-49	119	83	292	1081	-3030	211	-1368	2	15	9	-60	191	2826	-848	432	-112	496	33.2	0.9907130520602024	33.52	0.9995460152973108	4449.47802734375	-7309.845703125	38.0	6.722057819366455	3	0.0	0.0	0.0	0.0	-0.1344988986207014	0.0	0.0	-0.0572713379704434	0.0	0.0	0.0	0.0	12	44.8246337890625	-73.16409505208334	1.4141581566	-9.7411808046	0.1363908882	1.5146567058	-9.8201439504	0.0143569356	-0.014966198282	0.036346481542	0.025350907293999997	0.00458148927	0.002748893562	-0.01832595708	0.16936	0.62698	-1.7574	0.11078	1.63908	-0.49184	1.4644074312000002	-9.7806623775	0.0753739119	-0.005192354506	0.019547687552	0.0035124751069999984	0.14007	1.13303	-1.12462	12.70944	-3.29504	14.59232	0.9951295336787567	33.36
70218	7403428	0	211	-1359	30	-58	102	50	308	1079	-3046	211	-1368	4	10	8	-97	171	2801	-859	352	-144	464	33.23	0.9907130520602024	33.52	0.9996052306933136	4449.47802734375	-7309.845703125	38.0	6.713195323944092	3	0.0	0.0	0.0	0.0	-0.1106969605727273	0.0	0.0	-0.0282822241199223	0.0	0.0	0.0	0.0	12	44.8246337890625	-73.16409505208334	1.5146567058	-9.755537740200001	0.215354034	1.5146567058	-9.8201439504	0.0287138712	-0.017715091844	0.031154127036	0.0152716309	0.0030543261799999997	0.002443460944	-0.029626963946	0.17864	0.62582	-1.76668	0.09918	1.62458	-0.49822	1.5146567058	-9.7878408453	0.1220339526	-0.007330382832	0.016798793989999998	-0.007177666523	0.13891	1.1252	-1.13245	10.35584	-4.23648	13.65088	0.995159141376758	33.375
70219	7403534	0	205	-1359	40	-26	119	51	308	1079	-3046	209	-1374	17	34	35	-109	171	2801	-859	384	-144	384	33.22	0.9904761904761904	33.53	0.9994571922033062	4449.47802734375	-7309.845703125	38.0	6.739782333374023	3	0.0	0.0	0.0	0.0	0.0420287823909757	0.0	0.0	0.1318562997989559	0.0	0.0	0.0	0.0	12	44.8246337890625	-73.16409505208334	1.4715858990000001	-9.755537740200001	0.287138712	1.5002997702	-9.8632147572	0.12203395260000001	-0.007941248068	0.036346481542	0.015577063518	0.010384709011999999	0.010690141629999999	-0.033292155361999996	0.17864	0.62582	-1.76668	0.09918	1.62458	-0.49822	1.4859428346	-9.809376248700001	0.2045863323	0.0012217304719999997	0.023518311586	-0.008857545921999999	0.13891	1.1252	-1.13245	11.29728	-4.23648	11.29728	0.9949666913397484	33.375
70220	7403639	0	184	-1360	57	-6	83	44	314	1081	-3067	195	-1374	28	61	6	-115	178	2803	-865	384	-80	464	33.22	0.9907426597582036	33.53	0.9997730076486552	4449.47802734375	-7309.845703125	38.0	6.704333305358887	3	0.0	0.0	0.0	0.0	0.0258580446569443	0.0	0.0	0.0953500400752832	0.0	0.0	0.0	0.0	12	44.8246337890625	-73.16409505208334	1.3208380752	-9.762716208	0.4091726646	1.3998012210000002	-9.8632147572	0.20099709840000002	-0.001832595708	0.025350907293999997	0.013439035192	0.018631389698	0.001832595708	-0.035124751069999995	0.18212	0.62698	-1.77886	0.10324	1.62574	-0.5017	1.3603196481	-9.8129654826	0.3050848815	0.008399396994999999	0.013591751500999998	-0.010842857938999997	0.14268	1.12636	-1.1402800000000002	11.29728	-2.3536	13.65088	0.9952578337034295	33.375
70221	7403745	0	170	-1357	50	3	91	53	314	1081	-3067	179	-1370	29	59	5	-90	178	2803	-865	432	-160	352	33.22	0.9906439674315322	33.53	0.9997730076486552	4449.47802734375	-7309.845703125	38.0	6.713195323944092	3	0.0	0.0	0.0	0.0	-0.0139855697306877	0.0	0.0	0.0419691943609838	0.0	0.0	0.0	0.0	12	44.8246337890625	-73.16409505208334	1.220339526	-9.7411808046	0.35892339	1.2849457362	-9.834500886	0.2081755662	0.000916297854	0.027794368237999998	0.016187928754	0.018020524462	0.0015271630899999999	-0.02748893562	0.18212	0.62698	-1.77886	0.10324	1.62574	-0.5017	1.2526426311	-9.7878408453	0.2835494781	0.009468411158	0.014660765663999998	-0.005650503433	0.14268	1.12636	-1.1402800000000002	12.70944	-4.7072	10.35584	0.9952084875400937	33.375
70222	7403850	0	169	-1353	33	-15	95	64	306	1070	-3036	175	-1368	6	49	0	-83	183	2827	-880	448	-16	400	33.21	0.990574882802862	33.54	0.9996348383913152	4449.47802734375	-7309.845703125	38.0	6.730920314788818	3	0.0	0.0	0.0	0.0	-0.0055473529925785	0.0	0.0	0.042400657452366	0.0	0.0	0.0	0.0	12	44.8246337890625	-73.16409505208334	1.2131610582	-9.7124669334	0.2368894374	1.256231865	-9.8201439504	0.0430708068	-0.00458148927	0.029016098709999997	0.019547687552	0.014966198282	0.0	-0.025350907293999997	0.17748	0.6206	-1.76088	0.10614	1.6396600000000001	-0.5104	1.2346964616	-9.7663054419	0.1399801221	0.005192354506	0.014508049354999998	-0.002901609870999999	0.14181	1.13013	-1.13564	13.18016	-0.47072	11.768	0.9951048605970886	33.375
70223	7403955	0	181	-1354	9	-21	90	76	306	1070	-3036	191	-1370	-15	36	-3	-76	183	2827	-880	416	-112	480	33.22	0.9905847520355292	33.53	0.9997828768813224	4449.47802734375	-7309.845703125	38.0	6.713195323944092	3	0.0	0.0	0.0	0.0	-0.0549280801975064	0.0	0.0	-0.0167563060274732	0.0	0.0	0.0	0.0	12	44.8246337890625	-73.16409505208334	1.2993026718	-9.719645401200001	0.0646062102	1.3710873498	-9.834500886	-0.107677017	-0.006414084978	0.02748893562	0.023212878968	0.010995574248	-0.000916297854	-0.023212878968	0.17748	0.6206	-1.76088	0.10614	1.6396600000000001	-0.5104	1.3351950108000001	-9.777073143600001	-0.0215354034	0.002290744635	0.013286318883	0.0	0.14181	1.13013	-1.13564	12.23872	-3.29504	14.1216	0.9951838144584257	33.375
70224	7404061	0	192	-1356	14	-48	119	74	315	1079	-3049	200	-1374	0	24	19	-75	169	2796	-884	400	-224	432	33.21	0.9904663212435232	33.52	0.999388107574636	4449.47802734375	-7309.845703125	38.0	6.713195323944092	3	0.0	0.0	0.0	0.0	0.0466043679761859	0.0	0.0	0.0868275686875958	0.0	0.0	0.0	0.0	12	44.8246337890625	-73.16409505208334	1.3782658176	-9.7340023368	0.10049854920000001	1.43569356	-9.8632147572	0.0	-0.014660765664	0.036346481542	0.022602013732	0.007330382832	0.005803219742	-0.02290744635	0.1827	0.62582	-1.76842	0.09802	1.62168	-0.51272	1.4069796888	-9.798608547	0.050249274600000005	-0.003665191416	0.021074850642	-0.00015271630899999986	0.14035999999999998	1.12375	-1.14057	11.768	-6.59008	12.70944	0.9949272144090796	33.365
70225	7404166	0	204	-1356	27	-53	120	63	315	1079	-3049	214	-1364	7	10	17	-93	169	2796	-884	448	-128	448	33.22	0.990693313594868	33.53	0.9995558845299778	4449.47802734375	-7309.845703125	38.0	6.704333305358887	3	0.0	0.0	0.0	0.0	0.1888340998257719	0.0	0.0	0.220987246365974	0.0	0.0	0.0	0.0	12	44.8246337890625	-73.16409505208334	1.4644074312000002	-9.7340023368	0.1938186306	1.5361921092000002	-9.7914300792	0.050249274600000005	-0.016187928754	0.03665191416	0.019242254934	0.0030543261799999997	0.005192354505999999	-0.028405233473999997	0.1827	0.62582	-1.76842	0.09802	1.62168	-0.51272	1.5002997702000003	-9.762716208	0.12203395260000001	-0.006566801286999999	0.020922134333	-0.004581489269999999	0.14035999999999998	1.12375	-1.14057	13.18016	-3.76576	13.18016	0.9951245990624229	33.375
70226	7404272	0	195	-1352	40	-44	137	42	292	1101	-3089	206	-1374	14	13	45	-98	170	2806	-839	416	-80	416	33.2	0.9904959289415248	33.52	0.9995361460646436	4449.47802734375	-7309.845703125	38.0	6.713195323944092	3	0.0	0.0	0.0	0.0	0.3214621918442312	0.0	0.0	0.333095261582052	0.0	0.0	0.0	0.0	12	44.8246337890625	-73.16409505208334	1.3998012210000002	-9.7052884656	0.287138712	1.4787643668000001	-9.8632147572	0.10049854920000001	-0.013439035192	0.041844268665999995	0.012828169956	0.003970624034	0.01374446781	-0.029932396564	0.16936	0.63858	-1.79162	0.09860000000000001	1.62748	-0.48662	1.4392827939000001	-9.7842516114	0.1938186306	-0.004734205579	0.027794368237999998	-0.008552113303999999	0.13398000000000002	1.13303	-1.13912	12.23872	-2.3536	12.23872	0.9950160375030842	33.36
70227	7404377	0	189	-1360	44	-23	135	36	292	1101	-3089	192	-1371	16	41	46	-109	170	2806	-839	368	-96	512	33.21	0.9906242289661978	33.52	0.9995953614606464	4449.47802734375	-7309.845703125	38.0	6.722057819366455	3	0.0	0.0	0.0	0.0	0.3845072836758126	0.0	0.0	0.3566548856316541	0.0	0.0	0.0	0.0	12	44.8246337890625	-73.16409505208334	1.3567304142	-9.762716208	0.31585258320000004	1.3782658176	-9.8416793538	0.1148554848	-0.0070249502139999994	0.041233403429999996	0.010995574248	0.012522737337999999	0.014049900427999999	-0.033292155361999996	0.16936	0.63858	-1.79162	0.09860000000000001	1.62748	-0.48662	1.3674981159000001	-9.8021977809	0.21535403400000003	0.0027488935619999996	0.027641651928999998	-0.011148290556999998	0.13398000000000002	1.13303	-1.13912	10.82656	-2.82432	15.06304	0.9951097952134221	33.365
70228	7404482	0	176	-1354	35	-6	87	54	308	1077	-3067	185	-1373	9	39	13	-103	158	2831	-866	416	-208	512	33.23	0.9907722674562052	33.53	0.9997137922526524	4449.47802734375	-7309.845703125	38.0	6.722057819366455	3	0.0	0.0	0.0	0.0	0.4551285168126739	0.0	0.0	0.3849825110000933	0.0	0.0	0.0	0.0	12	44.8246337890625	-73.16409505208334	1.2634103328000001	-9.719645401200001	0.251246373	1.3280165430000002	-9.8560362894	0.0646062102	-0.001832595708	0.026572637766	0.016493361372	0.011911872102	0.003970624034	-0.031459559654	0.17864	0.62466	-1.77886	0.09164	1.64198	-0.50228	1.2957134379000002	-9.7878408453	0.15792629160000002	0.005039638197	0.0152716309	-0.007483099141	0.13513999999999998	1.1333199999999999	-1.14057	12.23872	-6.11936	15.06304	0.9952430298544288	33.379999999999995
70229	7404588	0	175	-1361	30	19	81	68	308	1077	-3067	186	-1366	11	78	-13	-78	158	2831	-866	416	-176	432	33.22	0.9905354058721936	33.51	0.9994769306686404	4449.47802734375	-7309.845703125	38.0	6.722057819366455	3	0.0	0.0	0.0	0.0	0.4703504115034411	0.0	0.0	0.3590757534325904	0.0	0.0	0.0	0.0	12	44.8246337890625	-73.16409505208334	1.256231865	-9.7698946758	0.215354034	1.3351950108000001	-9.8057870148	0.07896314580000001	0.005803219742	0.024740042057999997	0.020769418023999998	0.023823744204	-0.003970624034	-0.023823744204	0.17864	0.62466	-1.77886	0.09164	1.64198	-0.50228	1.2957134379	-9.7878408453	0.1471585899	0.014813481973	0.010384709011999999	-0.0015271630900000003	0.13513999999999998	1.1333199999999999	-1.14057	12.23872	-5.17792	12.70944	0.995006168270417	33.364999999999995
70230	7404693	0	184	-1352	26	-3	96	83	313	1079	-3085	199	-1371	4	76	-9	-51	160	2823	-852	480	-96	480	33.22	0.990693313594868	33.53	0.9996150999259809	4449.47802734375	-7309.845703125	38.09999847412109	6.739782333374023	3	0.0	0.0	0.0	0.0	0.4550779633858407	0.0	0.0	0.2997425362951658	0.0	0.0	0.0	0.0	12	44.8246337890625	-73.16409505208334	1.3208380752	-9.7052884656	0.1866401628	1.4285150922	-9.8416793538	0.0287138712	-0.000916297854	0.029321531328	0.025350907293999997	0.023212878968	-0.002748893562	-0.015577063518	0.18154	0.62582	-1.7893000000000001	0.0928	1.63734	-0.49416	1.3746765837	-9.773483909700001	0.107677017	0.011148290557	0.013286318883	0.004886921887999999	0.13717000000000001	1.13158	-1.1417300000000001	14.1216	-2.82432	14.1216	0.9951542067604244	33.375
70231	7404798	0	190	-1356	23	-27	122	81	317	1086	-3095	202	-1374	4	54	34	-71	160	2823	-852	464	-208	416	33.2	0.9904959289415248	33.52	0.9997631384159882	4449.47802734375	-7309.845703125	38.09999847412109	6.704333305358887	3	0.0	0.0	0.0	0.0	0.3665468442479035	0.0	0.0	0.1761718872918767	0.0	0.0	0.0	0.0	12	44.8246337890625	-73.16409505208334	1.363908882	-9.7340023368	0.1651047594	1.4500504956	-9.8632147572	0.0287138712	-0.008246680686	0.037262779396	0.024740042057999997	0.016493361372	0.010384709011999999	-0.021685715878	0.18386	0.62988	-1.7951	0.0928	1.63734	-0.49416	1.4069796888	-9.798608547	0.09690931529999999	0.004123340343	0.023823744204	0.0015271630899999986	0.13833	1.13361	-1.14463	13.65088	-6.11936	12.23872	0.9951295336787565	33.36
70232	7404904	0	187	-1353	30	-50	95	36	317	1086	-3095	192	-1370	9	5	9	-111	177	2829	-840	416	-64	496	33.21	0.9907821366888724	33.51	0.9995262768319764	4449.47802734375	-7309.845703125	38.09999847412109	6.713195323944092	3	0.0	0.0	0.0	0.0	0.2977434507787163	0.0	0.0	0.0834773716302483	0.0	0.0	0.0	0.0	12	44.8246337890625	-73.16409505208334	1.3423734786000001	-9.7124669334	0.215354034	1.3782658176	-9.834500886	0.0646062102	-0.0152716309	0.029016098709999997	0.010995574248	0.0015271630899999999	0.002748893562	-0.033903020597999996	0.18386	0.62988	-1.7951	0.10266	1.64082	-0.4872	1.3603196481	-9.773483909700001	0.1399801221	-0.006872233905	0.015882496136	-0.011453723174999998	0.14326	1.1353499999999999	-1.1411499999999999	12.23872	-1.88288	14.59232	0.9951542067604244	33.36
70233	7405009	0	184	-1358	41	-23	92	37	304	1083	-3061	192	-1373	11	37	9	-113	177	2829	-840	464	-176	384	33.22	0.9905354058721936	33.51	0.9994769306686404	4449.47802734375	-7309.845703125	38.09999847412109	6.722057819366455	3	0.0	0.0	0.0	0.0	0.2951805140393187	0.0	0.0	0.0685846675688628	0.0	0.0	0.0	0.0	12	44.8246337890625	-73.16409505208334	1.3208380752	-9.7483592724	0.2943171798	1.3782658176	-9.8560362894	0.07896314580000001	-0.0070249502139999994	0.028099800855999998	0.011301006866	0.011301006866	0.002748893562	-0.034513885833999995	0.17632	0.62814	-1.77538	0.10266	1.64082	-0.4872	1.3495519464	-9.8021977809	0.1866401628	0.002138028326	0.015424347209	-0.011606439483999998	0.13949	1.13448	-1.13129	13.65088	-5.17792	11.29728	0.995006168270417	33.364999999999995
70234	7405115	0	175	-1357	47	-25	42	37	304	1083	-3061	184	-1370	19	52	-24	-116	197	2824	-862	400	-64	496	33.2	0.9907130520602024	33.52	0.9995361460646436	4449.47802734375	-7309.845703125	38.09999847412109	6.713195323944092	3	0.0	0.0	0.0	0.0	0.2831412224049078	0.0	0.0	0.0458443490160642	0.0	0.0	0.0	0.0	12	44.8246337890625	-73.16409505208334	1.256231865	-9.7411808046	0.3373879866	1.3208380752	-9.834500886	0.1363908882	-0.00763581545	0.012828169956	0.011301006866	0.015882496136	-0.007330382832	-0.035430183688	0.17632	0.62814	-1.77538	0.11426	1.63792	-0.49996	1.2885349701	-9.7878408453	0.2368894374	0.004123340343	0.002748893562	-0.012064588411	0.14529	1.13303	-1.13767	11.768	-1.88288	14.59232	0.995124599062423	33.36
70235	7405220	0	166	-1355	45	-4	64	57	315	1103	-3068	174	-1372	11	65	-31	-83	197	2824	-862	416	-256	352	33.21	0.9906242289661978	33.53	0.9997730076486552	4449.47802734375	-7309.845703125	38.09999847412109	6.713195323944092	3	0.0	0.0	0.0	0.0	0.2316115166816463	0.0	0.0	-0.0150912136391626	0.0	0.0	0.0	0.0	12	44.8246337890625	-73.16409505208334	1.1916256548000002	-9.726823869	0.323031051	1.2490533972	-9.848857821600001	0.07896314580000001	-0.001221730472	0.019547687552	0.017409659225999997	0.01985312017	-0.009468411158	-0.025350907293999997	0.1827	0.63974	-1.77944	0.11426	1.63792	-0.49996	1.220339526	-9.7878408453	0.20099709840000002	0.009315694849	0.005039638197	-0.003970624034	0.14848	1.13883	-1.1397	12.23872	-7.53152	10.35584	0.9951986183074265	33.370000000000005
70236	7405325	0	175	-1357	29	-9	66	71	315	1103	-3068	178	-1368	5	48	-24	-77	174	2815	-844	448	-192	464	33.21	0.9906242289661978	33.54	0.9995854922279792	4449.47802734375	-7309.845703125	38.09999847412109	6.730920314788818	3	0.0	0.0	0.0	0.0	0.2282550512841834	0.0	0.0	-0.0194561135698336	0.0	0.0	0.0	0.0	12	44.8246337890625	-73.16409505208334	1.256231865	-9.7411808046	0.2081755662	1.2777672684	-9.8201439504	0.035892339	-0.002748893562	0.020158552788	0.021685715878	0.014660765664	-0.007330382832	-0.023518311586	0.1827	0.63974	-1.77944	0.10092	1.6327	-0.48952	1.2669995667	-9.7806623775	0.1220339526	0.005955936051	0.006414084977999999	-0.0009162978539999991	0.14181	1.13622	-1.13448	13.18016	-5.64864	13.65088	0.9951048605970885	33.375
70237	7405431	0	186	-1355	23	-27	96	77	308	1100	-3052	201	-1366	3	50	25	-64	174	2815	-844	448	-128	432	33.22	0.990634098198865	33.53	0.9996150999259809	4449.47802734375	-7309.845703125	38.09999847412109	6.730920314788818	3	0.0	0.0	0.0	0.0	0.2558828067791284	0.0	0.0	0.0075382188010068	0.0	0.0	0.0	0.0	12	44.8246337890625	-73.16409505208334	1.3351950108000001	-9.726823869	0.1651047594	1.4428720278	-9.8057870148	0.0215354034	-0.008246680686	0.029321531328	0.023518311586	0.0152716309	0.00763581545	-0.019547687552	0.17864	0.638	-1.77016	0.10092	1.6327	-0.48952	1.3890335193	-9.7663054419	0.0933200814	0.003512475107	0.018478673389	0.001985312017	0.13978	1.13535	-1.12984	13.18016	-3.76576	12.70944	0.9951245990624229	33.375
70238	7405536	0	188	-1356	28	-58	125	65	308	1100	-3052	195	-1377	6	22	36	-87	187	2837	-875	432	-160	368	33.2	0.9906538366641994	33.51	0.9994769306686404	4449.47802734375	-7309.845703125	38.09999847412109	6.713195323944092	3	0.0	0.0	0.0	0.0	0.2009242553080217	0.0	0.0	-0.0527355233765793	0.0	0.0	0.0	0.0	12	44.8246337890625	-73.16409505208334	1.3495519464	-9.7340023368	0.20099709840000002	1.3998012210000002	-9.884750160600001	0.0430708068	-0.017715091844	0.03817907725	0.01985312017	0.006719517596	0.010995574248	-0.026572637766	0.17864	0.638	-1.77016	0.10846	1.64546	-0.5075	1.3746765837000001	-9.809376248700001	0.12203395260000001	-0.005497787124	0.024587325749	-0.0033597587980000003	0.14355	1.14173	-1.13883	12.70944	-4.7072	10.82656	0.9950653836664198	33.355000000000004
70239	7405642	0	202	-1355	26	-62	74	40	304	1090	-3043	214	-1375	5	-8	-18	-111	187	2837	-875	448	-64	512	33.2	0.9906143597335308	33.52	0.9995953614606464	4449.47802734375	-7309.845703125	38.09999847412109	6.730920314788818	3	0.0	0.0	0.0	0.0	0.1608498409864827	0.0	0.0	-0.0893067516836029	0.0	0.0	0.0	0.0	12	44.8246337890625	-73.16409505208334	1.4500504956	-9.726823869	0.1866401628	1.5361921092000002	-9.870393225	0.035892339	-0.018936822316	0.022602013732	0.012217304719999999	-0.002443460944	-0.005497787124	-0.033903020597999996	0.17632	0.6322	-1.76494	0.10846	1.64546	-0.5075	1.4931213024	-9.798608547	0.1112662509	-0.01069014163	0.008552113303999999	-0.010842857938999998	0.14239000000000002	1.13883	-1.13622	13.18016	-1.88288	15.06304	0.9951048605970887	33.36
70240	7405747	0	202	-1355	25	-38	133	39	304	1090	-3043	219	-1367	5	34	29	-112	169	2818	-897	416	-96	448	33.19	0.9907920059215396	33.51	0.9994177152726376	4449.47802734375	-7309.845703125	38.09999847412109	6.713195323944092	3	0.0	0.0	0.0	0.0	0.1908187209960619	0.0	0.0	-0.0501827495632498	0.0	0.0	0.0	0.0	12	44.8246337890625	-73.16409505208334	1.4500504956	-9.726823869	0.179461695	1.5720844482	-9.812965482600001	0.035892339	-0.011606439484	0.040622538193999996	0.011911872102	0.010384709011999999	0.008857545922	-0.034208453215999995	0.17632	0.6322	-1.76494	0.09802	1.6344400000000001	-0.5202600000000001	1.5110674719000001	-9.7698946758	0.107677017	-0.0006108652360000003	0.024740042057999997	-0.011148290556999998	0.13717000000000001	1.13332	-1.1426	12.23872	-2.82432	13.18016	0.9951048605970886	33.349999999999994
70241	7405852	0	191	-1352	35	-5	97	26	304	1094	-3072	203	-1365	7	59	12	-119	169	2818	-897	400	-144	432	33.21	0.9906242289661978	33.52	0.999753269183321	4449.47802734375	-7309.845703125	38.09999847412109	6.713195323944092	3	0.0	0.0	0.0	0.0	0.2376787457498335	0.0	0.0	-0.0019647633205377	0.0	0.0	0.0	0.0	12	44.8246337890625	-73.16409505208334	1.3710873498	-9.7052884656	0.251246373	1.4572289634	-9.798608547	0.050249274600000005	-0.0015271630899999999	0.029626963946	0.007941248068	0.018020524462	0.003665191416	-0.036346481542	0.17632	0.63452	-1.78176	0.09802	1.6344400000000001	-0.5202600000000001	1.4141581566	-9.7519485063	0.1507478238	0.008246680686000001	0.016646077681	-0.014202616737	0.13717000000000001	1.13448	-1.15101	11.768	-4.23648	12.70944	0.9951887490747594	33.365
70242	7405958	0	181	-1352	32	-4	153	60	304	1094	-3072	193	-1369	5	66	51	-84	162	2805	-851	384	-144	384	33.2	0.9905551443375278	33.53	0.9996644460893166	4449.47802734375	-7309.845703125	38.09999847412109	6.730920314788818	3	0.0	0.0	0.0	0.0	0.27333386930083	0.0	0.0	0.0322189320983808	0.0	0.0	0.0	0.0	12	44.8246337890625	-73.16409505208334	1.2993026718	-9.7052884656	0.2297109696	1.3854442854	-9.8273224182	0.035892339	-0.001221730472	0.046731190554	0.01832595708	0.020158552788	0.015577063518	-0.025656339912	0.17632	0.63452	-1.78176	0.09396	1.6269	-0.49358	1.3423734786	-9.7663054419	0.13280165430000002	0.009468411158	0.031154127036	-0.003665191416	0.13514	1.13071	-1.13767	11.29728	-4.23648	11.29728	0.9951097952134222	33.365
70243	7406063	0	173	-1354	38	-13	89	72	322	1113	-3053	173	-1370	13	47	2	-75	162	2805	-851	416	-128	576	33.22	0.9905354058721936	33.53	0.999881569207994	4449.47802734375	-7309.845703125	38.09999847412109	6.704333305358887	3	0.0	0.0	0.0	0.0	0.2005639801757975	0.0	0.0	-0.0492792734568285	0.0	0.0	0.0	0.0	12	44.8246337890625	-73.16409505208334	1.2418749294	-9.719645401200001	0.2727817764	1.2418749294	-9.834500886	0.0933200814	-0.003970624034	0.027183503002	0.021991148496	0.014355333045999999	0.000610865236	-0.02290744635	0.18676	0.64554	-1.77074	0.09396	1.6269	-0.49358	1.2418749294	-9.777073143600001	0.18305092890000002	0.005192354505999999	0.013897184118999999	-0.00045814892699999957	0.14036	1.13622	-1.13216	12.23872	-3.76576	16.94592	0.9952084875400937	33.375
70244	7406169	0	164	-1358	33	-27	83	91	322	1113	-3053	172	-1370	12	38	3	-64	176	2834	-847	384	-112	336	33.22	0.990634098198865	33.53	0.9998322230446582	4449.47802734375	-7309.845703125	38.09999847412109	6.713195323944092	3	0.0	0.0	0.0	0.0	0.1632661250419003	0.0	0.0	-0.0859043169835033	0.0	0.0	0.0	0.0	12	44.8246337890625	-73.16409505208334	1.1772687192	-9.7483592724	0.2368894374	1.2346964616	-9.834500886	0.0861416136	-0.008246680686	0.025350907293999997	0.027794368237999998	0.011606439484	0.000916297854	-0.019547687552	0.18676	0.64554	-1.77074	0.10208	1.64372	-0.49126000000000003	1.2059825904	-9.791430079200001	0.1615155255	0.0016798793990000001	0.013133602573999998	0.004123340343	0.14442	1.14463	-1.131	11.29728	-3.29504	9.88512	0.9952331606217617	33.375
70245	7406274	0	187	-1357	30	-35	118	104	319	1102	-3089	192	-1370	7	17	25	-47	176	2834	-847	368	-224	384	33.2	0.990762398223538	33.51	0.9995262768319764	4449.47802734375	-7309.845703125	38.09999847412109	6.722057819366455	3	0.0	0.0	0.0	0.0	0.0813831311552309	0.0	0.0	-0.1630867755158391	0.0	0.0	0.0	0.0	12	44.8246337890625	-73.16409505208334	1.3423734786000001	-9.7411808046	0.215354034	1.3782658176	-9.834500886	0.050249274600000005	-0.010690141629999999	0.036041048924	0.031764992272	0.005192354505999999	0.00763581545	-0.014355333045999999	0.18502	0.63916	-1.79162	0.10208	1.64372	-0.49126000000000003	1.3603196481	-9.7878408453	0.13280165430000002	-0.0027488935619999996	0.021838432187	0.008704829612999999	0.14355	1.14144	-1.14144	10.82656	-6.59008	11.29728	0.9951443375277571	33.355000000000004
70246	7406379	0	203	-1355	37	-35	104	73	319	1102	-3089	214	-1367	10	40	14	-73	180	2812	-841	352	-96	416	33.21	0.9906735751295336	33.51	0.9994769306686404	4449.47802734375	-7309.845703125	38.09999847412109	6.713195323944092	3	0.0	0.0	0.0	0.0	0.0129749694478643	0.0	0.0	-0.2147958118142356	0.0	0.0	0.0	0.0	12	44.8246337890625	-73.16409505208334	1.4572289634	-9.726823869	0.26560330860000003	1.5361921092000002	-9.812965482600001	0.071784678	-0.010690141629999999	0.031764992272	0.022296581114	0.012217304719999999	0.004276056651999999	-0.022296581114	0.18502	0.63916	-1.79162	0.1044	1.63096	-0.48778	1.4967105363000002	-9.7698946758	0.1686939933	0.0007635815450000001	0.018020524461999997	0.0	0.14471	1.13506	-1.1397	10.35584	-2.82432	12.23872	0.9950752528990869	33.36
70247	7406485	0	198	-1357	29	-29	110	33	334	1131	-3062	214	-1368	5	37	23	-105	180	2812	-841	416	-128	512	33.19	0.9907327905255366	33.52	0.9995953614606464	4449.47802734375	-7309.845703125	38.09999847412109	6.730920314788818	3	0.0	0.0	0.0	0.0	-0.0285865697397419	0.0	0.0	-0.2392755945301173	0.0	0.0	0.0	0.0	12	44.8246337890625	-73.16409505208334	1.4213366244	-9.7411808046	0.2081755662	1.5361921092000002	-9.8201439504	0.035892339	-0.008857545922	0.033597587979999996	0.010079276394	0.011301006866	0.0070249502139999994	-0.03207042489	0.19372	0.65598	-1.77596	0.1044	1.63096	-0.48778	1.4787643668000001	-9.7806623775	0.1220339526	0.0012217304719999997	0.020311269096999998	-0.010995574248	0.14906	1.14347	-1.13187	12.23872	-3.76576	15.06304	0.9951640759930915	33.355000000000004
70248	7406590	0	199	-1348	13	-33	100	23	325	1093	-3065	210	-1370	3	29	13	-128	201	2824	-857	432	-192	464	33.21	0.9906242289661978	33.52	0.9995361460646436	4449.47802734375	-7309.845703125	38.09999847412109	6.730920314788818	3	0.0	0.0	0.0	0.0	-0.118832745940449	0.0	0.0	-0.3081215470022958	0.0	0.0	0.0	0.0	12	44.8246337890625	-73.16409505208334	1.4285150922	-9.6765745944	0.0933200814	1.507478238	-9.834500886	0.0215354034	-0.010079276394	0.0305432618	0.0070249502139999994	0.008857545922	0.003970624034	-0.039095375104	0.1885	0.6339400000000001	-1.7777	0.11658	1.63792	-0.49706	1.4679966651	-9.755537740200001	0.0574277424	-0.0006108652359999994	0.017256942917	-0.016035212445	0.15254	1.13593	-1.13738	12.70944	-5.64864	13.65088	0.9950801875154207	33.365
70249	7406696	0	181	-1354	32	-3	72	52	325	1093	-3065	188	-1371	10	45	-1	-85	201	2824	-857	464	-128	384	33.21	0.9907821366888724	33.53	0.9996150999259809	4449.47802734375	-7309.845703125	38.09999847412109	6.695470809936523	3	0.0	0.0	0.0	0.0	-0.0324825952006499	0.0	0.0	-0.1911923701660628	0.0	0.0	0.0	0.0	12	44.8246337890625	-73.16409505208334	1.2993026718	-9.719645401200001	0.2297109696	1.3495519464	-9.8416793538	0.071784678	-0.000916297854	0.021991148496	0.015882496136	0.01374446781	-0.000305432618	-0.02596177253	0.1885	0.6339400000000001	-1.7777	0.11658	1.63792	-0.49706	1.3244273091	-9.7806623775	0.1507478238	0.006414084977999999	0.010842857939	-0.0050396381970000004	0.15254	1.13593	-1.13738	13.65088	-3.76576	11.29728	0.9951986183074266	33.370000000000005
70250	7406801	0	186	-1357	21	-8	60	68	300	1105	-3045	190	-1371	11	36	-16	-68	181	2830	-862	416	-96	464	33.22	0.990693313594868	33.53	0.9997137922526524	4449.47802734375	-7309.845703125	38.09999847412109	6.713195323944092	3	0.0	0.0	0.0	0.0	0.0104610026919377	0.0	0.0	-0.1298261534790091	0.0	0.0	0.0	0.0	12	44.8246337890625	-73.16409505208334	1.3351950108000001	-9.7411808046	0.1507478238	1.363908882	-9.8416793538	0.07896314580000001	-0.002443460944	0.01832595708	0.020769418023999998	0.010995574248	-0.004886921888	-0.020769418023999998	0.174	0.6409	-1.7661	0.10498	1.6414	-0.49996	1.3495519464	-9.791430079200001	0.11485548480000002	0.004276056652	0.006719517596000001	0.0	0.13949	1.14115	-1.13303	12.23872	-2.82432	13.65088	0.9952035529237602	33.375
70251	7406906	0	189	-1354	17	-18	153	89	300	1105	-3045	193	-1373	-3	17	40	-58	181	2830	-862	400	-64	400	33.21	0.990574882802862	33.51	0.9995262768319764	4449.47802734375	-7309.845703125	38.09999847412109	6.730920314788818	3	0.0	0.0	0.0	0.0	0.0685107631981289	0.0	0.0	-0.0578348810791303	0.0	0.0	0.0	0.0	12	44.8246337890625	-73.16409505208334	1.3567304142	-9.719645401200001	0.12203395260000001	1.3854442854	-9.8560362894	-0.0215354034	-0.005497787124	0.046731190554	0.027183503002	0.005192354505999999	0.012217304719999999	-0.017715091844	0.174	0.6409	-1.7661	0.10498	1.6414	-0.49996	1.3710873498	-9.7878408453	0.050249274600000005	-0.0001527163090000003	0.029474247636999996	0.004734205578999999	0.13949	1.14115	-1.13303	11.768	-1.88288	11.768	0.9950505798174192	33.36
70252	7407012	0	199	-1348	20	-35	124	67	311	1090	-3045	207	-1369	1	29	21	-72	166	2831	-859	400	-208	464	33.21	0.9906242289661978	33.51	0.9997927461139896	4449.47802734375	-7309.845703125	38.09999847412109	6.722057819366455	3	0.0	0.0	0.0	0.0	0.0961296415276045	0.0	0.0	-0.0290223448643576	0.0	0.0	0.0	0.0	12	44.8246337890625	-73.16409505208334	1.4285150922	-9.6765745944	0.143569356	1.4859428346	-9.8273224182	0.0071784678	-0.010690141629999999	0.037873644632	0.020463985405999998	0.008857545922	0.006414084978	-0.021991148496	0.18038	0.6322	-1.7661	0.09628	1.64198	-0.49822	1.4572289634	-9.7519485063	0.0753739119	-0.0009162978539999991	0.022143864805	-0.000763581545000001	0.13833	1.13709	-1.13216	11.768	-6.11936	13.65088	0.9952084875400937	33.36
70253	7407117	0	206	-1354	30	-31	124	40	311	1090	-3045	210	-1375	5	14	20	-93	166	2831	-859	432	-96	512	33.21	0.9906735751295336	33.51	0.999624969158648	4449.478515625	-7309.845703125	38.29999923706055	6.713195323944092	3	0.0	0.0	0.0	0.0	0.1679624833937817	0.0	0.0	0.0438848811774197	0.0	0.0	0.0	0.0	12	44.824641927083334	-73.16409505208334	1.4787643668000001	-9.719645401200001	0.215354034	1.507478238	-9.870393225	0.035892339	-0.009468411158	0.037873644632	0.012217304719999999	0.004276056651999999	0.0061086523599999994	-0.028405233473999997	0.18038	0.6322	-1.7661	0.09628	1.64198	-0.49822	1.4931213024	-9.795019313100001	0.1256231865	-0.002596177253	0.021991148496	-0.008093964377	0.13833	1.13709	-1.13216	12.70944	-2.82432	15.06304	0.9951492721440908	33.36
70254	7407222	0	185	-1360	32	-34	103	39	312	1104	-3062	198	-1375	7	38	20	-109	187	2793	-871	416	-48	448	33.2	0.9905946212681964	33.52	0.9994867999013076	4449.478515625	-7309.845703125	38.29999923706055	6.739782333374023	3	0.0	0.0	0.0	0.0	0.1627930665289488	0.0	0.0	0.0313292517734429	0.0	0.0	0.0	0.0	12	44.824641927083334	-73.16409505208334	1.3280165430000002	-9.762716208	0.2297109696	1.4213366244	-9.870393225	0.050249274600000005	-0.010384709011999999	0.031459559654	0.011911872102	0.011606439484	0.0061086523599999994	-0.033292155361999996	0.18096	0.64032	-1.77596	0.10846	1.61994	-0.50518	1.3746765837000001	-9.8165547165	0.1399801221	0.0006108652360000003	0.018784106007	-0.010690141629999999	0.14471	1.1301299999999999	-1.1405699999999999	12.23872	-1.41216	13.18016	0.9950407105847521	33.36
70255	7407328	0	167	-1356	32	-33	106	37	312	1104	-3062	180	-1369	6	60	-1	-110	187	2793	-871	368	-160	400	33.2	0.9906044905008636	33.51	0.9997927461139896	4449.478515625	-7309.845703125	38.29999923706055	6.722057819366455	3	0.0	0.0	0.0	0.0	0.1858013786622515	0.0	0.0	0.0462349826034989	0.0	0.0	0.0	0.0	12	44.824641927083334	-73.16409505208334	1.1988041226000001	-9.7340023368	0.2297109696	1.292124204	-9.8273224182	0.0430708068	-0.010079276394	0.032375857508	0.011301006866	0.01832595708	-0.000305432618	-0.033597587979999996	0.18096	0.64032	-1.77596	0.10846	1.61994	-0.50518	1.2454641633	-9.7806623775	0.1363908882	0.0041233403430000004	0.016035212445	-0.011148290556999998	0.14471	1.1301299999999999	-1.1405699999999999	10.82656	-4.7072	11.768	0.9951986183074266	33.355000000000004
70256	7407433	0	166	-1353	31	-21	96	67	322	1104	-3062	174	-1372	7	49	8	-79	182	2802	-867	448	-240	464	33.23	0.9906538366641994	33.51	0.9997335307179868	4449.478515625	-7309.845703125	38.29999923706055	6.713195323944092	3	0.0	0.0	0.0	0.0	0.1524878097132128	0.0	0.0	0.0069330492645379	0.0	0.0	0.0	0.0	12	44.824641927083334	-73.16409505208334	1.1916256548000002	-9.7124669334	0.2225325018	1.2490533972	-9.848857821600001	0.050249274600000005	-0.006414084978	0.029321531328	0.020463985405999998	0.014966198282	0.002443460944	-0.024129176821999998	0.18676	0.64032	-1.77596	0.10556	1.62516	-0.50286	1.220339526	-9.7806623775	0.1363908882	0.004276056651999999	0.015882496136	-0.001832595708	0.14616	1.13274	-1.13941	13.18016	-7.0608	13.65088	0.9951936836910931	33.37
70257	7407539	0	173	-1356	26	-10	100	79	322	1104	-3062	180	-1371	4	38	-1	-62	175	2823	-850	416	-112	432	33.21	0.9907920059215396	33.53	0.9997730076486552	4449.478515625	-7309.845703125	38.29999923706055	6.713195323944092	3	0.0	0.0	0.0	0.0	0.1509936771679345	0.0	0.0	-0.0022921229905733	0.0	0.0	0.0	0.0	12	44.824641927083334	-73.16409505208334	1.2418749294	-9.7340023368	0.1866401628	1.292124204	-9.8416793538	0.0287138712	-0.0030543261799999997	0.0305432618	0.024129176821999998	0.011606439484	-0.000305432618	-0.018936822316	0.18676	0.64032	-1.77596	0.1015	1.63734	-0.493	1.2669995667	-9.7878408453	0.107677017	0.004276056651999999	0.015118914591	0.0025961772529999993	0.14413	1.13883	-1.13448	12.23872	-3.29504	12.70944	0.9952825067850974	33.370000000000005
70258	7407644	0	202	-1351	22	-27	115	77	318	1090	-3080	207	-1369	4	44	26	-68	175	2823	-850	384	-112	432	33.21	0.9907229212928694	33.53	0.9995558845299778	4449.478515625	-7309.845703125	38.29999923706055	6.722057819366455	3	0.0	0.0	0.0	0.0	0.1082930435050641	0.0	0.0	-0.0488235501587155	0.0	0.0	0.0	0.0	12	44.824641927083334	-73.16409505208334	1.4500504956	-9.6981099978	0.15792629160000002	1.4859428346	-9.8273224182	0.0287138712	-0.008246680686	0.035124751069999995	0.023518311586	0.013439035192	0.007941248068	-0.020769418023999998	0.18444	0.6322	-1.7864	0.1015	1.63734	-0.493	1.4679966651	-9.762716208	0.0933200814	0.002596177253	0.021532999568999997	0.0013744467810000004	0.14296999999999999	1.13477	-1.1397	11.29728	-3.29504	12.70944	0.9951394029114236	33.370000000000005
70259	7407749	0	198	-1357	39	-32	139	62	318	1090	-3080	208	-1371	10	51	63	-73	199	2819	-852	480	-160	432	33.2	0.9906538366641994	33.51	0.9997236614853195	4449.478515625	-7309.845703125	38.29999923706055	6.713195323944092	3	0.0	0.0	0.0	0.0	0.0978741770145283	0.0	0.0	-0.0572571106512834	0.0	0.0	0.0	0.0	12	44.824641927083334	-73.16409505208334	1.4213366244	-9.7411808046	0.2799602442	1.4931213024	-9.8416793538	0.071784678	-0.009773843776	0.042455133901999995	0.018936822316	0.015577063518	0.019242254934	-0.022296581114	0.18444	0.6322	-1.7864	0.11542	1.63502	-0.49416	1.4572289634	-9.791430079200001	0.1758724611	0.002901609871	0.030848694418	-0.0016798793990000001	0.14993	1.13361	-1.14028	14.1216	-4.7072	12.70944	0.9951887490747595	33.355000000000004
70260	7407855	0	207	-1354	34	-25	10	32	323	1099	-3069	207	-1364	9	37	-86	-113	199	2819	-852	464	-128	416	33.21	0.9907327905255366	33.51	0.9997927461139896	4449.478515625	-7309.845703125	38.29999923706055	6.713195323944092	3	0.0	0.0	0.0	0.0	0.0384310908755278	0.0	0.0	-0.1166827779329581	0.0	0.0	0.0	0.0	12	44.824641927083334	-73.16409505208334	1.4859428346	-9.719645401200001	0.24406790520000002	1.4859428346	-9.7914300792	0.0646062102	-0.00763581545	0.0030543261799999997	0.009773843776	0.011301006866	-0.026267205148	-0.034513885833999995	0.18734	0.63742	-1.78002	0.11542	1.63502	-0.49416	1.4859428346	-9.755537740200001	0.1543370577	0.001832595708	-0.011606439484	-0.012370021028999999	0.15138000000000001	1.13622	-1.13709	13.65088	-3.76576	12.23872	0.9952627683197631	33.36
70261	7407960	0	192	-1357	31	-30	96	51	323	1099	-3069	195	-1372	6	51	19	-103	195	2817	-840	384	-128	432	33.2	0.9906538366641994	33.52	0.9996052306933136	4449.478515625	-7309.845703125	38.29999923706055	6.713195323944092	3	0.0	0.0	0.0	0.0	-0.0492438859920404	0.0	0.0	-0.1962542462062174	0.0	0.0	0.0	0.0	12	44.824641927083334	-73.16409505208334	1.3782658176	-9.7411808046	0.2225325018	1.3998012210000002	-9.848857821600001	0.0430708068	-0.00916297854	0.029321531328	0.015577063518	0.015577063518	0.005803219742	-0.031459559654	0.18734	0.63742	-1.78002	0.1131	1.63386	-0.4872	1.3890335193	-9.795019313100001	0.13280165430000002	0.0032070424889999996	0.017562375535	-0.007941248068	0.15022000000000002	1.13564	-1.13361	11.29728	-3.76576	12.70944	0.9951295336787565	33.36
70262	7408066	0	178	-1358	30	-11	117	55	322	1108	-3060	184	-1373	6	50	24	-89	195	2817	-840	416	-144	496	33.2	0.9906044905008636	33.52	0.9998026153466568	4449.478515625	-7309.845703125	38.29999923706055	6.713195323944092	3	0.0	0.0	0.0	0.0	-0.0291251858126806	0.0	0.0	-0.159634403572808	0.0	0.0	0.0	0.0	12	44.824641927083334	-73.16409505208334	1.2777672684	-9.7483592724	0.215354034	1.3208380752	-9.8560362894	0.0430708068	-0.003359758798	0.035735616306	0.016798793989999998	0.0152716309	0.007330382832	-0.027183503002	0.18676	0.64264	-1.7748	0.1131	1.63386	-0.4872	1.2993026718	-9.8021977809	0.1292124204	0.005955936051	0.021532999569	-0.005192354506	0.14993	1.13825	-1.131	12.23872	-4.23648	14.59232	0.9952035529237602	33.36
70263	7408171	0	185	-1353	17	-9	124	76	322	1108	-3060	194	-1364	3	54	26	-74	184	2839	-871	496	-128	416	33.19	0.9906834443622008	33.52	0.9996052306933136	4449.478515625	-7309.845703125	38.29999923706055	6.722057819366455	3	0.0	0.0	0.0	0.0	-0.0896858894157667	0.0	0.0	-0.2077695518635122	0.0	0.0	0.0	0.0	12	44.824641927083334	-73.16409505208334	1.3280165430000002	-9.7124669334	0.12203395260000001	1.3926227532	-9.7914300792	0.0215354034	-0.002748893562	0.037873644632	0.023212878968	0.016493361372	0.007941248068	-0.022602013732	0.18676	0.64264	-1.7748	0.10672	1.64662	-0.50518	1.3603196481	-9.7519485063	0.071784678	0.006872233904999999	0.02290744635	0.0003054326179999997	0.14674	1.14463	-1.13999	14.59232	-3.76576	12.23872	0.9951443375277572	33.355000000000004
70264	7408276	0	182	-1357	28	-22	140	79	283	1078	-3059	193	-1373	7	33	51	-63	184	2839	-871	432	-160	448	33.2	0.9905946212681964	33.53	0.9993979768073032	4449.478515625	-7309.845703125	38.29999923706055	6.722057819366455	3	0.0	0.0	0.0	0.0	-0.0696855968376668	0.0	0.0	-0.167156686462555	0.0	0.0	0.0	0.0	12	44.824641927083334	-73.16409505208334	1.3064811396	-9.7411808046	0.20099709840000002	1.3854442854	-9.8560362894	0.050249274600000005	-0.006719517596	0.042760566519999994	0.024129176821999998	0.010079276394	0.015577063518	-0.019242254934	0.16414	0.62524	-1.77422	0.10672	1.64662	-0.50518	1.3459627125	-9.798608547	0.1256231865	0.0016798793989999997	0.029168815018999997	0.0024434609439999994	0.13543	1.13593	-1.1397	12.70944	-4.7072	13.18016	0.9949962990377499	33.365
70265	7408382	0	197	-1353	28	-39	83	67	299	1078	-3091	201	-1371	4	17	-7	-72	194	2819	-879	432	-128	352	33.21	0.9906834443622008	33.52	0.9994275845053048	4449.478515625	-7309.845703125	38.29999923706055	6.730920314788818	3	0.0	0.0	0.0	0.0	0.0059701742205107	0.0	0.0	-0.0735140422009497	0.0	0.0	0.0	0.0	12	44.824641927083334	-73.16409505208334	1.4141581566	-9.7124669334	0.20099709840000002	1.4428720278	-9.8416793538	0.0287138712	-0.011911872102	0.025350907293999997	0.020463985405999998	0.005192354505999999	-0.0021380283259999997	-0.021991148496	0.17342	0.62524	-1.79278	0.11252	1.63502	-0.50982	1.4285150922	-9.7770731436	0.1148554848	-0.003359758798	0.011606439484	-0.000763581545000001	0.14296999999999999	1.1301299999999999	-1.1513	12.70944	-3.76576	10.35584	0.9950555144337527	33.365
70266	7408487	0	192	-1350	33	-26	76	49	299	1078	-3091	199	-1369	11	33	-14	-97	194	2819	-879	448	-160	400	33.2	0.9905946212681964	33.53	0.999624969158648	4449.478515625	-7309.845703125	38.29999923706055	6.722057819366455	3	0.0	0.0	0.0	0.0	0.0816257357507664	0.0	0.0	0.010537702073143	0.0	0.0	0.0	0.0	12	44.824641927083334	-73.16409505208334	1.3782658176	-9.69093153	0.2368894374	1.4285150922	-9.8273224182	0.07896314580000001	-0.007941248068	0.023212878968	0.014966198282	0.010079276394	-0.004276056651999999	-0.029626963946	0.17342	0.62524	-1.79278	0.11252	1.63502	-0.50982	1.4033904549	-9.759126974099999	0.15792629160000002	0.0010690141629999999	0.009468411158	-0.007330382832	0.14296999999999999	1.1301299999999999	-1.1513	13.18016	-4.7072	11.768	0.9951097952134222	33.365
70267	7408593	0	182	-1349	31	-17	100	36	323	1102	-3089	194	-1365	10	46	14	-110	187	2814	-858	432	-176	432	33.2	0.990762398223538	33.52	0.9994867999013076	4449.478515625	-7309.845703125	38.29999923706055	6.730920314788818	3	0.0	0.0	0.0	0.0	0.0531469583747592	0.0	0.0	-0.0202705110008247	0.0	0.0	0.0	0.0	12	44.824641927083334	-73.16409505208334	1.3064811396	-9.683753062200001	0.2225325018	1.3926227532	-9.798608547	0.071784678	-0.005192354505999999	0.0305432618	0.010995574248	0.014049900427999999	0.004276056651999999	-0.033597587979999996	0.18734	0.63916	-1.79162	0.10846	1.63212	-0.49764	1.3495519464	-9.7411808046	0.1471585899	0.004428772960999999	0.017409659225999997	-0.011301006865999998	0.1479	1.13564	-1.14463	12.70944	-5.17792	12.70944	0.9951245990624228	33.36
70268	7408698	0	174	-1358	33	-18	122	41	323	1102	-3089	187	-1369	15	34	24	-96	187	2814	-858	384	-96	416	33.21	0.9906834443622008	33.52	0.999753269183321	4449.478515625	-7309.845703125	38.29999923706055	6.713195323944092	3	0.0	0.0	0.0	0.0	0.0491455464158211	0.0	0.0	-0.0297111435043318	0.0	0.0	0.0	0.0	12	44.824641927083334	-73.16409505208334	1.2490533972	-9.7483592724	0.2368894374	1.3423734786000001	-9.8273224182	0.107677017	-0.005497787124	0.037262779396	0.012522737337999999	0.010384709011999999	0.007330382832	-0.029321531328	0.18734	0.63916	-1.79162	0.10846	1.63212	-0.49764	1.2957134379	-9.7878408453	0.1722832272	0.0024434609439999994	0.022296581114	-0.008399396995	0.1479	1.13564	-1.14463	11.29728	-2.82432	12.23872	0.9952183567727608	33.365
70269	7408803	0	173	-1356	43	-14	88	66	330	1073	-3070	183	-1367	17	50	-1	-85	192	2812	-867	464	-112	512	33.2	0.9906143597335308	33.52	0.999812484579324	4449.478515625	-7309.845703125	38.29999923706055	6.713195323944092	3	0.0	0.0	0.0	0.0	0.060472408178297	0.0	0.0	-0.0187797441695657	0.0	0.0	0.0	0.0	12	44.824641927083334	-73.16409505208334	1.2418749294	-9.7340023368	0.3086741154	1.3136596074	-9.812965482600001	0.12203395260000001	-0.004276056651999999	0.026878070384	0.020158552788	0.0152716309	-0.000305432618	-0.02596177253	0.19140000000000001	0.62234	-1.7806	0.11136	1.63096	-0.50286	1.2777672683999999	-9.773483909700001	0.215354034	0.005497787124	0.013286318883	-0.0029016098710000007	0.15138000000000001	1.12665	-1.14173	13.65088	-3.29504	15.06304	0.9952134221564275	33.36
70270	7408909	0	181	-1352	34	-12	86	86	330	1073	-3070	193	-1376	4	51	2	-63	192	2812	-867	496	-176	448	33.2	0.9905946212681964	33.51	0.999575622995312	4449.478515625	-7309.845703125	38.29999923706055	6.722057819366455	3	0.0	0.0	0.0	0.0	0.0996326482124204	0.0	0.0	0.0218221279950344	0.0	0.0	0.0	0.0	12	44.824641927083334	-73.16409505208334	1.2993026718	-9.7052884656	0.24406790520000002	1.3854442854	-9.8775716928	0.0287138712	-0.003665191416	0.026267205148	0.026267205148	0.015577063518	0.000610865236	-0.019242254934	0.19140000000000001	0.62234	-1.7806	0.11136	1.63096	-0.50286	1.3423734786	-9.791430079200001	0.1363908882	0.005955936051	0.013439035192	0.003512475107	0.15138000000000001	1.12665	-1.14173	14.59232	-5.17792	13.18016	0.9950851221317543	33.355000000000004
70271	7409014	0	196	-1355	26	-20	62	79	314	1077	-3057	205	-1370	8	41	-20	-66	192	2780	-835	416	-224	432	33.21	0.9905650135701948	33.51	0.9995262768319764	4449.478515625	-7309.845703125	38.29999923706055	6.713195323944092	3	0.0	0.0	0.0	0.0	0.181353213605072	0.0	0.0	0.1024906968348306	0.0	0.0	0.0	0.0	12	44.824641927083334	-73.16409505208334	1.4069796888000001	-9.726823869	0.1866401628	1.4715858990000001	-9.834500886	0.0574277424	-0.0061086523599999994	0.018936822316	0.024129176821999998	0.012522737337999999	-0.0061086523599999994	-0.020158552788	0.18212	0.62466	-1.77306	0.11136	1.6124	-0.4843	1.4392827939000001	-9.7806623775	0.12203395260000001	0.0032070424889999996	0.006414084978	0.001985312017	0.14674	1.11853	-1.1286800000000001	12.23872	-6.59008	12.70944	0.9950456452010856	33.36
70272	7409119	0	205	-1354	25	-22	90	54	314	1077	-3057	222	-1371	5	34	3	-91	192	2780	-835	400	-144	448	33.19	0.9906834443622008	33.52	0.9996545768566494	4449.478515625	-7309.845703125	38.29999923706055	6.704333305358887	3	0.0	0.0	0.0	0.0	0.0912486292504153	0.0	0.0	-0.0048124603524997	0.0	0.0	0.0	0.0	12	44.824641927083334	-73.16409505208334	1.4715858990000001	-9.719645401200001	0.179461695	1.5936198516	-9.8416793538	0.035892339	-0.006719517596	0.02748893562	0.016493361372	0.010384709011999999	0.000916297854	-0.027794368237999998	0.18212	0.62466	-1.77306	0.11136	1.6124	-0.4843	1.5326028753	-9.7806623775	0.107677017	0.0018325957079999996	0.014202616736999999	-0.005650503433	0.14674	1.11853	-1.1286800000000001	11.768	-4.23648	13.18016	0.9951690106094251	33.355000000000004
70273	7409224	0	195	-1361	26	-26	96	42	316	1079	-3056	197	-1376	5	17	15	-121	187	2841	-845	384	-160	448	33.18	0.9906735751295336	33.51	0.999506538366642	4449.478515625	-7309.845703125	38.29999923706055	6.713195323944092	3	0.0	0.0	0.0	0.0	0.1975322217050587	0.0	0.0	0.1009848794851479	0.0	0.0	0.0	0.0	12	44.824641927083334	-73.16409505208334	1.3998012210000002	-9.7698946758	0.1866401628	1.4141581566	-9.8775716928	0.035892339	-0.007941248068	0.029321531328	0.012828169956	0.005192354505999999	0.00458148927	-0.036957346778	0.18328	0.62582	-1.77248	0.10846	1.64778	-0.4901	1.4069796888000001	-9.8237331843	0.1112662509	-0.001374446781	0.016951510299	-0.012064588410999999	0.14587	1.1368	-1.13129	11.29728	-4.7072	13.18016	0.9950900567480878	33.345
70274	7409329	0	177	-1357	30	-26	146	36	316	1079	-3056	185	-1375	7	34	45	-112	187	2841	-845	368	-192	400	33.21	0.9904564520108562	33.51	0.9997927461139896	4449.478515625	-7309.845703125	38.29999923706055	6.722057819366455	3	0.0	0.0	0.0	0.0	0.1798096492623894	0.0	0.0	0.0676711132418498	0.0	0.0	0.0	0.0	12	44.824641927083334	-73.16409505208334	1.2705888006000001	-9.7411808046	0.215354034	1.3280165430000002	-9.870393225	0.050249274600000005	-0.007941248068	0.044593162228	0.010995574248	0.010384709011999999	0.01374446781	-0.034208453215999995	0.18328	0.62582	-1.77248	0.10846	1.64778	-0.4901	1.2993026718	-9.8057870148	0.13280165430000002	0.0012217304719999997	0.029168815019	-0.011606439483999998	0.14587	1.1368	-1.13129	10.82656	-5.64864	11.768	0.9951245990624229	33.36
70275	7409435	0	165	-1358	42	-22	163	70	305	1081	-3038	169	-1376	9	32	79	-77	172	2821	-888	432	-128	384	33.2	0.9906044905008636	33.51	0.9995262768319764	4449.478515625	-7309.845703125	38.29999923706055	6.739782333374023	3	0.0	0.0	0.0	0.0	0.1241599145146715	0.0	0.0	0.0032308982141367	0.0	0.0	0.0	0.0	12	44.824641927083334	-73.16409505208334	1.184447187	-9.7483592724	0.3014956476	1.2131610582	-9.8775716928	0.0646062102	-0.006719517596	0.049785516733999995	0.021380283259999997	0.009773843776	0.024129176821999998	-0.023518311586	0.1769	0.62698	-1.76204	0.09976	1.63618	-0.51504	1.1988041226	-9.8129654826	0.18305092890000002	0.0015271630899999999	0.036957346778	-0.0010690141630000007	0.13833	1.13158	-1.13854	12.70944	-3.76576	11.29728	0.9950653836664201	33.355000000000004
70276	7409540	0	169	-1359	38	-34	85	71	305	1081	-3038	177	-1368	7	38	-10	-71	172	2821	-888	496	-192	464	33.18	0.9907229212928694	33.53	0.999447322970639	4449.478515625	-7309.845703125	38.29999923706055	6.730920314788818	3	0.0	0.0	0.0	0.0	0.1618906761575572	0.0	0.0	0.0402590135409619	0.0	0.0	0.0	0.0	12	44.824641927083334	-73.16409505208334	1.2131610582	-9.755537740200001	0.2727817764	1.2705888006000001	-9.8201439504	0.050249274600000005	-0.010384709011999999	0.02596177253	0.021685715878	0.011606439484	-0.0030543261799999997	-0.021685715878	0.1769	0.62698	-1.76204	0.09976	1.63618	-0.51504	1.2418749294000002	-9.7878408453	0.1615155255	0.0006108652360000003	0.011453723175	0.0	0.13833	1.13158	-1.13854	14.59232	-5.64864	13.65088	0.9950851221317543	33.355000000000004
70277	7409645	0	194	-1355	31	-16	104	71	291	1080	-3067	191	-1373	9	41	15	-68	181	2804	-838	448	-160	480	33.2	0.9906143597335308	33.53	0.9995262768319764	4449.478515625	-7309.845703125	38.29999923706055	6.730920314788818	3	0.0	0.0	0.0	0.0	0.2651352012477477	0.0	0.0	0.1407424068324766	0.0	0.0	0.0	0.0	12	44.824641927083334	-73.16409505208334	1.3926227532	-9.726823869	0.2225325018	1.3710873498	-9.8560362894	0.0646062102	-0.004886921888	0.031764992272	0.021685715878	0.012522737337999999	0.00458148927	-0.020769418023999998	0.16878	0.6264	-1.77886	0.10498	1.62632	-0.48604	1.3818550515	-9.791430079200001	0.143569356	0.0038179077249999994	0.018173240771	0.0004581489270000013	0.13688	1.12636	-1.13245	13.18016	-4.7072	14.1216	0.9950703182827536	33.365
70278	7409751	0	194	-1355	28	-19	108	54	291	1080	-3067	199	-1369	6	35	9	-96	181	2804	-838	368	-64	464	33.21	0.9906242289661978	33.51	0.9997927461139896	4449.478515625	-7309.845703125	38.400001525878906	6.713195323944092	3	0.0	0.0	0.0	0.0	0.1641726668839153	0.0	0.0	0.0182331357996323	0.0	0.0	0.0	0.0	12	44.824641927083334	-73.16409505208334	1.3926227532	-9.726823869	0.20099709840000002	1.4285150922	-9.8273224182	0.0430708068	-0.005803219742	0.032986722744	0.016493361372	0.010690141629999999	0.002748893562	-0.029321531328	0.16878	0.6264	-1.77886	0.10498	1.62632	-0.48604	1.4105689227	-9.7770731436	0.12203395260000001	0.0024434609439999994	0.017867808152999997	-0.006414084978000001	0.13688	1.12636	-1.13245	10.82656	-1.88288	13.65088	0.9952084875400937	33.36
70279	7409856	0	182	-1355	27	-24	118	46	315	1085	-3056	187	-1371	7	37	8	-112	188	2834	-868	320	-80	416	33.2	0.9906538366641994	33.51	0.9996348383913152	4449.478515625	-7309.845703125	38.400001525878906	6.722057819366455	3	0.0	0.0	0.0	0.0	0.1892185151076023	0.0	0.0	0.0368897692915752	0.0	0.0	0.0	0.0	12	44.824641927083334	-73.16409505208334	1.3064811396	-9.726823869	0.1938186306	1.3423734786000001	-9.8416793538	0.050249274600000005	-0.007330382832	0.036041048924	0.014049900427999999	0.011301006866	0.002443460944	-0.034208453215999995	0.1827	0.6293	-1.77248	0.10904	1.64372	-0.50344	1.3244273091	-9.7842516114	0.12203395260000001	0.001985312017	0.019242254934	-0.010079276393999997	0.14587	1.13651	-1.13796	9.4144	-2.3536	12.23872	0.9951443375277573	33.355000000000004
70280	7409962	0	173	-1360	35	-33	52	45	315	1085	-3056	179	-1371	6	41	-35	-102	188	2834	-868	432	-160	464	33.2	0.9905452751048606	33.5	0.9996644460893166	4449.478515625	-7309.845703125	38.400001525878906	6.722057819366455	3	0.0	0.0	0.0	0.0	0.1680653231043275	0.0	0.0	0.01115970192869	0.0	0.0	0.0	0.0	12	44.824641927083334	-73.16409505208334	1.2418749294	-9.762716208	0.251246373	1.2849457362	-9.8416793538	0.0430708068	-0.010079276394	0.015882496136	0.01374446781	0.012522737337999999	-0.010690141629999999	-0.031154127036	0.1827	0.6293	-1.77248	0.10904	1.64372	-0.50344	1.2634103328	-9.8021977809	0.14715858990000003	0.0012217304719999997	0.002596177253	-0.008704829612999999	0.14587	1.13651	-1.13796	12.70944	-4.7072	13.65088	0.9951048605970886	33.35
70281	7410067	0	173	-1355	40	-25	89	75	297	1085	-3073	181	-1375	16	26	-7	-78	169	2812	-876	544	-48	416	33.2	0.9907130520602024	33.49	0.9994177152726376	4449.478515625	-7309.845703125	38.400001525878906	6.713195323944092	3	0.0	0.0	0.0	0.0	0.1534176537124126	0.0	0.0	-0.0043110118216834	0.0	0.0	0.0	0.0	12	44.824641927083334	-73.16409505208334	1.2418749294	-9.726823869	0.287138712	1.2993026718	-9.870393225	0.1148554848	-0.00763581545	0.027183503002	0.02290744635	0.007941248068	-0.0021380283259999997	-0.023823744204	0.17226	0.6293	-1.78234	0.09802	1.63096	-0.50808	1.2705888006000001	-9.798608547	0.20099709840000002	0.00015271630899999986	0.012522737337999999	-0.00045814892699999957	0.13513999999999998	1.1301299999999999	-1.14521	16.00448	-1.41216	12.23872	0.9950653836664201	33.345
70282	7410172	0	181	-1352	41	-41	65	86	313	1074	-3057	192	-1368	19	35	-21	-71	169	2812	-876	368	-144	400	33.2	0.9906637058968664	33.5	0.9995558845299778	4449.478515625	-7309.845703125	38.400001525878906	6.713195323944092	3	0.0	0.0	0.0	0.0	0.1931022873839535	0.0	0.0	0.0327022862759432	0.0	0.0	0.0	0.0	12	44.824641927083334	-73.16409505208334	1.2993026718	-9.7052884656	0.2943171798	1.3782658176	-9.8201439504	0.1363908882	-0.012522737337999999	0.01985312017	0.026267205148	0.010690141629999999	-0.006414084978	-0.021685715878	0.18154	0.62292	-1.77306	0.09802	1.63096	-0.50808	1.3387842447	-9.762716208	0.215354034	-0.000916297854	0.006719517595999999	0.0022907446349999996	0.13978000000000002	1.12694	-1.14057	10.82656	-4.23648	11.768	0.995109795213422	33.35
70283	7410278	0	205	-1356	42	-7	44	83	313	1074	-3057	206	-1368	19	59	-31	-54	174	2830	-871	480	-64	352	33.2	0.9905946212681964	33.48	0.999506538366642	4449.478515625	-7309.845703125	38.400001525878906	6.713195323944092	3	0.0	0.0	0.0	0.0	0.0474136877639181	0.0	0.0	-0.1227189548821812	0.0	0.0	0.0	0.0	12	44.824641927083334	-73.16409505208334	1.4715858990000001	-9.7340023368	0.3014956476	1.4787643668000001	-9.8201439504	0.1363908882	-0.0021380283259999997	0.013439035192	0.025350907293999997	0.018020524462	-0.009468411158	-0.016493361372	0.18154	0.62292	-1.77306	0.10092	1.6414	-0.50518	1.4751751329	-9.7770731436	0.21894326790000002	0.007941248068	0.001985312017	0.004428772960999999	0.14123	1.13216	-1.1391200000000001	14.1216	-1.88288	10.35584	0.9950505798174192	33.34
70284	7410383	0	209	-1358	33	10	66	71	288	1070	-3053	218	-1372	12	79	-20	-74	174	2830	-871	352	-96	512	33.19	0.9907920059215396	33.49	0.9995854922279792	4449.478515625	-7309.845703125	38.400001525878906	6.722057819366455	3	0.0	0.0	0.0	0.0	-0.0134937866930495	0.0	0.0	-0.1755916351184557	0.0	0.0	0.0	0.0	12	44.824641927083334	-73.16409505208334	1.5002997702	-9.7483592724	0.2368894374	1.5649059804	-9.848857821600001	0.0861416136	0.0030543261799999997	0.020158552788	0.021685715878	0.024129176821999998	-0.0061086523599999994	-0.022602013732	0.16704	0.6206	-1.77074	0.10092	1.6414	-0.50518	1.5326028753	-9.798608547	0.1615155255	0.013591751501	0.0070249502139999994	-0.00045814892699999957	0.13398	1.131	-1.13796	10.35584	-2.82432	15.06304	0.9951887490747594	33.34
70285	7410489	0	203	-1355	30	4	74	46	288	1070	-3053	213	-1369	5	49	-18	-106	185	2812	-837	400	-128	432	33.19	0.990634098198865	33.48	0.9996052306933136	4449.478515625	-7309.845703125	38.400001525878906	6.722057819366455	3	0.0	0.0	0.0	0.0	0.0002375516297696	0.0	0.0	-0.1461331431930322	0.0	0.0	0.0	0.0	12	44.824641927083334	-73.16409505208334	1.4572289634	-9.726823869	0.215354034	1.5290136414	-9.8273224182	0.035892339	0.001221730472	0.022602013732	0.014049900427999999	0.014966198282	-0.005497787124	-0.032375857508	0.16704	0.6206	-1.77074	0.1073	1.63096	-0.48546	1.4931213024	-9.7770731436	0.1256231865	0.008093964377	0.008552113303999999	-0.009162978539999998	0.13717000000000001	1.12578	-1.1280999999999999	11.768	-3.76576	12.70944	0.9951196644460893	33.334999999999994
70286	7410594	0	192	-1353	27	1	89	32	278	1058	-3045	198	-1374	9	73	-4	-114	185	2812	-837	480	-144	480	33.19	0.9908413520848754	33.48	0.9994571922033062	4449.478515625	-7309.845703125	38.400001525878906	6.722057819366455	3	0.0	0.0	0.0	0.0	0.0525097862819184	0.0	0.0	-0.0787585131018163	0.0	0.0	0.0	0.0	12	44.824641927083334	-73.16409505208334	1.3782658176	-9.7124669334	0.1938186306	1.4213366244	-9.8632147572	0.0646062102	0.000305432618	0.027183503002	0.009773843776	0.022296581114	-0.001221730472	-0.034819318451999995	0.16124	0.61364	-1.7661	0.1073	1.63096	-0.48546	1.3998012210000002	-9.7878408453	0.1292124204	0.011301006866	0.012980886265	-0.012522737337999999	0.13427	1.1223	-1.12578	14.1216	-4.23648	14.1216	0.9951492721440909	33.334999999999994
70287	7410699	0	180	-1357	21	-11	95	48	278	1058	-3045	186	-1369	4	52	7	-100	157	2832	-860	432	-128	464	33.21	0.9906834443622008	33.46	0.9995262768319764	4449.478515625	-7309.845703125	38.400001525878906	6.713195323944092	3	0.0	0.0	0.0	0.0	0.0658367272325134	0.0	0.0	-0.059048373018155	0.0	0.0	0.0	0.0	12	44.824641927083334	-73.16409505208334	1.292124204	-9.7411808046	0.1507478238	1.3351950108000001	-9.8273224182	0.0287138712	-0.003359758798	0.029016098709999997	0.014660765664	0.015882496136	0.0021380283259999997	-0.0305432618	0.16124	0.61364	-1.7661	0.09106	1.64256	-0.4988	1.3136596074	-9.7842516114	0.0897308475	0.006261368668999999	0.015577063518	-0.007941248068	0.12614999999999998	1.1280999999999999	-1.13245	12.70944	-3.76576	13.65088	0.9951048605970886	33.335
70288	7410805	0	167	-1351	42	-7	92	93	304	1084	-3048	178	-1370	12	48	9	-64	157	2832	-860	416	-208	496	33.2	0.9905946212681964	33.46	0.9996743153219836	4449.478515625	-7309.845703125	38.400001525878906	6.722057819366455	3	0.0	0.0	0.0	0.0	0.038345991939646	0.0	0.0	-0.0824261556904144	0.0	0.0	0.0	0.0	12	44.824641927083334	-73.16409505208334	1.1988041226000001	-9.6981099978	0.3014956476	1.2777672684	-9.834500886	0.0861416136	-0.0021380283259999997	0.028099800855999998	0.028405233473999997	0.014660765664	0.002748893562	-0.019547687552	0.17632	0.6287200000000001	-1.76784	0.09106	1.64256	-0.4988	1.2382856955000001	-9.7663054419	0.1938186306	0.006261368669	0.015424347209	0.004428772960999999	0.13369	1.13564	-1.13332	12.23872	-6.11936	14.59232	0.99513446829509	33.33
70289	7410910	0	177	-1359	41	-22	58	88	304	1084	-3048	192	-1374	20	36	-28	-63	176	2812	-826	336	-128	448	33.2	0.9906538366641994	33.48	0.9995164075993092	4449.478515625	-7309.845703125	38.400001525878906	6.730920314788818	3	0.0	0.0	0.0	0.0	0.1049735983918906	0.0	0.0	-0.0080227155891306	0.0	0.0	0.0	0.0	12	44.824641927083334	-73.16409505208334	1.2705888006000001	-9.755537740200001	0.2943171798	1.3782658176	-9.8632147572	0.143569356	-0.006719517596	0.017715091844	0.026878070384	0.010995574248	-0.008552113303999999	-0.019242254934	0.17632	0.6287200000000001	-1.76784	0.10208	1.63096	-0.47908	1.3244273091	-9.809376248700001	0.21894326790000002	0.002138028326	0.004581489270000001	0.003817907725	0.1392	1.12984	-1.1234600000000001	9.88512	-3.76576	13.18016	0.9950851221317543	33.34
70290	7411016	0	194	-1358	39	-36	96	57	304	1076	-3080	203	-1366	11	28	9	-83	176	2812	-826	352	-32	512	33.18	0.9904071058475205	33.48	0.9996150999259809	4449.478515625	-7309.845703125	38.400001525878906	6.722057819366455	3	0.0	0.0	0.0	0.0	0.1753596549020777	0.0	0.0	0.0667297386835916	0.0	0.0	0.0	0.0	12	44.824641927083334	-73.16409505208334	1.3926227532	-9.7483592724	0.2799602442	1.4572289634	-9.8057870148	0.07896314580000001	-0.010995574248	0.029321531328	0.017409659225999997	0.008552113303999999	0.002748893562	-0.025350907293999997	0.17632	0.62408	-1.7864	0.10208	1.63096	-0.47908	1.4249258583	-9.7770731436	0.179461695	-0.0012217304720000006	0.016035212445	-0.003970624034	0.1392	1.12752	-1.13274	10.35584	-0.94144	15.06304	0.9950111028867507	33.33
70291	7411121	0	194	-1356	28	-34	153	29	304	1076	-3080	202	-1370	3	34	71	-115	187	2812	-871	352	-160	384	33.2	0.9908216136195412	33.48	0.9997335307179868	4449.478515625	-7309.845703125	38.400001525878906	6.713195323944092	3	0.0	0.0	0.0	0.0	0.1471725896838223	0.0	0.0	0.0264603567056495	0.0	0.0	0.0	0.0	12	44.824641927083334	-73.16409505208334	1.3926227532	-9.7340023368	0.20099709840000002	1.4500504956	-9.834500886	0.0215354034	-0.010384709011999999	0.046731190554	0.008857545922	0.010384709011999999	0.021685715878	-0.035124751069999995	0.17632	0.62408	-1.7864	0.10846	1.63096	-0.50518	1.4213366243999999	-9.7842516114	0.1112662509	0.0	0.034208453215999995	-0.013133602573999998	0.14239000000000002	1.12752	-1.1457899999999999	10.35584	-4.7072	11.29728	0.995277572168764	33.34
70292	7411226	0	176	-1351	14	-24	129	25	305	1106	-3072	184	-1373	2	27	35	-123	187	2812	-871	448	-160	384	33.2	0.9906538366641994	33.46	0.9996841845546508	4449.478515625	-7309.845703125	38.400001525878906	6.713195323944092	3	0.0	0.0	0.0	0.0	0.0588867193716287	0.0	0.0	-0.0685505691961115	0.0	0.0	0.0	0.0	12	44.824641927083334	-73.16409505208334	1.2634103328000001	-9.6981099978	0.10049854920000001	1.3208380752	-9.8560362894	0.0143569356	-0.007330382832	0.039400807722	0.00763581545	0.008246680686	0.010690141629999999	-0.037568212014	0.1769	0.64148	-1.78176	0.10846	1.63096	-0.50518	1.292124204	-9.7770731436	0.0574277424	0.00045814892699999957	0.025045474675999997	-0.014966198282	0.14268	1.13622	-1.14347	13.18016	-4.7072	11.29728	0.9951690106094251	33.33
70293	7411332	0	158	-1352	20	-13	141	41	305	1106	-3072	161	-1368	4	32	42	-97	180	2817	-836	416	-112	416	33.19	0.9906242289661978	33.48	0.999388107574636	4449.478515625	-7309.845703125	38.400001525878906	6.713195323944092	3	0.0	0.0	0.0	0.0	0.1511369575418209	0.0	0.0	0.0350105354014847	0.0	0.0	0.0	0.0	12	44.824641927083334	-73.16409505208334	1.1341979124000001	-9.7052884656	0.143569356	1.1557333158	-9.8201439504	0.0287138712	-0.003970624034	0.043065999138	0.012522737337999999	0.009773843776	0.012828169956	-0.029626963946	0.1769	0.64148	-1.78176	0.1044	1.63386	-0.48488	1.1449656141000002	-9.762716208	0.0861416136	0.002901609871	0.027947084547	-0.008552113304	0.14065	1.13767	-1.1333199999999999	12.23872	-3.29504	12.23872	0.995006168270417	33.334999999999994
70294	7411437	0	172	-1360	23	-13	30	79	308	1104	-3044	178	-1375	5	55	-44	-62	180	2817	-836	416	-160	416	33.2	0.9905551443375278	33.48	0.999575622995312	4449.478515625	-7309.845703125	38.400001525878906	6.730920314788818	3	0.0	0.0	0.0	0.0	0.2030153476596402	0.0	0.0	0.0824372959562138	0.0	0.0	0.0	0.0	12	44.824641927083334	-73.16409505208334	1.2346964616	-9.762716208	0.1651047594	1.2777672684	-9.870393225	0.035892339	-0.003970624034	0.00916297854	0.024129176821999998	0.016798793989999998	-0.013439035192	-0.018936822316	0.17864	0.64032	-1.76552	0.1044	1.63386	-0.48488	1.2562318650000002	-9.8165547165	0.1004985492	0.006414084977999999	-0.0021380283259999997	0.0025961772529999993	0.14152	1.1370900000000002	-1.1252	12.23872	-4.7072	12.23872	0.9950653836664198	33.34
70295	7411542	0	198	-1350	31	-18	34	110	308	1104	-3044	219	-1367	9	44	-58	-46	196	2823	-868	352	-144	464	33.2	0.990752528990871	33.48	0.9996743153219836	4449.478515625	-7309.845703125	38.400001525878906	6.713195323944092	3	0.0	0.0	0.0	0.0	0.1796162202321672	0.0	0.0	0.047967459660104	0.0	0.0	0.0	0.0	12	44.824641927083334	-73.16409505208334	1.4213366244	-9.69093153	0.2225325018	1.5720844482	-9.812965482600001	0.0646062102	-0.005497787124	0.010384709011999999	0.033597587979999996	0.013439035192	-0.017715091844	-0.014049900427999999	0.17864	0.64032	-1.76552	0.11368	1.63734	-0.50344	1.4967105363000002	-9.7519485063	0.143569356	0.003970624034	-0.003665191416000001	0.009773843775999998	0.14616	1.13883	-1.13448	10.35584	-4.23648	13.65088	0.9952134221564273	33.34
70296	7411648	0	208	-1360	46	3	66	97	314	1097	-3056	212	-1372	26	54	-25	-52	196	2823	-868	416	-160	480	33.19	0.9906834443622008	33.48	0.9997335307179868	4449.478515625	-7309.845703125	38.400001525878906	6.730920314788818	3	0.0	0.0	0.0	0.0	0.1080616893334746	0.0	0.0	-0.0337834137505072	0.0	0.0	0.0	0.0	12	44.824641927083334	-73.16409505208334	1.4931213024	-9.762716208	0.3302095188	1.5218351736	-9.848857821600001	0.1866401628	0.000916297854	0.020158552788	0.029626963946	0.016493361372	-0.00763581545	-0.015882496136	0.18212	0.63626	-1.77248	0.11368	1.63734	-0.50344	1.507478238	-9.8057870148	0.2584248408	0.008704829612999999	0.006261368668999999	0.0068722339050000004	0.1479	1.1368	-1.13796	12.23872	-4.7072	14.1216	0.9952084875400937	33.334999999999994
70297	7411753	0	197	-1358	36	-19	38	56	314	1097	-3056	204	-1373	10	48	-50	-89	182	2811	-849	496	-112	384	33.19	0.9906834443622008	33.5	0.999506538366642	4449.478515625	-7309.845703125	38.400001525878906	6.713195323944092	3	0.0	0.0	0.0	0.0	0.1417266631097592	0.0	0.0	0.0003734156665653	0.0	0.0	0.0	0.0	12	44.824641927083334	-73.16409505208334	1.4141581566	-9.7483592724	0.2584248408	1.4644074312000002	-9.8560362894	0.071784678	-0.005803219742	0.011606439484	0.017104226607999998	0.014660765664	-0.0152716309	-0.027183503002	0.18212	0.63626	-1.77248	0.10556	1.63038	-0.49242	1.4392827939000001	-9.8021977809	0.1651047594	0.004428772961	-0.001832595708	-0.0050396381970000004	0.14384	1.1333199999999999	-1.13245	14.59232	-3.29504	11.29728	0.9950949913644214	33.345
70298	7411859	0	191	-1357	37	-28	86	35	280	1120	-3045	196	-1374	14	45	-10	-109	178	2810	-888	352	-80	480	33.19	0.9906242289661978	33.51	0.999624969158648	4449.478515625	-7309.845703125	38.400001525878906	6.722057819366455	3	0.0	0.0	0.0	0.0	0.2578561285168301	0.0	0.0	0.1154434344324139	0.0	0.0	0.0	0.0	12	44.824641927083334	-73.16409505208334	1.3710873498	-9.7411808046	0.26560330860000003	1.4069796888000001	-9.8632147572	0.10049854920000001	-0.008552113303999999	0.026267205148	0.010690141629999999	0.01374446781	-0.0030543261799999997	-0.033292155361999996	0.1624	0.6496	-1.7661	0.10324	1.6298	-0.51504	1.3890335193	-9.8021977809	0.18305092890000002	0.002596177253	0.011606439484	-0.011301006866	0.13282	1.1397	-1.14057	10.35584	-2.3536	14.1216	0.9951245990624229	33.349999999999994
70299	7411964	0	173	-1358	19	-36	93	31	296	1098	-3052	188	-1375	4	25	-2	-114	178	2810	-888	368	-96	432	33.2	0.9905551443375278	33.49	0.999743399950654	4449.478515625	-7309.845703125	38.400001525878906	6.722057819366455	3	0.0	0.0	0.0	0.0	0.2965952652690006	0.0	0.0	0.1400804146807534	0.0	0.0	0.0	0.0	12	44.824641927083334	-73.16409505208334	1.2418749294	-9.7483592724	0.1363908882	1.3495519464	-9.870393225	0.0287138712	-0.010995574248	0.028405233473999997	0.009468411158	0.00763581545	-0.000610865236	-0.034819318451999995	0.17168	0.63684	-1.77016	0.10324	1.6298	-0.51504	1.2957134379	-9.809376248700001	0.0825523797	-0.0016798793990000001	0.013897184118999999	-0.012675453646999998	0.13746	1.1333199999999999	-1.1426	10.82656	-2.82432	12.70944	0.9951492721440909	33.345
70300	7412069	0	184	-1353	22	-31	126	71	296	1098	-3052	188	-1372	4	26	29	-71	174	2835	-868	480	-112	464	33.2	0.9905354058721936	33.5	0.9995460152973108	4449.478515625	-7309.845703125	38.400001525878906	6.713195323944092	3	0.0	0.0	0.0	0.0	0.3216271880160701	0.0	0.0	0.149734883271403	0.0	0.0	0.0	0.0	12	44.824641927083334	-73.16409505208334	1.3208380752	-9.7124669334	0.15792629160000002	1.3495519464	-9.848857821600001	0.0287138712	-0.009468411158	0.038484509868	0.021685715878	0.007941248068	0.008857545922	-0.021685715878	0.17168	0.63684	-1.77016	0.10092	1.6443	-0.50344	1.3351950108000001	-9.7806623775	0.0933200814	-0.0007635815450000001	0.023671027895	0.0	0.1363	1.14057	-1.1368	14.1216	-3.29504	13.65088	0.9950407105847522	33.35
70301	7412175	0	198	-1358	31	-35	87	89	284	1090	-3092	199	-1371	5	29	2	-57	174	2835	-868	368	-96	432	33.2	0.9906637058968664	33.49	0.9996348383913152	4449.478515625	-7309.845703125	38.400001525878906	6.713195323944092	3	0.0	0.0	0.0	0.0	0.3629614374006188	0.0	0.0	0.1728652740042325	0.0	0.0	0.0	0.0	12	44.824641927083334	-73.16409505208334	1.4213366244	-9.7483592724	0.2225325018	1.4285150922	-9.8416793538	0.035892339	-0.010690141629999999	0.026572637766	0.027183503002	0.008857545922	0.000610865236	-0.017409659225999997	0.16472	0.6322	-1.79336	0.10092	1.6443	-0.50344	1.4249258583	-9.7950193131	0.1292124204	-0.0009162978539999991	0.013591751501	0.004886921888000001	0.13282	1.13825	-1.1484	10.82656	-2.82432	12.70944	0.9951492721440908	33.345
70302	7412280	0	204	-1357	38	-22	19	77	284	1090	-3092	212	-1373	9	33	-65	-81	165	2828	-850	400	-192	480	33.21	0.9905650135701948	33.51	0.9996743153219836	4449.478515625	-7309.845703125	38.400001525878906	6.704333305358887	3	0.0	0.0	0.0	0.0	0.2975958760825812	0.0	0.0	0.0862372407432985	0.0	0.0	0.0	0.0	12	44.824641927083334	-73.16409505208334	1.4644074312000002	-9.7411808046	0.2727817764	1.5218351736	-9.8560362894	0.0646062102	-0.006719517596	0.005803219742	0.023518311586	0.010079276394	-0.01985312017	-0.024740042057999997	0.16472	0.6322	-1.79336	0.09570000000000001	1.64024	-0.493	1.4931213024	-9.798608547	0.1686939933	0.0016798793989999997	-0.0070249502139999994	-0.0006108652359999994	0.13021	1.13622	-1.14318	11.768	-5.64864	14.1216	0.9951196644460891	33.36
70303	7412386	0	207	-1351	45	-23	68	53	304	1112	-3056	216	-1370	9	58	-15	-99	165	2828	-850	384	-96	464	33.2	0.9908610905502098	33.5	0.9995460152973108	4449.478515625	-7309.845703125	38.400001525878906	6.722057819366455	3	0.0	0.0	0.0	0.0	0.3092113434368304	0.0	0.0	0.0849633797828313	0.0	0.0	0.0	0.0	12	44.824641927083334	-73.16409505208334	1.4859428346	-9.6981099978	0.323031051	1.5505490448	-9.834500886	0.0646062102	-0.0070249502139999994	0.020769418023999998	0.016187928754	0.017715091844	-0.00458148927	-0.030237829182	0.17632	0.64496	-1.77248	0.09570000000000001	1.64024	-0.493	1.5182459397	-9.7663054419	0.1938186306	0.005345070815	0.008093964377	-0.007024950214	0.13601000000000002	1.1425999999999998	-1.13274	11.29728	-2.82432	13.65088	0.9952035529237603	33.35
70304	7412491	0	187	-1358	49	3	104	46	304	1112	-3056	199	-1367	18	56	24	-100	163	2799	-869	320	-144	432	33.19	0.9906242289661978	33.49	0.9995854922279792	4449.478515625	-7309.845703125	38.400001525878906	6.713195323944092	3	0.0	0.0	0.0	0.0	0.281134008753071	0.0	0.0	0.0451148670411723	0.0	0.0	0.0	0.0	12	44.824641927083334	-73.16409505208334	1.3423734786000001	-9.7483592724	0.35174492220000003	1.4285150922	-9.812965482600001	0.1292124204	0.000916297854	0.031764992272	0.014049900427999999	0.017104226607999998	0.007330382832	-0.0305432618	0.17632	0.64496	-1.77248	0.09454	1.62342	-0.50402	1.3854442854000002	-9.7806623775	0.2404786713	0.009010262230999998	0.019547687552	-0.008246680686	0.13543	1.13419	-1.13825	9.4144	-4.23648	12.70944	0.9951048605970885	33.34
70305	7412596	0	186	-1356	20	0	85	49	289	1105	-3051	199	-1369	0	64	-10	-100	163	2799	-869	432	-224	496	33.2	0.9905946212681964	33.5	0.9997137922526524	4449.478515625	-7309.845703125	38.400001525878906	6.722057819366455	3	0.0	0.0	0.0	0.0	0.1829821409820245	0.0	0.0	-0.0623799991383789	0.0	0.0	0.0	0.0	12	44.824641927083334	-73.16409505208334	1.3351950108000001	-9.7340023368	0.143569356	1.4285150922	-9.8273224182	0.0	0.0	0.02596177253	0.014966198282	0.019547687552	-0.0030543261799999997	-0.0305432618	0.16762	0.6409	-1.76958	0.09454	1.62342	-0.50402	1.3818550515	-9.7806623775	0.071784678	0.009773843776	0.011453723175	-0.007788531759	0.13108	1.13216	-1.1368	12.70944	-6.59008	14.59232	0.9951542067604244	33.35
70306	7412702	0	182	-1357	21	6	158	66	289	1105	-3051	196	-1370	1	63	70	-75	183	2812	-855	384	-128	464	33.18	0.9904959289415248	33.5	0.9995558845299778	4449.478515625	-7309.845703125	38.400001525878906	6.722057819366455	3	0.0	0.0	0.0	0.0	0.2545236825821826	0.0	0.0	0.0155458039233931	0.0	0.0	0.0	0.0	12	44.824641927083334	-73.16409505208334	1.3064811396	-9.7411808046	0.1507478238	1.4069796888000001	-9.834500886	0.0071784678	0.001832595708	0.048258353643999996	0.020158552788	0.019242254934	0.021380283259999997	-0.02290744635	0.16762	0.6409	-1.76958	0.10614	1.63096	-0.4959	1.3567304142	-9.7878408453	0.07896314580000001	0.010537425321	0.034819318451999995	-0.0013744467810000004	0.13688	1.13593	-1.13274	11.29728	-3.76576	13.65088	0.9950259067357513	33.34
70307	7412807	0	187	-1358	22	-12	79	65	287	1101	-3072	193	-1370	2	60	-15	-78	183	2812	-855	352	-96	352	33.2	0.9906637058968664	33.5	0.999506538366642	4449.478515625	-7309.845703125	38.400001525878906	6.730920314788818	3	0.0	0.0	0.0	0.0	0.2011046390033854	0.0	0.0	-0.0438293929488229	0.0	0.0	0.0	0.0	12	44.824641927083334	-73.16409505208334	1.3423734786000001	-9.7483592724	0.15792629160000002	1.3854442854	-9.834500886	0.0143569356	-0.003665191416	0.024129176821999998	0.01985312017	0.01832595708	-0.00458148927	-0.023823744204	0.16646	0.63858	-1.78176	0.10614	1.63096	-0.4959	1.363908882	-9.791430079200001	0.08614161360000001	0.007330382832	0.009773843776	-0.001985312017	0.1363	1.13477	-1.13883	10.35584	-2.82432	10.35584	0.9950851221317543	33.35
70308	7412913	0	191	-1354	20	-25	77	63	287	1101	-3072	204	-1368	11	30	-11	-74	170	2834	-853	368	-80	480	33.2	0.9906044905008636	33.49	0.9993782383419688	4449.478515625	-7309.845703125	38.400001525878906	6.730920314788818	3	0.0	0.0	0.0	0.0	0.1985090855233054	0.0	0.0	-0.0423797037815144	0.0	0.0	0.0	0.0	12	44.824641927083334	-73.16409505208334	1.3710873498	-9.719645401200001	0.143569356	1.4644074312000002	-9.8201439504	0.07896314580000001	-0.00763581545	0.023518311586	0.019242254934	0.00916297854	-0.003359758798	-0.022602013732	0.16646	0.63858	-1.78176	0.09860000000000001	1.64372	-0.49474	1.4177473905000002	-9.7698946758	0.1112662509	0.0007635815450000001	0.010079276394	-0.0016798793990000001	0.13253	1.14115	-1.13825	10.82656	-2.3536	14.1216	0.9949913644214162	33.345
70309	7413018	0	196	-1351	37	-39	63	44	314	1105	-3032	202	-1363	7	41	-27	-102	170	2834	-853	432	-160	448	33.2	0.9904268443128548	33.5	0.9997730076486552	4449.478515625	-7309.845703125	38.400001525878906	6.713195323944092	3	0.0	0.0	0.0	0.0	0.2002494127874574	0.0	0.0	-0.0425884817398012	0.0	0.0	0.0	0.0	12	44.824641927083334	-73.16409505208334	1.4069796888000001	-9.6981099978	0.26560330860000003	1.4500504956	-9.7842516114	0.050249274600000005	-0.011911872102	0.019242254934	0.013439035192	0.012522737337999999	-0.008246680686	-0.031154127036	0.18212	0.6409	-1.75856	0.09860000000000001	1.64372	-0.49474	1.4285150922	-9.741180804599999	0.15792629160000002	0.0003054326179999997	0.005497787124	-0.008857545921999999	0.14036	1.1423100000000002	-1.12665	12.70944	-4.7072	13.18016	0.9950999259807549	33.35
70310	7413123	0	186	-1354	38	-16	104	45	314	1105	-3032	189	-1374	17	38	13	-88	184	2851	-858	400	-48	416	33.2	0.9906044905008636	33.49	0.9995361460646436	4449.478515625	-7309.845703125	38.400001525878906	6.722057819366455	3	0.0	0.0	0.0	0.0	0.1592093096250265	0.0	0.0	-0.0804882547942391	0.0	0.0	0.0	0.0	12	44.824641927083334	-73.16409505208334	1.3351950108000001	-9.719645401200001	0.2727817764	1.3567304142	-9.8632147572	0.12203395260000001	-0.004886921888	0.031764992272	0.01374446781	0.011606439484	0.003970624034	-0.026878070384	0.18212	0.6409	-1.75856	0.10672	1.65358	-0.49764	1.3459627125	-9.791430079200001	0.1974078645	0.003359758798	0.017867808153	-0.006566801287	0.14442	1.14724	-1.1280999999999999	11.768	-1.41216	12.23872	0.9950703182827536	33.345
70311	7413229	0	184	-1357	43	-19	73	57	318	1107	-3057	186	-1374	12	67	-15	-92	184	2851	-858	448	-240	368	33.2	0.9905551443375278	33.49	0.999694053787318	4449.478515625	-7309.845703125	38.400001525878906	6.722057819366455	3	0.0	0.0	0.0	0.0	0.1600634892239285	0.0	0.0	-0.0713848012634128	0.0	0.0	0.0	0.0	12	44.824641927083334	-73.16409505208334	1.3208380752	-9.7411808046	0.3086741154	1.3351950108000001	-9.8632147572	0.0861416136	-0.005803219742	0.022296581114	0.017409659225999997	0.020463985405999998	-0.00458148927	-0.028099800855999998	0.18444	0.64206	-1.77306	0.10672	1.65358	-0.49764	1.328016543	-9.8021977809	0.1974078645	0.007330382831999999	0.008857545922	-0.005345070815	0.14558	1.14782	-1.13535	13.18016	-7.0608	10.82656	0.9951245990624229	33.345
70312	7413334	0	183	-1349	35	-4	128	54	318	1107	-3057	188	-1369	8	69	28	-80	171	2822	-895	384	-96	400	33.2	0.9908018751542068	33.48	0.9994078460399703	4449.478515625	-7309.845703125	38.400001525878906	6.713195323944092	3	0.0	0.0	0.0	0.0	0.1388851914444044	0.0	0.0	-0.0880038246882177	0.0	0.0	0.0	0.0	12	44.824641927083334	-73.16409505208334	1.3136596074	-9.683753062200001	0.251246373	1.3495519464	-9.8273224182	0.0574277424	-0.001221730472	0.039095375104	0.016493361372	0.021074850641999997	0.008552113303999999	-0.024434609439999998	0.18444	0.64206	-1.77306	0.09918	1.63676	-0.5191	1.3316057769	-9.755537740200001	0.1543370577	0.009926560085	0.023823744204	-0.003970624034	0.14181	1.13941	-1.14608	11.29728	-2.82432	11.768	0.9951048605970886	33.34
70313	7413440	0	176	-1357	26	-9	116	61	317	1089	-3083	181	-1374	3	51	17	-93	171	2822	-895	416	-96	432	33.2	0.9903774981495188	33.5	0.9995953614606464	4449.478515625	-7309.845703125	38.400001525878906	6.713195323944092	3	0.0	0.0	0.0	0.0	0.2056312325137858	0.0	0.0	-0.0109343885649733	0.0	0.0	0.0	0.0	12	44.824641927083334	-73.16409505208334	1.2634103328000001	-9.7411808046	0.1866401628	1.2993026718	-9.8632147572	0.0215354034	-0.002748893562	0.035430183688	0.018631389698	0.015577063518	0.005192354505999999	-0.028405233473999997	0.18386	0.63162	-1.78814	0.09918	1.63676	-0.5191	1.2813565023	-9.8021977809	0.1040877831	0.006414084977999999	0.020311269097	-0.004886921887999999	0.14152	1.13419	-1.15362	12.23872	-2.82432	12.70944	0.9949864298050826	33.35
70314	7413545	0	190	-1352	18	-14	109	70	317	1089	-3083	199	-1370	3	40	12	-87	175	2851	-863	512	-128	368	33.18	0.9907031828275352	33.51	0.999565753762645	4449.478515625	-7309.845703125	38.400001525878906	6.730920314788818	3	0.0	0.0	0.0	0.0	0.270502355904155	0.0	0.0	0.0551404094745517	0.0	0.0	0.0	0.0	12	44.824641927083334	-73.16409505208334	1.363908882	-9.7052884656	0.1292124204	1.4285150922	-9.834500886	0.0215354034	-0.004276056651999999	0.033292155361999996	0.021380283259999997	0.012217304719999999	0.003665191416	-0.026572637766	0.18386	0.63162	-1.78814	0.1015	1.65358	-0.50054	1.3962119871	-9.7698946758	0.0753739119	0.003970624034	0.018478673389	-0.002596177253000001	0.14268	1.1426	-1.1443400000000001	15.06304	-3.76576	10.82656	0.9951344682950901	33.345
70315	7413650	0	194	-1356	22	-19	72	61	296	1068	-3075	197	-1366	0	34	-7	-85	175	2851	-863	432	-208	512	33.18	0.9906735751295336	33.5	0.999506538366642	4449.478515625	-7309.845703125	38.400001525878906	6.730920314788818	3	0.0	0.0	0.0	0.0	0.2588952021352677	0.0	0.0	0.0337407230746638	0.0	0.0	0.0	0.0	12	44.824641927083334	-73.16409505208334	1.3926227532	-9.7340023368	0.15792629160000002	1.4141581566	-9.8057870148	0.0	-0.005803219742	0.021991148496	0.018631389698	0.010384709011999999	-0.0021380283259999997	-0.02596177253	0.17168	0.61944	-1.7835	0.1015	1.65358	-0.50054	1.4033904549	-9.7698946758	0.07896314580000001	0.0022907446349999996	0.009926560085000001	-0.003665191416	0.13659	1.13651	-1.14202	12.70944	-6.11936	15.06304	0.9950900567480878	33.34
70316	7413756	0	182	-1357	32	-34	81	60	319	1083	-3065	197	-1370	8	32	-20	-97	186	2829	-846	384	-144	400	33.18	0.9906637058968664	33.49	0.9993782383419688	4449.478515625	-7309.845703125	38.400001525878906	6.713195323944092	3	0.0	0.0	0.0	0.0	0.27123173088885	0.0	0.0	0.038612693855389	0.0	0.0	0.0	0.0	12	44.824641927083334	-73.16409505208334	1.3064811396	-9.7411808046	0.2297109696	1.4141581566	-9.834500886	0.0574277424	-0.010384709011999999	0.024740042057999997	0.01832595708	0.009773843776	-0.0061086523599999994	-0.029626963946	0.18502	0.62814	-1.7777	0.10788	1.64082	-0.49068	1.3603196481	-9.7878408453	0.143569356	-0.0003054326179999997	0.009315694848999998	-0.005650503433	0.14645	1.13448	-1.13419	11.29728	-4.23648	11.768	0.9950209721194176	33.335
70317	7413861	0	181	-1355	39	-29	95	51	319	1083	-3065	184	-1374	20	28	0	-104	186	2829	-846	464	-160	384	33.2	0.9907130520602024	33.5	0.9995460152973108	4449.478515625	-7309.845703125	38.400001525878906	6.722057819366455	3	0.0	0.0	0.0	0.0	0.3230671275826257	0.0	0.0	0.0814679262852496	0.0	0.0	0.0	0.0	12	44.824641927083334	-73.16409505208334	1.2993026718	-9.726823869	0.2799602442	1.3208380752	-9.8632147572	0.143569356	-0.008857545922	0.029016098709999997	0.015577063518	0.008552113303999999	0.0	-0.031764992272	0.18502	0.62814	-1.7777	0.10788	1.64082	-0.49068	1.3100703734999999	-9.7950193131	0.21176480009999998	-0.00015271630900000072	0.014508049354999998	-0.008093964377	0.14645	1.13448	-1.13419	13.65088	-4.7072	11.29728	0.9951295336787567	33.35
70318	7413966	0	170	-1358	35	-21	67	52	313	1076	-3086	188	-1370	9	40	-21	-97	158	2810	-857	400	-224	448	33.19	0.9905156674068591	33.51	0.999694053787318	4449.478515625	-7309.845703125	38.400001525878906	6.704333305358887	3	0.0	0.0	0.0	0.0	0.2829159070382314	0.0	0.0	0.0292806316143336	0.0	0.0	0.0	0.0	12	44.824641927083334	-73.16409505208334	1.220339526	-9.7483592724	0.251246373	1.3495519464	-9.834500886	0.0646062102	-0.006414084978	0.020463985405999998	0.015882496136	0.012217304719999999	-0.006414084978	-0.029626963946	0.18154	0.62408	-1.78988	0.09164	1.6298	-0.49706	1.2849457362	-9.791430079200001	0.15792629160000002	0.0029016098709999994	0.007024950213999999	-0.0068722339050000004	0.13659	1.1269399999999998	-1.14347	11.768	-6.59008	13.18016	0.9951048605970886	33.349999999999994
70319	7414072	0	182	-1358	36	-3	66	63	313	1076	-3086	188	-1370	11	52	-10	-87	158	2810	-857	432	-160	448	33.18	0.9906044905008636	33.51	0.999506538366642	4449.478515625	-7309.845703125	38.400001525878906	6.730920314788818	3	0.0	0.0	0.0	0.0	0.3928004945837671	0.0	0.0	0.1352186661187275	0.0	0.0	0.0	0.0	12	44.824641927083334	-73.16409505208334	1.3064811396	-9.7483592724	0.2584248408	1.3495519464	-9.834500886	0.07896314580000001	-0.000916297854	0.020158552788	0.019242254934	0.015882496136	-0.0030543261799999997	-0.026572637766	0.18154	0.62408	-1.78988	0.09164	1.6298	-0.49706	1.328016543	-9.791430079200001	0.1686939933	0.007483099141	0.008552113303999999	-0.003665191416	0.13659	1.1269399999999998	-1.14347	12.70944	-4.7072	13.18016	0.9950555144337528	33.345
70320	7414177	0	186	-1355	30	4	60	72	308	1088	-3061	196	-1369	10	62	-35	-72	194	2844	-859	464	-80	448	33.18	0.9907031828275352	33.51	0.999506538366642	4449.478515625	-7309.845703125	38.400001525878906	6.739782333374023	3	0.0	0.0	0.0	0.0	0.3760792330150714	0.0	0.0	0.1020559774828324	0.0	0.0	0.0	0.0	12	44.824641927083334	-73.16409505208334	1.3351950108000001	-9.726823869	0.215354034	1.4069796888000001	-9.8273224182	0.071784678	0.001221730472	0.01832595708	0.021991148496	0.018936822316	-0.010690141629999999	-0.021991148496	0.17864	0.63104	-1.77538	0.11252	1.64952	-0.49822	1.3710873498000002	-9.7770731436	0.143569356	0.010079276394	0.0038179077250000007	0.0	0.14558	1.1402800000000002	-1.1368	13.65088	-2.3536	13.18016	0.9951048605970887	33.345
70321	7414283	0	195	-1354	29	-9	103	57	308	1088	-3061	206	-1366	9	46	6	-67	194	2844	-859	384	-176	496	33.2	0.9905946212681964	33.49	0.9996841845546508	4449.478515625	-7309.845703125	38.400001525878906	6.722057819366455	3	0.0	0.0	0.0	0.0	0.3949690624019514	0.0	0.0	0.1059698167392513	0.0	0.0	0.0	0.0	12	44.824641927083334	-73.16409505208334	1.3998012210000002	-9.719645401200001	0.2081755662	1.4787643668000001	-9.8057870148	0.0646062102	-0.002748893562	0.031459559654	0.017409659225999997	0.014049900427999999	0.001832595708	-0.020463985405999998	0.17864	0.63104	-1.77538	0.11252	1.64952	-0.49822	1.4392827939000001	-9.762716208	0.1363908882	0.005650503433	0.016646077680999998	-0.0015271630900000003	0.14558	1.1402800000000002	-1.1368	11.29728	-5.17792	14.59232	0.9951394029114236	33.345
70322	7414388	0	187	-1355	31	-6	114	59	316	1128	-3107	198	-1364	7	53	13	-81	142	2810	-880	368	-160	400	33.18	0.9905650135701948	33.5	0.9997039230199852	4449.478515625	-7309.845703125	38.400001525878906	6.713195323944092	3	0.0	0.0	0.0	0.0	0.2873930639383271	0.0	0.0	-0.0168808910993441	0.0	0.0	0.0	0.0	12	44.824641927083334	-73.16409505208334	1.3423734786000001	-9.726823869	0.2225325018	1.4213366244	-9.7914300792	0.050249274600000005	-0.001832595708	0.034819318451999995	0.018020524462	0.016187928754	0.003970624034	-0.024740042057999997	0.18328	0.65424	-1.80206	0.08236	1.6298	-0.5104	1.3818550515	-9.759126974099999	0.1363908882	0.007177666522999999	0.019394971243	-0.0033597587979999986	0.13282	1.14202	-1.1562299999999999	10.82656	-4.7072	11.768	0.99513446829509	33.34
70323	7414493	0	187	-1355	28	-3	68	63	316	1128	-3107	197	-1376	6	44	-7	-88	142	2810	-880	416	-192	400	33.18	0.9907130520602024	33.5	0.9994966691339748	4449.478515625	-7309.845703125	38.400001525878906	6.730920314788818	3	0.0	0.0	0.0	0.0	0.2452672223355826	0.0	0.0	-0.0598577242439933	0.0	0.0	0.0	0.0	12	44.824641927083334	-73.16409505208334	1.3423734786000001	-9.726823869	0.20099709840000002	1.4141581566	-9.8775716928	0.0430708068	-0.000916297854	0.020769418023999998	0.019242254934	0.013439035192	-0.0021380283259999997	-0.026878070384	0.18328	0.65424	-1.80206	0.08236	1.6298	-0.5104	1.3782658176	-9.8021977809	0.12203395260000001	0.006261368668999999	0.009315694848999998	-0.003817907725	0.13282	1.14202	-1.1562299999999999	12.23872	-5.64864	11.768	0.9951048605970887	33.34
70324	7414599	0	188	-1356	32	-26	33	58	297	1092	-3041	187	-1367	8	30	-59	-83	178	2843	-843	384	-144	384	33.19	0.9906242289661978	33.51	0.999624969158648	4449.478515625	-7309.845703125	38.400001525878906	6.695470809936523	3	0.0	0.0	0.0	0.0	0.2176595060353594	0.0	0.0	-0.0823261941148214	0.0	0.0	0.0	0.0	12	44.824641927083334	-73.16409505208334	1.3495519464	-9.7340023368	0.2297109696	1.3423734786000001	-9.812965482600001	0.0574277424	-0.007941248068	0.010079276394	0.017715091844	0.00916297854	-0.018020524462	-0.025350907293999997	0.17226	0.63336	-1.76378	0.10324	1.64894	-0.48894	1.3459627125	-9.773483909700001	0.143569356	0.0006108652360000003	-0.003970624034000001	-0.003817907724999998	0.13774999999999998	1.14115	-1.12636	11.29728	-4.23648	11.29728	0.9951245990624229	33.349999999999994
70325	7414704	0	188	-1357	40	-31	77	73	297	1092	-3041	197	-1370	10	51	-7	-77	178	2843	-843	416	-112	464	33.17	0.9906439674315322	33.49	0.9995953614606464	4449.478515625	-7309.845703125	38.400001525878906	6.713195323944092	3	0.0	0.0	0.0	0.0	0.1480446094606639	0.0	0.0	-0.1476381349581065	0.0	0.0	0.0	0.0	12	44.824641927083334	-73.16409505208334	1.3495519464	-9.7411808046	0.287138712	1.4141581566	-9.834500886	0.071784678	-0.009468411158	0.023518311586	0.022296581114	0.015577063518	-0.0021380283259999997	-0.023518311586	0.17226	0.63336	-1.76378	0.10324	1.64894	-0.48894	1.3818550515	-9.7878408453	0.179461695	0.0030543261799999997	0.01069014163	-0.0006108652359999994	0.13774999999999998	1.14115	-1.12636	12.23872	-3.29504	13.65088	0.9951196644460893	33.33
70326	7414810	0	179	-1354	32	-21	82	74	302	1101	-3074	190	-1374	11	49	-3	-59	170	2848	-856	400	-144	368	33.18	0.9907722674562052	33.51	0.999565753762645	4449.478515625	-7309.845703125	38.59999847412109	6.722057819366455	3	0.0	0.0	0.0	0.0	0.0947364124009409	0.0	0.0	-0.1892507115028361	0.0	0.0	0.0	0.0	12	44.824641927083334	-73.16409505208334	1.2849457362	-9.719645401200001	0.2297109696	1.363908882	-9.8632147572	0.07896314580000001	-0.006414084978	0.025045474675999997	0.022602013732	0.014966198282	-0.000916297854	-0.018020524462	0.17516	0.63858	-1.78292	0.09860000000000001	1.65184	-0.49648	1.3244273091	-9.791430079200001	0.1543370577	0.004276056651999999	0.012064588410999999	0.0022907446349999996	0.13688	1.14521	-1.1397	11.768	-4.23648	10.82656	0.9951690106094251	33.345
70327	7414915	0	201	-1352	33	-21	79	64	302	1101	-3074	213	-1365	7	49	-13	-82	170	2848	-856	432	-208	368	33.19	0.990634098198865	33.5	0.9998223538119912	4449.478515625	-7309.845703125	38.59999847412109	6.713195323944092	3	0.0	0.0	0.0	0.0	0.0567107383169159	0.0	0.0	-0.2095555637659611	0.0	0.0	0.0	0.0	12	44.824641927083334	-73.16409505208334	1.4428720278	-9.7052884656	0.2368894374	1.5290136414	-9.798608547	0.050249274600000005	-0.006414084978	0.024129176821999998	0.019547687552	0.014966198282	-0.003970624034	-0.025045474675999997	0.17516	0.63858	-1.78292	0.09860000000000001	1.65184	-0.49648	1.4859428345999999	-9.7519485063	0.143569356	0.004276056651999999	0.010079276394	-0.002748893561999999	0.13688	1.14521	-1.1397	12.70944	-6.11936	10.82656	0.9952282260054282	33.345
70328	7415020	0	205	-1354	24	-17	135	42	289	1065	-3074	210	-1372	6	49	35	-103	165	2825	-858	400	-112	352	33.2	0.9905551443375278	33.5	0.9997730076486552	4449.478515625	-7309.845703125	38.59999847412109	6.722057819366455	3	0.0	0.0	0.0	0.0	-0.0186802552367598	0.0	0.0	-0.2685676619537746	0.0	0.0	0.0	0.0	12	44.824641927083334	-73.16409505208334	1.4715858990000001	-9.719645401200001	0.1722832272	1.507478238	-9.848857821600001	0.0430708068	-0.005192354505999999	0.041233403429999996	0.012828169956	0.014966198282	0.010690141629999999	-0.031459559654	0.16762	0.6177	-1.78292	0.09570000000000001	1.6385	-0.49764	1.4895320685	-9.784251611400002	0.107677017	0.004886921888000001	0.025961772529999996	-0.009315694848999998	0.13166	1.1281	-1.14028	11.768	-3.29504	10.35584	0.9951640759930915	33.35
70329	7415126	0	182	-1351	26	-17	116	14	289	1065	-3074	188	-1370	1	43	24	-129	165	2825	-858	416	-112	320	33.18	0.9906735751295336	33.51	0.999624969158648	4449.478515625	-7309.845703125	38.59999847412109	6.730920314788818	3	0.0	0.0	0.0	0.0	-0.044711559741383	0.0	0.0	-0.2680234681934864	0.0	0.0	0.0	0.0	12	44.824641927083334	-73.16409505208334	1.3064811396	-9.6981099978	0.1866401628	1.3495519464	-9.834500886	0.0071784678	-0.005192354505999999	0.035430183688	0.004276056651999999	0.013133602574	0.007330382832	-0.039400807722	0.16762	0.6177	-1.78292	0.09570000000000001	1.6385	-0.49764	1.328016543	-9.7663054419	0.0969093153	0.003970624034	0.02138028326	-0.017562375535	0.13166	1.1281	-1.14028	12.23872	-3.29504	9.4144	0.9951492721440908	33.345
70330	7415231	0	172	-1355	25	-14	101	33	299	1089	-3082	182	-1371	4	40	16	-118	170	2824	-892	448	-176	416	33.18	0.9906637058968664	33.5	0.9993387614113004	4449.478515625	-7309.845703125	38.59999847412109	6.730920314788818	3	0.0	0.0	0.0	0.0	-0.0045951351128407	0.0	0.0	-0.1988676209886078	0.0	0.0	0.0	0.0	12	44.824641927083334	-73.16409505208334	1.2346964616	-9.726823869	0.179461695	1.3064811396	-9.8416793538	0.0287138712	-0.004276056651999999	0.030848694418	0.010079276394	0.012217304719999999	0.004886921888	-0.036041048924	0.17342	0.63162	-1.78756	0.09860000000000001	1.63792	-0.51736	1.2705888006000001	-9.7842516114	0.1040877831	0.003970624034	0.017867808153	-0.012980886265000002	0.13601	1.13477	-1.15246	13.18016	-5.17792	12.23872	0.9950012336540834	33.34
70331	7415337	0	158	-1356	24	-17	120	64	299	1089	-3082	167	-1368	4	41	40	-81	170	2824	-892	432	-128	368	33.2	0.9906439674315322	33.5	0.9997039230199852	4449.478515625	-7309.845703125	38.59999847412109	6.713195323944092	3	0.0	0.0	0.0	0.0	0.002037395044531	0.0	0.0	-0.1741484916040964	0.0	0.0	0.0	0.0	12	44.824641927083334	-73.16409505208334	1.1341979124000001	-9.7340023368	0.1722832272	1.1988041226000001	-9.8201439504	0.0287138712	-0.005192354505999999	0.03665191416	0.019547687552	0.012522737337999999	0.012217304719999999	-0.024740042057999997	0.17342	0.63162	-1.78756	0.09860000000000001	1.63792	-0.51736	1.1665010175000001	-9.7770731436	0.1004985492	0.0036651914159999996	0.024434609439999998	-0.0025961772529999993	0.13601	1.13477	-1.15246	12.70944	-3.76576	10.82656	0.9951739452257586	33.35
70332	7415442	0	170	-1355	34	-41	109	93	283	1085	-3072	190	-1366	9	25	17	-55	172	2821	-867	480	-112	448	33.18	0.990762398223538	33.5	0.9993979768073032	4449.478515625	-7309.845703125	38.59999847412109	6.730920314788818	3	0.0	0.0	0.0	0.0	0.042500157143674	0.0	0.0	-0.1162820137190801	0.0	0.0	0.0	0.0	12	44.824641927083334	-73.16409505208334	1.220339526	-9.726823869	0.24406790520000002	1.363908882	-9.8057870148	0.0646062102	-0.012522737337999999	0.033292155361999996	0.028405233473999997	0.00763581545	0.005192354505999999	-0.016798793989999998	0.16414	0.6293	-1.78176	0.09976	1.63618	-0.50286	1.292124204	-9.7663054419	0.1543370577	-0.0024434609439999994	0.019242254934	0.005803219742	0.13195	1.13274	-1.14231	14.1216	-3.29504	13.18016	0.9950801875154206	33.34
70333	7415547	0	203	-1361	30	-16	63	80	310	1105	-3106	212	-1379	5	31	-37	-72	172	2821	-867	464	-160	448	33.18	0.9907722674562052	33.5	0.999437453737972	4449.478515625	-7309.845703125	38.59999847412109	6.722057819366455	3	0.0	0.0	0.0	0.0	0.039778914832909	0.0	0.0	-0.1110753132380779	0.0	0.0	0.0	0.0	12	44.824641927083334	-73.16409505208334	1.4572289634	-9.7698946758	0.215354034	1.5218351736	-9.8991070962	0.035892339	-0.004886921888	0.019242254934	0.024434609439999998	0.009468411158	-0.011301006866	-0.021991148496	0.1798	0.6409	-1.80148	0.09976	1.63618	-0.50286	1.4895320685	-9.834500886	0.1256231865	0.002290744635	0.003970624034	0.0012217304719999988	0.13978	1.1385399999999999	-1.15217	13.65088	-4.7072	13.18016	0.9951048605970886	33.34
70334	7415653	0	212	-1356	34	-15	95	42	310	1105	-3106	219	-1374	7	45	6	-105	174	2844	-833	352	-96	432	33.2	0.9905946212681964	33.49	0.9993782383419688	4449.478515625	-7309.845703125	38.59999847412109	6.713195323944092	3	0.0	0.0	0.0	0.0	0.1178967766349596	0.0	0.0	-0.0172539156153342	0.0	0.0	0.0	0.0	12	44.824641927083334	-73.16409505208334	1.5218351736	-9.7340023368	0.24406790520000002	1.5720844482	-9.8632147572	0.050249274600000005	-0.00458148927	0.029016098709999997	0.012828169956	0.01374446781	0.001832595708	-0.03207042489	0.1798	0.6409	-1.80148	0.10092	1.64952	-0.48314	1.5469598109	-9.798608547	0.14715858990000003	0.004581489269999999	0.015424347209	-0.009621127466999998	0.14035999999999998	1.14521	-1.14231	10.35584	-2.82432	12.70944	0.9949864298050826	33.345
70335	7415758	0	188	-1353	30	-15	81	18	293	1110	-3095	197	-1373	6	27	2	-127	174	2844	-833	352	-48	448	33.18	0.990811744386874	33.49	0.999694053787318	4449.478515625	-7309.845703125	38.59999847412109	6.722057819366455	3	0.0	0.0	0.0	0.0	0.0750001851438927	0.0	0.0	-0.0650753945294553	0.0	0.0	0.0	0.0	12	44.824641927083334	-73.16409505208334	1.3495519464	-9.7124669334	0.215354034	1.4141581566	-9.8560362894	0.0430708068	-0.00458148927	0.024740042057999997	0.005497787124	0.008246680686	0.000610865236	-0.038789942486	0.16994	0.6438	-1.7951	0.10092	1.64952	-0.48314	1.3818550515	-9.7842516114	0.1292124204	0.0018325957079999996	0.012675453646999998	-0.016646077680999998	0.13543	1.14666	-1.13912	10.35584	-1.41216	13.18016	0.995252899087096	33.335
70336	7415863	0	168	-1354	27	-19	104	31	293	1110	-3095	174	-1367	6	54	3	-120	192	2831	-848	416	-208	336	33.2	0.9907031828275352	33.49	0.9996348383913152	4449.478515625	-7309.845703125	38.59999847412109	6.713195323944092	3	0.0	0.0	0.0	0.0	0.0701741188283559	0.0	0.0	-0.0681118542985811	0.0	0.0	0.0	0.0	12	44.824641927083334	-73.16409505208334	1.2059825904	-9.719645401200001	0.1938186306	1.2490533972	-9.812965482600001	0.0430708068	-0.005803219742	0.031764992272	0.009468411158	0.016493361372	0.000916297854	-0.03665191416	0.16994	0.6438	-1.7951	0.11136	1.64198	-0.49184	1.2275179938	-9.766305441900002	0.1184447187	0.005345070814999999	0.016340645063	-0.013591751501000001	0.14065	1.14289	-1.14347	12.23872	-6.11936	9.88512	0.9951690106094252	33.345
70337	7415968	0	151	-1353	35	-15	104	81	299	1088	-3064	158	-1369	12	38	6	-62	180	2821	-865	400	-128	464	33.17	0.990634098198865	33.5	0.9996644460893166	4449.478515625	-7309.845703125	38.59999847412109	6.713195323944092	3	0.0	0.0	0.0	0.0	0.0809268477587096	0.0	0.0	-0.0545410350032217	0.0	0.0	0.0	0.0	12	44.824641927083334	-73.16409505208334	1.0839486378	-9.7124669334	0.251246373	1.1341979124000001	-9.8273224182	0.0861416136	-0.00458148927	0.031764992272	0.024740042057999997	0.011606439484	0.001832595708	-0.018936822316	0.17342	0.63104	-1.77712	0.1044	1.63618	-0.5017	1.1090732751	-9.7698946758	0.1686939933	0.0035124751069999997	0.016798793989999998	0.002901609870999999	0.13891	1.13361	-1.13941	11.768	-3.76576	13.65088	0.9951492721440909	33.335
70338	7416073	0	179	-1354	30	-10	58	102	299	1088	-3064	181	-1369	6	41	-15	-48	180	2821	-865	432	-160	400	33.18	0.9906538366641994	33.49	0.9995262768319764	4449.478515625	-7309.845703125	38.59999847412109	6.713195323944092	3	0.0	0.0	0.0	0.0	0.1502183062381649	0.0	0.0	0.0194897335516501	0.0	0.0	0.0	0.0	12	44.824641927083334	-73.16409505208334	1.2849457362	-9.719645401200001	0.215354034	1.2993026718	-9.8273224182	0.0430708068	-0.0030543261799999997	0.017715091844	0.031154127036	0.012522737337999999	-0.00458148927	-0.014660765664	0.17342	0.63104	-1.77712	0.1044	1.63618	-0.5017	1.292124204	-9.773483909700001	0.1292124204	0.004734205578999999	0.006566801287000001	0.008246680686	0.13891	1.13361	-1.13941	12.70944	-4.7072	11.768	0.9950900567480878	33.335
70339	7416179	0	213	-1354	27	-15	92	97	304	1078	-3058	221	-1374	5	57	1	-50	177	2840	-851	368	-304	416	33.19	0.9904663212435232	33.48	0.9996743153219836	4449.478515625	-7309.845703125	38.59999847412109	6.713195323944092	3	0.0	0.0	0.0	0.0	0.1374721317100877	0.0	0.0	0.0042250212118564	0.0	0.0	0.0	0.0	12	44.824641927083334	-73.16409505208334	1.5290136414	-9.719645401200001	0.1938186306	1.5864413838	-9.8632147572	0.035892339	-0.00458148927	0.028099800855999998	0.029626963946	0.017409659225999997	0.000305432618	-0.0152716309	0.17632	0.62524	-1.77364	0.10266	1.6472	-0.49358	1.5577275126	-9.791430079200001	0.1148554848	0.006414084977999999	0.014202616736999999	0.007177666523	0.13949	1.13622	-1.13361	10.82656	-8.94368	12.23872	0.9950703182827534	33.334999999999994
70340	7416284	0	216	-1349	31	-22	99	52	304	1078	-3058	223	-1371	9	28	10	-87	177	2840	-851	432	-96	416	33.2	0.9906439674315322	33.5	0.9996545768566494	4449.478515625	-7309.845703125	38.59999847412109	6.722057819366455	3	0.0	0.0	0.0	0.0	0.1421515091853485	0.0	0.0	0.006982229883656	0.0	0.0	0.0	0.0	12	44.824641927083334	-73.16409505208334	1.5505490448	-9.683753062200001	0.2225325018	1.6007983194000002	-9.8416793538	0.0646062102	-0.006719517596	0.030237829182	0.015882496136	0.008552113303999999	0.0030543261799999997	-0.026572637766	0.17632	0.62524	-1.77364	0.10266	1.6472	-0.49358	1.5756736821000001	-9.762716208	0.143569356	0.0009162978539999996	0.016646077680999998	-0.005345070815	0.13949	1.13622	-1.13361	12.70944	-2.82432	12.23872	0.9951492721440908	33.35
70341	7416389	0	198	-1355	32	-32	74	13	307	1102	-3060	196	-1372	6	52	-10	-148	182	2839	-832	448	-208	352	33.18	0.9906044905008636	33.48	0.9995164075993092	4449.478515625	-7309.845703125	38.59999847412109	6.713195323944092	3	0.0	0.0	0.0	0.0	0.050251399028554	0.0	0.0	-0.091518954379589	0.0	0.0	0.0	0.0	12	44.824641927083334	-73.16409505208334	1.4213366244	-9.726823869	0.2297109696	1.4069796888000001	-9.848857821600001	0.0430708068	-0.009773843776	0.022602013732	0.003970624034	0.015882496136	-0.0030543261799999997	-0.045204027464	0.17806	0.63916	-1.7748	0.10556	1.64662	-0.48256	1.4141581566	-9.7878408453	0.1363908882	0.0030543261799999997	0.009773843776	-0.020616701714999998	0.14181	1.14289	-1.12868	13.18016	-6.11936	10.35584	0.9950604490500864	33.33
70342	7416495	0	168	-1357	33	-26	98	16	307	1102	-3060	181	-1369	10	53	14	-139	182	2839	-832	464	-96	496	33.19	0.9907327905255366	33.49	0.999694053787318	4449.478515625	-7309.845703125	38.59999847412109	6.713195323944092	3	0.0	0.0	0.0	0.0	0.0732810059051985	0.0	0.0	-0.0613212076665877	0.0	0.0	0.0	0.0	12	44.824641927083334	-73.16409505208334	1.2059825904	-9.7411808046	0.2368894374	1.2993026718	-9.8273224182	0.071784678	-0.007941248068	0.029932396564	0.004886921888	0.016187928754	0.004276056651999999	-0.042455133901999995	0.17806	0.63916	-1.7748	0.10556	1.64662	-0.48256	1.2526426311	-9.7842516114	0.1543370577	0.004123340343	0.017104226607999998	-0.018784106006999996	0.14181	1.14289	-1.12868	13.65088	-2.82432	14.59232	0.9952134221564273	33.34
70343	7416600	0	151	-1363	34	-16	98	55	315	1095	-3067	156	-1377	5	61	20	-93	179	2827	-838	400	-192	416	33.18	0.9906637058968664	33.5	0.9995953614606464	4449.478515625	-7309.845703125	38.59999847412109	6.713195323944092	3	0.0	0.0	0.0	0.0	0.0311752424431054	0.0	0.0	-0.0992874649788676	0.0	0.0	0.0	0.0	12	44.824641927083334	-73.16409505208334	1.0839486378	-9.7842516114	0.24406790520000002	1.1198409768	-9.884750160600001	0.035892339	-0.004886921888	0.029932396564	0.016798793989999998	0.018631389698	0.0061086523599999994	-0.028405233473999997	0.1827	0.6351	-1.77886	0.10382	1.6396600000000001	-0.48604	1.1018948073	-9.834500886	0.13998012210000002	0.0068722339050000004	0.018020524462	-0.005803219742	0.14326	1.13738	-1.13245	11.768	-5.64864	12.23872	0.9951295336787565	33.34
