	timestamp_s	timestamp_ms	imu1_accel_x	imu1_accel_y	imu1_accel_z	imu1_gyro_x	imu1_gyro_y	imu1_gyro_z	imu1_mag_x	imu1_mag_y	imu1_mag_z	imu2_accel_x	imu2_accel_y	imu2_accel_z	imu2_gyro_x	imu2_gyro_y	imu2_gyro_z	imu2_mag_x	imu2_mag_y	imu2_mag_z	high_g_accel_x	high_g_accel_y	high_g_accel_z	baro1_temp	baro1_pres	baro2_temp	baro2_pres	gps_lat	gps_long	gps_alt	battery_voltage	pyro_cont	pyro_status	heading	vtg	pos_x	pos_y	pos_z	vel_x	vel_y	vel_z	acc_x	acc_y	acc_z	q_x	q_y	q_z	q_w	state	gps_lat_mod	gps_long_mod	imu1_accel_x_real	imu1_accel_y_real	imu1_accel_z_real	imu2_accel_x_real	imu2_accel_y_real	imu2_accel_z_real	imu1_gyro_x_real	imu1_gyro_y_real	imu1_gyro_z_real	imu2_gyro_x_real	imu2_gyro_y_real	imu2_gyro_z_real	imu1_mag_x_real	imu1_mag_y_real	imu1_mag_z_real	imu2_mag_x_real	imu2_mag_y_real	imu2_mag_z_real	imu_accel_x_avg	imu_accel_y_avg	imu_accel_z_avg	imu_gyro_x_avg	imu_gyro_y_avg	imu_gyro_z_avg	imu_mag_x_avg	imu_mag_y_avg	imu_mag_z_avg	high_g_accel_x_real	high_g_accel_y_real	high_g_accel_z_real	baro_pres_avg	baro_temp_avg
6566	698.569	0	30	1308	-48	-136	225	70	297	-2126	-1622	61	1324	-86	6	20	102	536	-314	114	-16	48	464	57.84	0.9040019738465336	61.58	0.9044756970145572	3429.841552734375	-11657.58203125	869.5999755859375	11.9163818359375	11	0	0.0	0.0	0.0	0.0	-0.11189490115225004	-0.34696291967507537	0.0	0.0	9.4468636248	-0.32662028489999995	0.4809573426	-0.2954261302947998	-0.6237339377403259	-0.2753716707229614	0.6692159175872803	7	34.49735921223958	-116.95970052083334	0.215354034	9.3894358824	-0.3445664544	0.43788653580000003	9.5042913672	-0.6173482308	-0.041538836047999995	0.06872233905	0.021380283259999997	0.001832595708	0.0061086523599999994	0.031154127036	0.17226	-1.23308	-0.94076	0.31088	-0.18212	0.06612	0.3266202849	9.4468636248	-0.4809573426	-0.01985312017	0.037415495704999996	0.026267205147999996	0.24157	-0.7076	-0.43732000000000004	-0.47072	1.41216	13.65088	0.9042388354305454	59.71
6567	698.674	0	29	1312	-41	-135	228	70	319	-2117	-1622	57	1320	-73	6	14	100	544	-329	117	-128	32	384	57.84	0.9039624969158648	61.6	0.9042684431285468	3429.841552734375	-11657.58203125	869.5999755859375	11.9327392578125	11	0	0.0	0.0	0.0	0.0	-0.15671499445580506	-0.3890586410260739	0.0	0.0	9.4468636248	-0.3086741154	0.4091726646	-0.29532507061958313	-0.6237459182739258	-0.2753693759441376	0.6692501902580261	7	34.49735921223958	-116.95970052083334	0.2081755662	9.4181497536	-0.2943171798	0.4091726646	9.475577496	-0.5240281494	-0.041233403429999996	0.06963863690399999	0.021380283259999997	0.001832595708	0.004276056651999999	0.0305432618	0.18502	-1.22786	-0.94076	0.31552	-0.19082	0.06786	0.3086741154	9.446863624799999	-0.4091726646	-0.019700403861	0.03695734677799999	0.025961772529999996	0.25027	-0.70934	-0.43645	-3.76576	0.94144	11.29728	0.9041154700222058	59.72
6568	698.78	0	31	1311	-44	-124	203	72	319	-2117	-1622	62	1329	-87	9	14	88	544	-329	117	16	112	464	57.85	0.903972366148532	61.59	0.9044855662472244	3429.841552734375	-11657.58203125	869.5999755859375	11.9163818359375	11	0	0.0	0.0	0.0	0.0	-0.16171450194786902	-0.3896008102730833	0.0	0.0	9.475577496	-0.3337987527	0.47018964090000004	-0.2952774167060852	-0.6237198114395142	-0.2753989696502685	0.6692834496498108	7	34.49735921223958	-116.95970052083334	0.2225325018	9.4109712858	-0.31585258320000004	0.4450650036	9.5401837062	-0.6245266986	-0.037873644632	0.062002821454	0.021991148496	0.002748893562	0.004276056651999999	0.026878070384	0.18502	-1.22786	-0.94076	0.31552	-0.19082	0.06786	0.33379875270000003	9.475577496	-0.47018964090000004	-0.017562375535	0.033139439053	0.024434609439999998	0.25027	-0.70934	-0.43645	0.47072	3.29504	13.65088	0.9042289661978782	59.72
6569	698.885	0	41	1305	-41	-145	229	69	304	-2125	-1621	75	1327	-75	-3	20	96	541	-338	115	-16	80	432	57.84	0.9041302738712064	61.6	0.9043770046878856	3429.841552734375	-11657.58203125	869.5999755859375	11.9000244140625	11	0	0.0	0.0	0.0	0.0	-0.19385098533815825	-0.4153108452118584	0.0	0.0	9.4468636248	-0.41635113240000005	0.41635113240000005	-0.2953574061393738	-0.6236693859100342	-0.27541929483413696	0.6692867875099182	7	34.49735921223958	-116.95970052083334	0.2943171798	9.367900479000001	-0.2943171798	0.538385085	9.5258267706	-0.538385085	-0.04428772961	0.069944069522	0.021074850641999997	-0.000916297854	0.0061086523599999994	0.029321531328	0.17632	-1.2325	-0.94018	0.31378	-0.19604	0.0667	0.4163511324	9.4468636248	-0.4163511324	-0.022602013732	0.038026360940999995	0.025198190985	0.24505	-0.71427	-0.43674	-0.47072	2.3536	12.70944	0.9042536392795459	59.72
6570	698.997	0	30	1308	-40	-133	221	78	304	-2125	-1621	55	1325	-77	7	7	93	541	-338	115	-32	96	432	57.85	0.903972366148532	61.59	0.9043079200592152	3429.841552734375	-11657.58203125	869.5	11.9000244140625	11	0	0.0	0.0	0.0	0.0	-0.2069014626458351	-0.4165390187428277	0.0	0.0	9.4504528587	-0.3050848815	0.41994036630000003	-0.2951700985431671	-0.6236886382102966	-0.2754296958446503	0.6693471074104309	7	34.49735921223958	-116.95970052083334	0.215354034	9.3894358824	-0.287138712	0.394815729	9.511469835	-0.5527420206	-0.040622538193999996	0.067500608578	0.023823744204	0.0021380283259999997	0.0021380283259999997	0.028405233473999997	0.17632	-1.2325	-0.94018	0.31378	-0.19604	0.0667	0.3050848815	9.4504528587	-0.4199403663	-0.019242254934	0.034819318452	0.026114488839	0.24505	-0.71427	-0.43674	-0.94144	2.82432	12.70944	0.9041401431038736	59.72
6571	699.102	0	41	1309	-40	-149	207	68	283	-2113	-1597	76	1322	-75	-3	4	85	507	-341	85	-16	112	544	57.85	0.9040907969405378	61.6	0.904278312361214	3429.841552734375	-11657.58203125	869.5	11.9000244140625	11	0	0.0	0.0	0.0	0.0	-0.21007881733554132	-0.4054172500285329	0.0	0.0	9.443274390900001	-0.41994036630000003	0.4127618985	-0.29515358805656433	-0.6236266493797302	-0.2754504382610321	0.6694036722183228	7	34.49735921223958	-116.95970052083334	0.2943171798	9.3966143502	-0.287138712	0.5455635528	9.4899344316	-0.538385085	-0.045509460082	0.063224551926	0.020769418023999998	-0.000916297854	0.001221730472	0.02596177253	0.16414	-1.22554	-0.92626	0.29406	-0.19778	0.049300000000000004	0.4199403663	9.443274390900001	-0.4127618985	-0.023212878968	0.032223141199	0.023365595277	0.2291	-0.7116600000000001	-0.43848	-0.47072	3.29504	16.00448	0.904184554650876	59.725
6572	699.208	0	23	1304	-30	-128	214	73	283	-2113	-1597	62	1329	-67	14	4	78	507	-341	85	-16	128	496	57.84	0.9040710584752036	61.58	0.9042388354305452	3429.841552734375	-11657.58203125	869.5	11.9490966796875	11	0	0.0	0.0	0.0	0.0	-0.1408830076486295	-0.3230057145936589	0.0	0.0	9.4504528587	-0.3050848815	0.3481556883	-0.2950057089328766	-0.6236457824707031	-0.2754276990890503	0.6694602966308594	7	34.49735921223958	-116.95970052083334	0.1651047594	9.3607220112	-0.215354034	0.4450650036	9.5401837062	-0.4809573426	-0.039095375104	0.065362580252	0.022296581114	0.004276056651999999	0.001221730472	0.023823744204	0.16414	-1.22554	-0.92626	0.29406	-0.19778	0.049300000000000004	0.3050848815	9.4504528587	-0.3481556883	-0.017409659225999997	0.033292155361999996	0.023060162659	0.2291	-0.7116600000000001	-0.43848	-0.47072	3.76576	14.59232	0.9041549469528745	59.71
6573	699.313	0	39	1304	-41	-125	214	70	287	-2109	-1610	68	1326	-80	7	12	99	505	-313	88	-64	112	512	57.85	0.9041401431038736	61.59	0.9043770046878856	3429.841552734375	-11657.58203125	869.5	11.9163818359375	11	0	0.0	0.0	0.0	0.0	-0.07359269509772498	-0.25994261891002657	0.0	0.0	9.439685157000001	-0.3840480273	0.4342973018999999	-0.2950069308280945	-0.6236159205436707	-0.2754371464252472	0.6694837808609009	7	34.49735921223958	-116.95970052083334	0.2799602442	9.3607220112	-0.2943171798	0.48813581040000004	9.5186483028	-0.574277424	-0.03817907725	0.065362580252	0.021380283259999997	0.0021380283259999997	0.003665191416	0.030237829182	0.16646	-1.22322	-0.9338	0.2929	-0.18154	0.05104	0.3840480273	9.439685157	-0.43429730190000004	-0.018020524462	0.034513885833999995	0.025809056221	0.22968	-0.70238	-0.44138	-1.88288	3.29504	15.06304	0.9042585738958796	59.72
6574	699.418	0	30	1304	-42	-128	214	69	287	-2109	-1610	59	1326	-79	6	10	92	505	-313	88	-16	96	432	57.84	0.9043671354552184	61.6	0.904228966197878	3429.841552734375	-11657.58203125	869.5	11.9163818359375	11	0	0.0	0.0	0.0	0.0	-0.060531989923119686	-0.2576599040139005	0.0	0.0	9.439685157000001	-0.3194418171	0.4342973018999999	-0.29484423995018005	-0.6236727237701416	-0.27541205286979675	0.6695128679275513	7	34.49735921223958	-116.95970052083334	0.215354034	9.3607220112	-0.3014956476	0.4235296002	9.5186483028	-0.5670989562000001	-0.039095375104	0.065362580252	0.021074850641999997	0.001832595708	0.0030543261799999997	0.028099800855999998	0.16646	-1.22322	-0.9338	0.2929	-0.18154	0.05104	0.3194418171	9.439685157	-0.43429730190000004	-0.018631389698	0.034208453215999995	0.024587325748999998	0.22968	-0.70238	-0.44138	-0.47072	2.82432	12.70944	0.9042980508265481	59.72
6575	699.524	0	39	1301	-32	-124	208	76	284	-2127	-1635	70	1323	-84	10	16	95	527	-333	109	16	144	512	57.84	0.9041302738712064	61.58	0.9042980508265482	3429.841552734375	-11657.58203125	869.5	11.9490966796875	11	0	0.0	0.0	0.0	0.0	0.010941925508356942	-0.19010297192311665	0.0	0.0	9.418149753599998	-0.3912264951	0.41635113240000005	-0.2948828637599945	-0.6236298084259033	-0.2754107415676117	0.6695364117622375	7	34.49735921223958	-116.95970052083334	0.2799602442	9.3391866078	-0.2297109696	0.502492746	9.497112899400001	-0.6029912952	-0.037873644632	0.063529984544	0.023212878968	0.0030543261799999997	0.004886921888	0.029016098709999997	0.16472	-1.23366	-0.9483	0.30566	-0.19314	0.06322	0.3912264951	9.418149753600002	-0.41635113240000005	-0.017409659226	0.034208453215999995	0.026114488839	0.23519	-0.7134	-0.44254000000000004	0.47072	4.23648	15.06304	0.9042141623488773	59.71
6576	699.629	0	42	1311	-40	-139	218	70	284	-2127	-1635	67	1326	-86	11	3	89	527	-333	109	-64	0	384	57.85	0.9042684431285468	61.58	0.9042881815938809	3429.841552734375	-11657.58203125	869.5	11.9163818359375	11	0	0.0	0.0	0.0	0.0	-0.008932860741388916	-0.2270786506192861	0.0	0.0	9.464809794299999	-0.3912264951	0.4522434713999999	-0.2471044957637787	-0.6439285278320312	-0.2319943308830261	0.6859111785888672	7	34.49735921223958	-116.95970052083334	0.3014956476	9.4109712858	-0.287138712	0.4809573426	9.5186483028	-0.6173482308	-0.042455133901999995	0.06658431072399999	0.021380283259999997	0.003359758798	0.000916297854	0.027183503002	0.16472	-1.23366	-0.9483	0.30566	-0.19314	0.06322	0.3912264951	9.4648097943	-0.4522434714	-0.019547687552	0.033750304289	0.024281893130999998	0.23519	-0.7134	-0.44254000000000004	-1.88288	0.0	11.29728	0.9042783123612139	59.715
6577	699.735	0	45	1307	-41	-131	214	69	291	-2118	-1630	74	1324	-81	7	15	96	537	-322	86	112	48	336	57.85	0.9039131507525291	61.59	0.9043770046878856	3429.841552734375	-11657.58203125	869.5	11.9163818359375	11	0	0.0	0.0	0.0	0.0	0.10626262541831767	-0.12436554560359615	0.0	0.0	9.443274390900001	-0.4271188341	0.4378865357999999	-0.2470826208591461	-0.6438707709312439	-0.23199304938316345	0.6859737038612366	7	34.49735921223958	-116.95970052083334	0.323031051	9.3822574146	-0.2943171798	0.5312066172000001	9.5042913672	-0.5814558918	-0.040011672958	0.065362580252	0.021074850641999997	0.0021380283259999997	0.00458148927	0.029321531328	0.16878	-1.22844	-0.9454	0.31146	-0.18676	0.04988	0.42711883410000007	9.443274390900001	-0.43788653580000003	-0.018936822316	0.034972034761	0.025198190985	0.24012	-0.7076	-0.44776	3.29504	1.41216	9.88512	0.9041450777202074	59.72
6578	699.84	0	39	1305	-48	-134	218	67	291	-2118	-1630	73	1328	-83	6	20	87	537	-322	86	-128	32	384	57.84	0.9040809277078709	61.59	0.9045447816432272	3429.841552734375	-11657.58203125	869.5	11.9163818359375	11	0	0.0	0.0	0.0	0.0	0.1065888399978188	-0.15268502713723087	0.0	0.0	9.4504528587	-0.4019941968	0.47018964090000004	-0.2470279633998871	-0.6438685059547424	-0.2319668531417847	0.6860043406486511	7	34.49735921223958	-116.95970052083334	0.2799602442	9.367900479000001	-0.3445664544	0.5240281494	9.533005238400001	-0.5958128274000001	-0.040927970811999996	0.06658431072399999	0.020463985405999998	0.001832595708	0.0061086523599999994	0.026572637766	0.16878	-1.22844	-0.9454	0.31146	-0.18676	0.04988	0.4019941968	9.4504528587	-0.47018964090000004	-0.019547687552	0.03634648154199999	0.023518311586	0.24012	-0.7076	-0.44776	-3.76576	0.94144	11.29728	0.904312854675549	59.715
6579	699.946	0	42	1301	-37	-137	221	72	293	-2117	-1610	71	1327	-75	5	30	101	520	-310	122	-64	64	448	57.84	0.9043671354552184	61.59	0.9043770046878856	3429.841552734375	-11657.58203125	869.5	11.9163818359375	11	0	0.0	0.0	0.0	0.0	0.054439982479433636	-0.22986023680014145	0.0	0.0	9.432506689199998	-0.4055834306999999	0.4019941967999999	-0.2469946891069412	-0.6438795328140259	-0.2319588512182236	0.6860087513923645	7	34.49735921223958	-116.95970052083334	0.3014956476	9.3391866078	-0.26560330860000003	0.5096712138	9.5258267706	-0.538385085	-0.041844268665999995	0.067500608578	0.021991148496	0.0015271630899999999	0.00916297854	0.030848694418	0.16994	-1.22786	-0.9338	0.3016	-0.1798	0.07076	0.4055834307	9.4325066892	-0.40199419680000004	-0.020158552788	0.038331793559	0.026419921457	0.23576999999999998	-0.70383	-0.43151999999999996	-1.88288	1.88288	13.18016	0.9043720700715521	59.715
6580	700.051	0	34	1300	-43	-134	215	70	285	-2126	-1600	70	1324	-83	4	21	94	520	-310	122	-16	160	448	57.84	0.9041894892672094	61.59	0.9044263508512214	3429.841552734375	-11657.58203125	869.5	11.9490966796875	11	0	0.0	0.0	0.0	0.0	-0.03881749499628097	-0.33610474976300336	0.0	0.0	9.418149753599998	-0.3732803256	0.4522434714	-0.246888667345047	-0.6438567638397217	-0.2319764047861099	0.6860622763633728	7	34.49735921223958	-116.95970052083334	0.24406790520000002	9.332008140000001	-0.3086741154	0.502492746	9.5042913672	-0.5958128274000001	-0.040927970811999996	0.06566801287	0.021380283259999997	0.001221730472	0.006414084978	0.028710666091999997	0.1653	-1.23308	-0.928	0.3016	-0.1798	0.07076	0.3732803256	9.418149753600002	-0.45224347140000004	-0.01985312017	0.036041048924	0.025045474675999997	0.23345	-0.70644	-0.42862	-0.47072	4.7072	13.18016	0.9043079200592155	59.715
6581	700.157	0	49	1305	-30	-143	224	70	285	-2126	-1600	72	1324	-65	-4	14	82	520	-332	109	-128	48	448	57.84	0.9040809277078709	61.59	0.9041401431038736	3429.841552734375	-11657.58203125	869.5	11.9163818359375	11	0	0.0	0.0	0.0	0.0	0.07166885207114071	-0.2210688443301036	0.0	0.0	9.436095923099998	-0.4342973019	0.3409772205	-0.2469452768564224	-0.6437778472900391	-0.23200957477092746	0.6861047148704529	7	34.49735921223958	-116.95970052083334	0.35174492220000003	9.367900479000001	-0.215354034	0.5168496816	9.5042913672	-0.466600407	-0.043676864374	0.06841690643199999	0.021380283259999997	-0.001221730472	0.004276056651999999	0.025045474675999997	0.1653	-1.23308	-0.928	0.3016	-0.19256	0.06322	0.43429730190000004	9.436095923100002	-0.3409772205	-0.022449297423	0.03634648154199999	0.023212878968	0.23345	-0.71282	-0.43239000000000005	-3.76576	1.41216	13.18016	0.9041105354058723	59.715
6582	700.262	0	33	1305	-41	-133	223	69	287	-2112	-1593	65	1329	-77	6	30	94	520	-332	109	0	112	560	57.86	0.904159881569208	61.59	0.9041401431038736	3429.841552734375	-11657.58203125	869.5	11.9163818359375	11	0	0.0	0.0	0.0	0.0	0.09279998431271183	-0.2099673945273836	0.0	0.0	9.454042092599998	-0.3517449222	0.4235296002	-0.2468460202217102	-0.6437979936599731	-0.2319836467504501	0.6861302852630615	7	34.49735921223958	-116.95970052083334	0.2368894374	9.367900479000001	-0.2943171798	0.466600407	9.5401837062	-0.5527420206	-0.040622538193999996	0.068111473814	0.021074850641999997	0.001832595708	0.00916297854	0.028710666091999997	0.16646	-1.22496	-0.92394	0.3016	-0.19256	0.06322	0.3517449222	9.454042092600002	-0.42352960019999997	-0.019394971243	0.038637226177	0.024892758366999997	0.23403	-0.7087600000000001	-0.43035999999999996	0.0	3.29504	16.4752	0.9041500123365408	59.725
6583	700.367	0	37	1298	-36	-136	217	66	287	-2112	-1593	82	1319	-69	4	10	92	498	-330	116	-32	64	384	57.83	0.9041697508018752	61.59	0.9043079200592152	3429.841552734375	-11657.58203125	869.5	11.9163818359375	11	0	0.0	0.0	0.0	0.0	0.006780314251622142	-0.3117183179122577	0.0	0.0	9.3930251163	-0.4271188341	0.3768695595	-0.246894970536232	-0.6437622308731079	-0.23199988901615146	0.686140775680542	7	34.49735921223958	-116.95970052083334	0.26560330860000003	9.3176512044	-0.2584248408	0.5886343596	9.4683990282	-0.4953142782	-0.041538836047999995	0.066278878106	0.020158552788	0.001221730472	0.0030543261799999997	0.028099800855999998	0.16646	-1.22496	-0.92394	0.28884	-0.19140000000000001	0.06728	0.4271188341	9.3930251163	-0.3768695595	-0.020158552788	0.034666602143	0.024129176821999998	0.22765	-0.70818	-0.42833	-0.94144	1.88288	11.29728	0.9042388354305453	59.71
6584	700.473	0	32	1308	-33	-131	219	73	282	-2125	-1613	63	1326	-78	4	15	86	498	-330	116	-112	-32	480	57.86	0.9043276585245498	61.6	0.9043868739205528	3429.841552734375	-11657.58203125	869.5	11.9000244140625	11	0	0.0	0.0	0.0	0.0	-0.00041707939279762163	-0.3259645781294014	0.0	0.0	9.454042092599998	-0.34097722049999996	0.3984049629	-0.24678656458854675	-0.6437612771987915	-0.2319994866847992	0.686180830001831	7	34.49735921223958	-116.95970052083334	0.2297109696	9.3894358824	-0.2368894374	0.45224347140000004	9.5186483028	-0.5599204884	-0.040011672958	0.066889743342	0.022296581114	0.001221730472	0.00458148927	0.026267205148	0.16356	-1.2325	-0.93554	0.28884	-0.19140000000000001	0.06728	0.3409772205	9.454042092600002	-0.3984049629	-0.019394971243	0.035735616306	0.024281893131	0.2262	-0.71195	-0.43413	-3.29504	-0.94144	14.1216	0.9043572662225513	59.730000000000004
6585	700.578	0	51	1305	-34	-135	228	74	282	-2125	-1613	75	1323	-80	-1	16	87	511	-326	93	0	48	464	57.85	0.9043177892918826	61.6	0.9042684431285468	3429.841552734375	-11657.58203125	869.5	11.9163818359375	11	0	0.0	0.0	0.0	0.0	0.012542265132748677	-0.31152373492787194	0.0	0.0	9.4325066892	-0.4522434714	0.4091726646	-0.2468387931585312	-0.6436924934387207	-0.2320231795310974	0.6862185001373291	7	34.49735921223958	-116.95970052083334	0.36610185780000004	9.367900479000001	-0.24406790520000002	0.538385085	9.497112899400001	-0.574277424	-0.041233403429999996	0.06963863690399999	0.022602013732	-0.000305432618	0.004886921888	0.026572637766	0.16356	-1.2325	-0.93554	0.29638	-0.18908	0.05394	0.45224347140000004	9.4325066892	-0.4091726646	-0.020769418023999998	0.03726277939599999	0.024587325749	0.22997	-0.7107899999999999	-0.4408	0.0	1.41216	13.65088	0.9042931162102147	59.725
6586	700.684	0	32	1305	-27	-142	217	74	278	-2106	-1645	67	1324	-71	2	14	91	511	-326	93	-32	96	384	57.84	0.9042487046632124	61.59	0.9042487046632124	3429.841552734375	-11657.58203125	869.5	11.9163818359375	11	0	0.0	0.0	0.0	0.0	0.07938174208611484	-0.2442121425082188	0.0	0.0	9.436095923099998	-0.3553341561	0.3517449222	-0.2958051264286041	-0.6251630783081055	-0.2774190306663513	0.6668652296066284	7	34.49735921223958	-116.95970052083334	0.2297109696	9.367900479000001	-0.1938186306	0.4809573426	9.5042913672	-0.5096712138	-0.043371431756	0.066278878106	0.022602013732	0.000610865236	0.004276056651999999	0.027794368237999998	0.16124	-1.22148	-0.9541000000000001	0.29638	-0.18908	0.05394	0.3553341561	9.436095923100002	-0.35174492220000003	-0.02138028326	0.035277467379	0.025198190985	0.22880999999999999	-0.7052799999999999	-0.45008000000000004	-0.94144	2.82432	11.29728	0.9042487046632124	59.715
6587	700.789	0	48	1302	-39	-136	228	72	278	-2106	-1645	78	1326	-76	12	16	100	523	-348	142	-80	96	480	57.85	0.9042585738958796	61.59	0.9043177892918826	3429.841552734375	-11657.58203125	869.5	11.9000244140625	11	0	0.0	0.0	0.0	0.0	0.055256708380500986	-0.28116908842557303	0.0	0.0	9.4325066892	-0.4522434714	0.4127618985	-0.2958005666732788	-0.6251082420349121	-0.2774256765842438	0.6669159531593323	7	34.49735921223958	-116.95970052083334	0.3445664544	9.3463650756	-0.2799602442	0.5599204884	9.5186483028	-0.5455635528	-0.041538836047999995	0.06963863690399999	0.021991148496	0.003665191416	0.004886921888	0.0305432618	0.16124	-1.22148	-0.9541000000000001	0.30334	-0.20184	0.08236	0.4522434714	9.4325066892	-0.4127618985	-0.018936822315999996	0.03726277939599999	0.026267205148	0.23229	-0.71166	-0.43587000000000004	-2.3536	2.82432	14.1216	0.904288181593881	59.72
6588	700.895	0	42	1302	-26	-141	205	71	285	-2124	-1645	63	1321	-73	10	-4	89	523	-348	142	-32	128	432	57.84	0.9042487046632124	61.58	0.904347396989884	3429.841552734375	-11657.58203125	869.5	11.9490966796875	11	0	0.0	0.0	0.0	0.0	0.050205921527140686	-0.29419017094537586	0.0	0.0	9.4145605197	-0.3768695595	0.3553341561	-0.29573625326156616	-0.6251446604728699	-0.2774286866188049	0.6669089794158936	7	34.49735921223958	-116.95970052083334	0.3014956476	9.3463650756	-0.1866401628	0.45224347140000004	9.4827559638	-0.5240281494	-0.043065999138	0.06261368669	0.021685715878	0.0030543261799999997	-0.001221730472	0.027183503002	0.1653	-1.23192	-0.9541000000000001	0.30334	-0.20184	0.08236	0.3768695595	9.4145605197	-0.35533415609999996	-0.020005836479000002	0.030695978109000002	0.024434609439999998	0.23432	-0.71688	-0.43587000000000004	-0.94144	3.76576	12.70944	0.9042980508265481	59.71
6589	701.0	0	39	1306	-42	-116	219	74	285	-2124	-1645	68	1331	-87	15	8	100	522	-354	107	-16	48	544	57.83	0.9039921046138664	61.59	0.9042585738958796	3429.841552734375	-11657.58203125	869.5	11.9163818359375	11	0	0.0	0.0	0.0	0.0	-0.00710680182320967	-0.35429222750006417	0.0	0.0	9.464809794299999	-0.3840480273	0.4630111731	-0.2956552505493164	-0.6251001358032227	-0.277408242225647	0.6669951677322388	7	34.49735921223958	-116.95970052083334	0.2799602442	9.3750789468	-0.3014956476	0.48813581040000004	9.554540641800001	-0.6245266986	-0.035430183688	0.066889743342	0.022602013732	0.00458148927	0.002443460944	0.0305432618	0.1653	-1.23192	-0.9541000000000001	0.30276000000000003	-0.20532	0.06206	0.3840480273	9.4648097943	-0.4630111731	-0.015424347209000001	0.034666602143	0.026572637766	0.23403000000000002	-0.7186199999999999	-0.44602	-0.47072	1.41216	16.00448	0.9041253392548729	59.71
6590	701.105	0	35	1303	-31	-132	186	68	293	-2105	-1633	63	1322	-68	9	-12	90	522	-354	107	-128	32	448	57.85	0.9042092277325438	61.58	0.9043572662225512	3429.841552734375	-11657.58203125	869.5	11.9327392578125	11	0	0.0	0.0	0.0	0.0	0.10025339603777512	-0.2424421654867868	0.0	0.0	9.4217389875	-0.3517449222	0.3553341561	-0.2957289218902588	-0.6250826120376587	-0.2774355411529541	0.6669676303863525	7	34.49735921223958	-116.95970052083334	0.251246373	9.3535435434	-0.2225325018	0.45224347140000004	9.4899344316	-0.48813581040000004	-0.040317105576	0.056810466947999995	0.020769418023999998	0.002748893562	-0.003665191416	0.02748893562	0.16994	-1.2209	-0.94714	0.30276000000000003	-0.20532	0.06206	0.35174492220000003	9.4217389875	-0.3553341561	-0.018784106007	0.026572637765999996	0.024129176821999998	0.23635	-0.71311	-0.44254	-3.76576	0.94144	13.18016	0.9042832469775475	59.715
6591	701.211	0	44	1307	-36	-139	231	84	293	-2105	-1633	76	1323	-79	10	17	110	517	-324	118	-48	32	400	57.85	0.9040809277078709	61.59	0.9044263508512214	3429.841552734375	-11657.58203125	869.5	11.9490966796875	11	0	0.0	0.0	0.0	0.0	0.011897147037458096	-0.3446103093642324	0.0	0.0	9.439685157000001	-0.430708068	0.4127618985	-0.29561999440193176	-0.6250290274620056	-0.27743569016456604	0.6670659780502319	7	34.49735921223958	-116.95970052083334	0.31585258320000004	9.3822574146	-0.2584248408	0.5455635528	9.497112899400001	-0.5670989562000001	-0.042455133901999995	0.070554934758	0.025656339912	0.0030543261799999997	0.005192354505999999	0.033597587979999996	0.16994	-1.2209	-0.94714	0.29986	-0.18792	0.06844	0.43070806800000005	9.439685157	-0.4127618985	-0.019700403861	0.037873644632	0.029626963946	0.2349	-0.7044100000000001	-0.43935	-1.41216	0.94144	11.768	0.9042536392795462	59.72
6592	701.316	0	26	1308	-36	-139	204	62	269	-2106	-1612	56	1330	-80	2	-11	78	517	-324	118	80	80	528	57.85	0.9042585738958796	61.59	0.9044263508512214	3429.841552734375	-11657.58203125	869.5	11.9490966796875	11	0	0.0	0.0	0.0	0.0	0.05273409134683925	-0.3008058817351208	0.0	0.0	9.4683990282	-0.2943171798	0.41635113240000005	-0.2954947650432587	-0.6250289678573608	-0.2774240970611572	0.6671263575553894	7	34.49735921223958	-116.95970052083334	0.1866401628	9.3894358824	-0.2584248408	0.40199419680000004	9.547362174	-0.574277424	-0.042455133901999995	0.062308254072	0.018936822316	0.000610865236	-0.003359758798	0.023823744204	0.15602	-1.22148	-0.93496	0.29986	-0.18792	0.06844	0.29431717980000005	9.4683990282	-0.4163511324	-0.020922134332999998	0.029474247637	0.02138028326	0.22794	-0.7047	-0.43326	2.3536	2.3536	15.533760000000001	0.9043424623735505	59.72
6593	701.422	0	39	1307	-29	-125	217	78	269	-2106	-1612	70	1317	-66	21	22	102	537	-341	141	-16	128	512	57.85	0.9042092277325438	61.59	0.9044263508512214	3429.841552734375	-11657.58203125	869.5	11.9163818359375	11	0	0.0	0.0	0.0	0.0	-0.009695467907643824	-0.37085078942968336	0.0	0.0	9.4181497536	-0.3912264951	0.34097722049999996	-0.29547756910324097	-0.6250467896461487	-0.2774075567722321	0.6671241521835327	7	34.49735921223958	-116.95970052083334	0.2799602442	9.3822574146	-0.2081755662	0.502492746	9.4540420926	-0.4737788748	-0.03817907725	0.066278878106	0.023823744204	0.006414084978	0.006719517596	0.031154127036	0.15602	-1.22148	-0.93496	0.31146	-0.19778	0.08178	0.3912264951	9.4181497536	-0.3409772205	-0.015882496136	0.036499197851	0.02748893562	0.23374	-0.70963	-0.42659	-0.47072	3.76576	15.06304	0.9043177892918826	59.72
6594	701.527	0	33	1306	-44	-145	200	56	297	-2131	-1639	58	1317	-74	-1	-2	82	537	-341	141	-32	16	400	57.84	0.903903281519862	61.6	0.904278312361214	3429.841552734375	-11657.58203125	869.5	11.9163818359375	11	0	0.0	0.0	0.0	0.0	0.07271391471954579	-0.283467231769732	0.0	0.0	9.4145605197	-0.3266202849	0.4235296002	-0.29535916447639465	-0.6249969005584717	-0.2774238884449005	0.6672165989875793	7	34.49735921223958	-116.95970052083334	0.2368894374	9.3750789468	-0.31585258320000004	0.4163511324	9.4540420926	-0.5312066172000001	-0.04428772961	0.0610865236	0.017104226607999998	-0.000305432618	-0.000610865236	0.025045474675999997	0.17226	-1.23598	-0.95062	0.31146	-0.19778	0.08178	0.3266202849	9.4145605197	-0.4235296002000001	-0.022296581114	0.030237829182	0.021074850641999997	0.24186000000000002	-0.7168800000000001	-0.43442000000000003	-0.94144	0.47072	11.768	0.9040907969405381	59.72
6595	701.633	0	44	1301	-32	-121	219	82	297	-2131	-1639	75	1326	-62	11	10	96	512	-316	143	-48	0	416	57.84	0.9041894892672094	61.59	0.9044263508512214	3429.841552734375	-11657.58203125	869.5	11.9163818359375	11	0	0.0	0.0	0.0	0.0	0.06859064126174612	-0.2970869752501744	0.0	0.0	9.4289174553	-0.4271188341	0.3373879866	-0.2853981256484985	-0.6262432336807251	-0.26457127928733826	0.675551176071167	7	34.49735921223958	-116.95970052083334	0.31585258320000004	9.3391866078	-0.2297109696	0.538385085	9.5186483028	-0.4450650036	-0.036957346778	0.066889743342	0.025045474675999997	0.003359758798	0.0030543261799999997	0.029321531328	0.17226	-1.23598	-0.95062	0.29696	-0.18328	0.08294	0.42711883410000007	9.4289174553	-0.3373879866	-0.01679879399	0.034972034761	0.027183503002	0.23460999999999999	-0.70963	-0.43384	-1.41216	0.0	12.23872	0.9043079200592155	59.715
6596	701.738	0	33	1310	-44	-143	202	63	282	-2152	-1635	53	1325	-76	-10	2	93	512	-316	143	16	-32	400	57.85	0.9042684431285468	61.59	0.9044756970145572	3429.841552734375	-11657.58203125	869.5	11.9163818359375	11	0	0.0	0.0	0.0	0.0	0.030865681864649393	-0.3439767621830108	0.0	0.0	9.4576313265	-0.3086741154	0.430708068	-0.2852066159248352	-0.6261906027793884	-0.264606773853302	0.6756669282913208	7	34.49735921223958	-116.95970052083334	0.2368894374	9.403792818000001	-0.31585258320000004	0.3804587934	9.511469835	-0.5455635528	-0.043676864374	0.061697388836	0.019242254934	-0.0030543261799999997	0.000610865236	0.028405233473999997	0.16356	-1.24816	-0.9483	0.29696	-0.18328	0.08294	0.3086741154	9.4576313265	-0.43070806800000005	-0.023365595277	0.031154127036	0.023823744204	0.23026000000000002	-0.7157199999999999	-0.43268	0.47072	-0.94144	11.768	0.9043720700715521	59.72
6597	701.847	0	45	1306	-30	-108	224	75	302	-2119	-1626	72	1319	-79	17	13	106	528	-324	103	-128	-16	448	57.85	0.9042585738958796	61.58	0.9042980508265482	3429.841552734375	-11657.58203125	869.4000244140625	11.9490966796875	11	0	0.0	0.0	0.0	0.0	-0.005878461000596471	-0.3789157694066809	0.0	0.0	9.4217389875	-0.41994036630000003	0.3912264951	-0.2852538228034973	-0.6261995434761047	-0.2645801901817322	0.6756492257118225	7	34.49735921223958	-116.95970052083334	0.323031051	9.3750789468	-0.215354034	0.5168496816	9.4683990282	-0.5670989562000001	-0.032986722744	0.06841690643199999	0.02290744635	0.005192354505999999	0.003970624034	0.032375857508	0.17516	-1.22902	-0.94308	0.30624	-0.18792	0.05974	0.4199403663	9.4217389875	-0.3912264951	-0.013897184118999999	0.036193765233	0.027641651928999998	0.24070000000000003	-0.70847	-0.44167	-3.76576	-0.47072	13.18016	0.9042783123612139	59.715
6598	701.952	0	42	1306	-47	-145	211	72	302	-2119	-1626	77	1321	-86	-15	12	83	504	-349	111	-48	96	512	57.85	0.9042092277325438	61.58	0.9042980508265482	3429.841552734375	-11657.58203125	869.4000244140625	11.9327392578125	11	0	0.0	0.0	0.0	0.0	0.04990255653411308	-0.3207314668554246	0.0	0.0	9.4289174553	-0.4271188341	0.4773681086999999	-0.28517577052116394	-0.626129150390625	-0.2646174132823944	0.6757328510284424	7	34.49735921223958	-116.95970052083334	0.3014956476	9.3750789468	-0.3373879866	0.5527420206	9.4827559638	-0.6173482308	-0.04428772961	0.064446282398	0.021991148496	-0.00458148927	0.003665191416	0.025350907293999997	0.17516	-1.22902	-0.94308	0.29232	-0.20242	0.06438	0.4271188341	9.4289174553	-0.4773681087	-0.02443460944	0.034055736907	0.023671027895	0.23374	-0.71572	-0.43935	-1.41216	2.82432	15.06304	0.9042536392795459	59.715
6599	702.057	0	37	1308	-30	-123	226	76	292	-2103	-1625	70	1328	-72	18	13	101	504	-349	111	48	-16	368	57.85	0.9041993584998766	61.59	0.9041993584998766	3429.841552734375	-11657.58203125	869.4000244140625	11.9000244140625	11	0	0.0	0.0	0.0	0.0	-0.0017039728362735485	-0.3737668952128894	0.0	0.0	9.4612205604	-0.3840480273	0.3661018578	-0.28508469462394714	-0.6261743307113647	-0.2645909488201141	0.6757397055625916	7	34.49735921223958	-116.95970052083334	0.26560330860000003	9.3894358824	-0.215354034	0.502492746	9.533005238400001	-0.5168496816	-0.037568212014	0.06902777166799999	0.023212878968	0.005497787124	0.003970624034	0.030848694418	0.16936	-1.21974	-0.9425	0.29232	-0.20242	0.06438	0.38404802730000004	9.461220560400001	-0.3661018578	-0.016035212445	0.036499197851	0.027030786693	0.23084000000000002	-0.71108	-0.43906	1.41216	-0.47072	10.82656	0.9041993584998766	59.72
6600	702.163	0	43	1308	-36	-138	219	69	292	-2103	-1625	77	1321	-80	-2	11	88	519	-327	91	-32	112	544	57.85	0.9041401431038736	61.58	0.9042388354305452	3429.841552734375	-11657.58203125	869.4000244140625	11.9163818359375	11	0	0.0	0.0	0.0	0.0	-0.02463118264729578	-0.3909583097395334	0.0	0.0	9.436095923099998	-0.430708068	0.41635113240000005	-0.2850489318370819	-0.6261128187179565	-0.2646058797836304	0.6758059859275818	7	34.49735921223958	-116.95970052083334	0.3086741154	9.3894358824	-0.2584248408	0.5527420206	9.4827559638	-0.574277424	-0.042149701283999995	0.066889743342	0.021074850641999997	-0.000610865236	0.003359758798	0.026878070384	0.16936	-1.21974	-0.9425	0.30102	-0.18966	0.05278	0.430708068	9.436095923100002	-0.4163511324	-0.021380283259999997	0.03512475107	0.023976460512999998	0.23519	-0.7047	-0.44486	-0.94144	3.29504	16.00448	0.9041894892672093	59.715
6601	702.268	0	33	1305	-39	-119	221	78	293	-2119	-1600	55	1323	-75	17	9	90	519	-327	91	-80	-32	448	57.86	0.9043276585245498	61.6	0.9045053047125586	3429.841552734375	-11657.58203125	869.4000244140625	11.9000244140625	11	0	0.0	0.0	0.0	0.0	-0.098652436834147	-0.4647767754682304	0.0	0.0	9.4325066892	-0.3158525832	0.4091726646	-0.2849030494689941	-0.626125693321228	-0.2645843625068665	0.6758639812469482	7	34.49735921223958	-116.95970052083334	0.2368894374	9.367900479000001	-0.2799602442	0.394815729	9.497112899400001	-0.538385085	-0.036346481542	0.067500608578	0.023823744204	0.005192354505999999	0.002748893562	0.02748893562	0.16994	-1.22902	-0.928	0.30102	-0.18966	0.05278	0.3158525832	9.4325066892	-0.4091726646	-0.015577063518000001	0.03512475107	0.025656339911999997	0.23548000000000002	-0.70934	-0.43761	-2.3536	-0.94144	13.18016	0.9044164816185543	59.730000000000004
6602	702.374	0	47	1301	-38	-157	216	59	293	-2119	-1600	73	1318	-82	-11	15	85	521	-349	104	-32	64	400	57.85	0.9041993584998766	61.59	0.9042487046632124	3429.841552734375	-11657.58203125	869.4000244140625	11.9000244140625	11	0	0.0	0.0	0.0	0.0	-0.04593134260496931	-0.3942507289814092	0.0	0.0	9.400203584099998	-0.430708068	0.430708068	-0.28498178720474243	-0.6259976625442505	-0.2645717263221741	0.6759542226791382	7	34.49735921223958	-116.95970052083334	0.3373879866	9.3391866078	-0.2727817764	0.5240281494	9.461220560400001	-0.5886343596	-0.047952921025999996	0.065973445488	0.018020524462	-0.003359758798	0.00458148927	0.02596177253	0.16994	-1.22902	-0.928	0.30218	-0.20242	0.06032	0.430708068	9.400203584100002	-0.430708068	-0.025656339911999997	0.035277467379	0.021991148496	0.23606	-0.71572	-0.43384	-0.94144	1.88288	11.768	0.9042240315815445	59.72
6603	702.479	0	19	1313	-27	-127	225	73	278	-2114	-1626	49	1320	-78	15	15	101	521	-349	104	-64	48	368	57.85	0.9041993584998766	61.59	0.9041993584998766	3429.841552734375	-11657.58203125	869.4000244140625	11.9163818359375	11	0	0.0	0.0	0.0	0.0	0.01267833641369007	-0.3313350707808901	0.0	0.0	9.4504528587	-0.2440679052	0.3768695595	-0.2847013473510742	-0.6260501742362976	-0.2645944654941559	0.6760148406028748	7	34.49735921223958	-116.95970052083334	0.1363908882	9.425328221400001	-0.1938186306	0.35174492220000003	9.475577496	-0.5599204884	-0.038789942486	0.06872233905	0.022296581114	0.00458148927	0.00458148927	0.030848694418	0.16124	-1.22612	-0.94308	0.30218	-0.20242	0.06032	0.24406790520000002	9.4504528587	-0.3768695595	-0.017104226607999998	0.03665191416	0.026572637766	0.23171	-0.7142700000000001	-0.44138	-1.88288	1.41216	10.82656	0.9041993584998766	59.72
6604	702.585	0	59	1302	-45	-137	220	75	278	-2114	-1626	93	1319	-83	5	18	100	506	-337	123	48	16	464	57.84	0.9040217123118678	61.59	0.9043770046878856	3429.841552734375	-11657.58203125	869.4000244140625	11.8836669921875	11	0	0.0	0.0	0.0	0.0	0.008846865438512347	-0.33508857736871944	0.0	0.0	9.4073820519	-0.5455635528	0.4594219392	-0.2847996950149536	-0.6259223222732544	-0.2646446228027344	0.6760722398757935	7	34.49735921223958	-116.95970052083334	0.4235296002	9.3463650756	-0.323031051	0.6675975054000001	9.4683990282	-0.5958128274000001	-0.041844268665999995	0.06719517595999999	0.02290744635	0.0015271630899999999	0.005497787124	0.0305432618	0.16124	-1.22612	-0.94308	0.29348	-0.19546	0.07134	0.5455635528	9.4073820519	-0.4594219392000001	-0.020158552788	0.03634648154199999	0.026725354075	0.22736	-0.71079	-0.43587000000000004	1.41216	0.47072	13.65088	0.9041993584998766	59.715
6605	702.69	0	24	1304	-49	-130	204	67	298	-2112	-1626	57	1320	-88	13	6	94	506	-337	123	-48	96	432	57.85	0.9041500123365408	61.58	0.9043572662225512	3429.841552734375	-11657.58203125	869.4000244140625	11.9163818359375	11	0	0.0	0.0	0.0	0.0	0.009264443950949835	-0.3361375135732522	0.0	0.0	9.4181497536	-0.29072794589999995	0.4917250443	-0.3074950575828552	-0.6194144487380981	-0.28764694929122925	0.6625948548316956	7	34.49735921223958	-116.95970052083334	0.1722832272	9.3607220112	-0.35174492220000003	0.4091726646	9.475577496	-0.6317051664000001	-0.03970624034	0.062308254072	0.020463985405999998	0.003970624034	0.001832595708	0.028710666091999997	0.17284	-1.22496	-0.94308	0.29348	-0.19546	0.07134	0.2907279459	9.4181497536	-0.4917250443000001	-0.017867808153	0.03207042489	0.024587325748999998	0.23316	-0.71021	-0.43587000000000004	-1.41216	2.82432	12.70944	0.9042536392795459	59.715
6606	702.796	0	48	1307	-43	-124	216	64	298	-2112	-1626	86	1320	-79	13	22	97	531	-337	139	32	176	560	57.84	0.9041894892672094	61.59	0.9044756970145572	3429.841552734375	-11657.58203125	869.4000244140625	11.9327392578125	11	0	0.0	0.0	0.0	0.0	-0.02233788938101129	-0.3716893317903333	0.0	0.0	9.4289174553	-0.4809573426	0.4378865357999999	-0.30765098333358765	-0.6193424463272095	-0.2876438200473785	0.6625910401344299	7	34.49735921223958	-116.95970052083334	0.3445664544	9.3822574146	-0.3086741154	0.6173482308	9.475577496	-0.5670989562000001	-0.037873644632	0.065973445488	0.019547687552	0.003970624034	0.006719517596	0.029626963946	0.17284	-1.22496	-0.94308	0.30798	-0.19546	0.08062	0.4809573426	9.428917455299999	-0.43788653580000003	-0.016951510299	0.03634648154199999	0.024587325749	0.24040999999999998	-0.71021	-0.43123	0.94144	5.17792	16.4752	0.9043325931408833	59.715
6607	702.901	0	28	1314	-50	-139	221	67	301	-2132	-1585	56	1323	-82	-1	10	95	531	-337	139	32	96	528	57.84	0.9041894892672094	61.59	0.9044756970145572	3429.841552734375	-11657.58203125	869.4000244140625	11.9163818359375	11	0	0.0	0.0	0.0	0.0	-0.05682220283636168	-0.4047520510656675	0.0	0.0	9.464809794299999	-0.3014956476	0.4737788748	-0.30746594071388245	-0.619346022605896	-0.287660151720047	0.6626664996147156	7	34.49735921223958	-116.95970052083334	0.20099709840000002	9.4325066892	-0.35892339	0.40199419680000004	9.497112899400001	-0.5886343596	-0.042455133901999995	0.067500608578	0.020463985405999998	-0.000305432618	0.0030543261799999997	0.029016098709999997	0.17458	-1.23656	-0.9193	0.30798	-0.19546	0.08062	0.3014956476	9.4648097943	-0.4737788748	-0.021380283259999997	0.035277467379	0.024740042057999997	0.24128	-0.71601	-0.41934	0.94144	2.82432	15.533760000000001	0.9043325931408833	59.715
6608	703.006	0	43	1304	-46	-119	205	77	301	-2132	-1585	75	1321	-83	11	17	93	514	-332	117	-16	48	496	57.85	0.9042684431285468	61.59	0.9043770046878856	3429.841552734375	-11657.58203125	869.4000244140625	11.9327392578125	11	0	0.0	0.0	0.0	0.0	-0.1575161728480574	-0.5026117348462902	0.0	0.0	9.4217389875	-0.4235296002	0.4630111731	-0.3076103925704956	-0.6192789077758789	-0.2876753509044647	0.6626555919647217	7	34.49735921223958	-116.95970052083334	0.3086741154	9.3607220112	-0.3302095188	0.538385085	9.4827559638	-0.5958128274000001	-0.036346481542	0.06261368669	0.023518311586	0.003359758798	0.005192354505999999	0.028405233473999997	0.17458	-1.23656	-0.9193	0.29812	-0.19256	0.06786	0.4235296002	9.4217389875	-0.46301117310000006	-0.016493361372000002	0.033903020598	0.025961772529999996	0.23635	-0.7145600000000001	-0.42572	-0.47072	1.41216	14.59232	0.9043227239082162	59.72
6609	703.112	0	42	1309	-37	-154	224	70	285	-2125	-1624	66	1322	-80	-6	25	87	514	-332	117	-80	0	352	57.85	0.9042092277325438	61.58	0.904406612385887	3429.841552734375	-11657.58203125	869.4000244140625	11.9000244140625	11	0	0.0	0.0	0.0	0.0	-0.25093190189327913	-0.5832817438529955	0.0	0.0	9.443274390900001	-0.3876372612	0.41994036630000003	-0.3075116872787476	-0.6192483901977539	-0.28770577907562256	0.6627166867256165	7	34.49735921223958	-116.95970052083334	0.3014956476	9.3966143502	-0.26560330860000003	0.4737788748	9.4899344316	-0.574277424	-0.047036623172	0.06841690643199999	0.021380283259999997	-0.001832595708	0.00763581545	0.026572637766	0.1653	-1.2325	-0.94192	0.29812	-0.19256	0.06786	0.3876372612	9.443274390900001	-0.41994036630000003	-0.024434609439999998	0.038026360940999995	0.023976460512999998	0.23171	-0.71253	-0.43703	-2.3536	0.0	10.35584	0.9043079200592155	59.715
6610	703.217	0	43	1313	-48	-119	205	73	285	-2125	-1624	70	1327	-88	12	13	95	515	-335	113	-16	-48	384	57.85	0.9040809277078709	61.58	0.9043572662225512	3429.841552734375	-11657.58203125	869.4000244140625	11.9163818359375	11	0	0.0	0.0	0.0	0.0	-0.19799015395972333	-0.5040999527749582	0.0	0.0	9.475577496	-0.4055834306999999	0.4881358104	-0.3075299561023712	-0.6192072629928589	-0.287710040807724	0.6627448201179504	7	34.49735921223958	-116.95970052083334	0.3086741154	9.425328221400001	-0.3445664544	0.502492746	9.5258267706	-0.6317051664000001	-0.036346481542	0.06261368669	0.022296581114	0.003665191416	0.003970624034	0.029016098709999997	0.1653	-1.2325	-0.94192	0.2987	-0.1943	0.06554	0.4055834307	9.475577496	-0.48813581040000004	-0.016340645063000002	0.033292155362	0.025656339911999997	0.232	-0.7133999999999999	-0.43818999999999997	-0.47072	-1.41216	11.29728	0.9042190969652111	59.715
6611	703.323	0	45	1306	-51	-143	225	67	281	-2116	-1640	77	1319	-87	-12	23	88	515	-335	113	96	144	432	57.84	0.9041894892672094	61.59	0.9043770046878856	3429.841552734375	-11657.58203125	869.4000244140625	11.9163818359375	11	0	0.0	0.0	0.0	0.0	-0.19855156198256185	-0.4868469609613934	0.0	0.0	9.4217389875	-0.4378865358	0.4953142782	-0.3075285851955414	-0.6191413998603821	-0.28772762417793274	0.6627993583679199	7	34.49735921223958	-116.95970052083334	0.323031051	9.3750789468	-0.36610185780000004	0.5527420206	9.4683990282	-0.6245266986	-0.043676864374	0.06872233905	0.020463985405999998	-0.003665191416	0.0070249502139999994	0.026878070384	0.16298	-1.22728	-0.9512	0.2987	-0.1943	0.06554	0.43788653580000003	9.4217389875	-0.4953142782	-0.023671027895000002	0.037873644632	0.023671027895	0.23084000000000002	-0.7107899999999999	-0.44283	2.82432	4.23648	12.70944	0.9042832469775475	59.715
6612	703.428	0	40	1306	-40	-123	218	79	281	-2116	-1640	74	1325	-83	11	15	96	503	-325	103	16	-16	400	57.86	0.904159881569208	61.59	0.9043177892918826	3429.841552734375	-11657.58203125	869.4000244140625	11.9163818359375	11	0	0.0	0.0	0.0	0.0	-0.1829515824912028	-0.4556675213072778	0.0	0.0	9.443274390900001	-0.4091726646	0.4414757697	-0.3074360489845276	-0.6191422343254089	-0.2877302169799805	0.6628404259681702	7	34.49735921223958	-116.95970052083334	0.287138712	9.3750789468	-0.287138712	0.5312066172000001	9.511469835	-0.5958128274000001	-0.037568212014	0.06658431072399999	0.024129176821999998	0.003359758798	0.00458148927	0.029321531328	0.16298	-1.22728	-0.9512	0.29174	-0.1885	0.05974	0.4091726646	9.443274390900001	-0.4414757697	-0.017104226608	0.035582899997	0.026725354075	0.22736	-0.7078899999999999	-0.44573	0.47072	-0.47072	11.768	0.9042388354305453	59.725
6613	703.534	0	50	1306	-33	-147	216	68	288	-2128	-1614	74	1323	-83	-5	19	96	503	-325	103	80	128	432	57.84	0.9041894892672094	61.59	0.9042487046632124	3429.841552734375	-11657.58203125	869.4000244140625	11.9000244140625	11	0	0.0	0.0	0.0	0.0	-0.13112334031146874	-0.3875143239265906	0.0	0.0	9.436095923099998	-0.4450650036	0.41635113240000005	-0.3074919283390045	-0.6190750002861023	-0.28772303462028503	0.6628804206848145	7	34.49735921223958	-116.95970052083334	0.35892339	9.3750789468	-0.2368894374	0.5312066172000001	9.497112899400001	-0.5958128274000001	-0.044898594846	0.065973445488	0.020769418023999998	-0.0015271630899999999	0.005803219742	0.029321531328	0.16704	-1.23424	-0.93612	0.29174	-0.1885	0.05974	0.4450650036	9.436095923100002	-0.41635113240000005	-0.023212878968	0.035888332615	0.025045474675999997	0.22938999999999998	-0.7113700000000001	-0.43818999999999997	2.3536	3.76576	12.70944	0.9042190969652109	59.715
6614	703.639	0	29	1302	-45	-132	209	67	289	-2111	-1627	64	1325	-88	8	22	85	520	-362	91	80	48	432	57.84	0.9041894892672094	61.59	0.9043671354552184	3429.841552734375	-11657.58203125	869.4000244140625	11.9163818359375	11	0	0.0	0.0	0.0	0.0	-0.06406758790627164	-0.3146800970636396	0.0	0.0	9.4289174553	-0.3337987527	0.4773681087	-0.2317968010902405	-0.6475990414619446	-0.21666643023490906	0.6927780508995056	7	34.49735921223958	-116.95970052083334	0.2081755662	9.3463650756	-0.323031051	0.4594219392	9.511469835	-0.6317051664000001	-0.040317105576	0.063835417162	0.020463985405999998	0.002443460944	0.006719517596	0.02596177253	0.16762	-1.22438	-0.94366	0.3016	-0.20996	0.05278	0.33379875270000003	9.428917455299999	-0.4773681087	-0.018936822316	0.035277467379	0.023212878968	0.23460999999999999	-0.71717	-0.44544	2.3536	1.41216	12.70944	0.9042783123612139	59.715
6615	703.744	0	54	1309	-33	-141	225	71	289	-2111	-1627	84	1323	-76	1	11	91	520	-362	91	96	80	528	57.85	0.9041993584998766	61.59	0.9043177892918826	3429.841552734375	-11657.58203125	869.4000244140625	11.9327392578125	11	0	0.0	0.0	0.0	0.0	-0.15927137757445498	-0.4149874958015065	0.0	0.0	9.4468636248	-0.4953142782	0.3912264951	-0.2319450229406357	-0.6475298404693604	-0.21666836738586426	0.6927924752235413	7	34.49735921223958	-116.95970052083334	0.3876372612	9.3966143502	-0.2368894374	0.6029912952	9.497112899400001	-0.5455635528	-0.043065999138	0.06872233905	0.021685715878	0.000305432618	0.003359758798	0.027794368237999998	0.16762	-1.22438	-0.94366	0.3016	-0.20996	0.05278	0.49531427820000007	9.4468636248	-0.3912264951	-0.02138028326	0.036041048924	0.024740042057999997	0.23460999999999999	-0.71717	-0.44544	2.82432	2.3536	15.533760000000001	0.9042585738958796	59.72
6616	703.85	0	24	1303	-49	-134	218	78	277	-2101	-1628	61	1325	-85	3	20	95	516	-372	86	0	112	416	57.85	0.9041401431038736	61.59	0.9043079200592152	3429.841552734375	-11657.58203125	869.4000244140625	11.9163818359375	11	0	0.0	0.0	0.0	0.0	-0.1986496373201571	-0.440043532359603	0.0	0.0	9.4325066892	-0.30508488149999996	0.4809573426	-0.2317972779273987	-0.6474838256835938	-0.2166847288608551	0.6928799152374268	7	34.49735921223958	-116.95970052083334	0.1722832272	9.3535435434	-0.35174492220000003	0.43788653580000003	9.511469835	-0.610169763	-0.040927970811999996	0.06658431072399999	0.023823744204	0.000916297854	0.0061086523599999994	0.029016098709999997	0.16066	-1.21858	-0.94424	0.29928	-0.21576	0.04988	0.3050848815	9.4325066892	-0.4809573426	-0.020005836479	0.03634648154199999	0.026419921457	0.22997	-0.71717	-0.44717999999999997	0.0	3.29504	12.23872	0.9042240315815444	59.72
6617	703.955	0	40	1309	-36	-118	207	69	277	-2101	-1628	84	1322	-78	0	1	86	516	-372	86	-16	32	416	57.85	0.9042585738958796	61.58	0.9042388354305452	3429.841552734375	-11657.58203125	869.4000244140625	11.9327392578125	11	0	0.0	0.0	0.0	0.0	-0.23947739845100946	-0.4644964452451569	0.0	0.0	9.443274390900001	-0.4450650036	0.4091726646	-0.23194853961467746	-0.6473987698554993	-0.2167310863733292	0.6928942203521729	7	34.49735921223958	-116.95970052083334	0.287138712	9.3966143502	-0.2584248408	0.6029912952	9.4899344316	-0.5599204884	-0.036041048924	0.063224551926	0.021074850641999997	0.0	0.000305432618	0.026267205148	0.16066	-1.21858	-0.94424	0.29928	-0.21576	0.04988	0.4450650036	9.443274390900001	-0.4091726646	-0.018020524462	0.031764992272000005	0.023671027895	0.22997	-0.71717	-0.44717999999999997	-0.47072	0.94144	12.23872	0.9042487046632124	59.715
6618	704.061	0	36	1302	-49	-135	236	81	287	-2114	-1617	65	1320	-82	0	31	98	530	-353	132	48	48	512	57.86	0.9039822353811992	61.58	0.9042388354305452	3429.841552734375	-11657.58203125	869.4000244140625	11.8836669921875	11	0	0.0	0.0	0.0	0.0	-0.20190991828142124	-0.4115670931846303	0.0	0.0	9.4109712858	-0.3625126239	0.47018964090000004	-0.23175375163555145	-0.6473535299301147	-0.2167070508003235	0.6930091977119446	7	34.49735921223958	-116.95970052083334	0.2584248408	9.3463650756	-0.35174492220000003	0.466600407	9.475577496	-0.5886343596	-0.041233403429999996	0.072082097848	0.024740042057999997	0.0	0.009468411158	0.029932396564	0.16646	-1.22612	-0.93786	0.3074	-0.20474	0.07656	0.3625126239	9.410971285799999	-0.47018964090000004	-0.020616701714999998	0.040775254503	0.027336219311	0.23693	-0.71543	-0.43065000000000003	1.41216	1.41216	15.06304	0.9041105354058722	59.72
6619	704.166	0	47	1303	-47	-122	209	61	287	-2114	-1617	77	1331	-87	11	5	83	530	-353	132	32	96	560	57.84	0.9042388354305452	61.59	0.9044263508512214	3429.841552734375	-11657.58203125	869.4000244140625	11.9327392578125	11	0	0.0	0.0	0.0	0.0	-0.22170912338341608	-0.42683067566012206	0.0	0.0	9.454042092599998	-0.4450650036	0.4809573426	-0.231832355260849	-0.6472668647766113	-0.2167038768529892	0.69306480884552	7	34.49735921223958	-116.95970052083334	0.3373879866	9.3535435434	-0.3373879866	0.5527420206	9.554540641800001	-0.6245266986	-0.037262779396	0.063835417162	0.018631389698	0.003359758798	0.0015271630899999999	0.025350907293999997	0.16646	-1.22612	-0.93786	0.3074	-0.20474	0.07656	0.4450650036	9.454042092600002	-0.4809573426	-0.016951510299	0.032681290126000004	0.021991148496	0.23693	-0.71543	-0.43065000000000003	0.94144	2.82432	16.4752	0.9043325931408832	59.715
6620	704.272	0	46	1306	-35	-137	212	76	305	-2132	-1630	78	1322	-78	-4	20	91	546	-348	126	48	80	528	57.83	0.9043375277572168	61.59	0.9045447816432272	3429.841552734375	-11657.58203125	869.4000244140625	11.9163818359375	11	0	0.0	0.0	0.0	0.0	-0.31498277325788265	-0.5161281826812774	0.0	0.0	9.4325066892	-0.4450650036	0.4055834307	-0.2318270355463028	-0.6472060084342957	-0.21671900153160092	0.6931187510490417	7	34.49735921223958	-116.95970052083334	0.3302095188	9.3750789468	-0.251246373	0.5599204884	9.4899344316	-0.5599204884	-0.041844268665999995	0.064751715016	0.023212878968	-0.001221730472	0.0061086523599999994	0.027794368237999998	0.1769	-1.23656	-0.9454	0.31668	-0.20184	0.07308	0.4450650036	9.4325066892	-0.4055834307	-0.021532999568999997	0.035430183687999994	0.025503623603	0.24679	-0.7192000000000001	-0.43616	1.41216	2.3536	15.533760000000001	0.904441154700222	59.71
6621	704.377	0	38	1307	-58	-136	211	69	305	-2132	-1630	74	1326	-97	11	12	84	546	-348	126	32	176	576	57.84	0.9040118430792006	61.59	0.9043177892918826	3429.841552734375	-11657.58203125	869.4000244140625	11.9163818359375	11	0	0.0	0.0	0.0	0.0	-0.14398887699173935	-0.32090969927019186	0.0	0.0	9.4504528587	-0.4019941967999999	0.5563312545	-0.2317970246076584	-0.6470844149589539	-0.21673499047756195	0.6932373046875	7	34.49735921223958	-116.95970052083334	0.2727817764	9.3822574146	-0.4163511324	0.5312066172000001	9.5186483028	-0.6963113766	-0.041538836047999995	0.064446282398	0.021074850641999997	0.003359758798	0.003665191416	0.025656339912	0.1769	-1.23656	-0.9454	0.31668	-0.20184	0.07308	0.40199419680000004	9.4504528587	-0.5563312545	-0.019089538625	0.034055736907	0.023365595277	0.24679	-0.7192000000000001	-0.43616	0.94144	5.17792	16.94592	0.9041648161855416	59.715
6622	704.483	0	41	1304	-27	-131	208	64	301	-2125	-1649	75	1325	-66	3	18	97	527	-377	138	-32	144	512	57.84	0.9040118430792006	61.59	0.9043177892918826	3429.841552734375	-11657.58203125	869.4000244140625	11.9327392578125	11	0	0.0	0.0	0.0	0.0	-0.1507142110086638	-0.3259975565714228	0.0	0.0	9.4360959231	-0.41635113240000005	0.3337987527	-0.23186980187892914	-0.6471291184425354	-0.21671423316001887	0.6931777596473694	7	34.49735921223958	-116.95970052083334	0.2943171798	9.3607220112	-0.1938186306	0.538385085	9.511469835	-0.4737788748	-0.040011672958	0.063529984544	0.019547687552	0.000916297854	0.005497787124	0.029626963946	0.17458	-1.2325	-0.95642	0.30566	-0.21866	0.08004	0.4163511324	9.4360959231	-0.33379875270000003	-0.019547687552	0.034513885833999995	0.024587325749	0.24012	-0.72558	-0.43819	-0.94144	4.23648	15.06304	0.9041648161855416	59.715
6623	704.592	0	45	1302	-58	-134	225	81	301	-2125	-1649	75	1324	-93	6	12	92	527	-377	138	-144	-32	320	57.84	0.9040217123118678	61.59	0.9043671354552184	3429.841552734375	-11657.58203125	869.2999877929688	11.9327392578125	11	0	0.0	0.0	0.0	0.0	-0.07057941456576948	-0.24199581496167635	0.0	0.0	9.4253282214	-0.430708068	0.5419743188999999	-0.2318183481693268	-0.6470240950584412	-0.21671809256076813	0.6932916641235352	7	34.49735921223958	-116.95970052083334	0.323031051	9.3463650756	-0.4163511324	0.538385085	9.5042913672	-0.6675975054000001	-0.040927970811999996	0.06872233905	0.024740042057999997	0.001832595708	0.003665191416	0.028099800855999998	0.17458	-1.2325	-0.95642	0.30566	-0.21866	0.08004	0.43070806800000005	9.425328221400001	-0.5419743189	-0.019547687552	0.036193765233	0.026419921457	0.24012	-0.72558	-0.43819	-4.23648	-0.94144	9.4144	0.9041944238835431	59.715
6624	704.697	0	38	1302	-24	-137	199	56	306	-2116	-1629	71	1331	-64	7	2	76	546	-320	132	-16	-32	416	57.85	0.9041401431038736	61.58	0.9042881815938809	3429.841552734375	-11657.58203125	869.2999877929688	11.9490966796875	11	0	0.0	0.0	0.0	0.0	-0.13393814730648132	-0.3173720394342319	0.0	0.0	9.4504528587	-0.3912264951	0.3158525832	-0.22723530232906344	-0.6505832672119141	-0.21339105069637296	0.6925098299980164	7	34.49735921223958	-116.95970052083334	0.2727817764	9.3463650756	-0.1722832272	0.5096712138	9.554540641800001	-0.4594219392	-0.041844268665999995	0.060781090982	0.017104226607999998	0.0021380283259999997	0.000610865236	0.023212878968	0.17748	-1.22728	-0.94482	0.31668	-0.1856	0.07656	0.3912264951	9.4504528587	-0.3158525832	-0.01985312017	0.030695978109	0.020158552788	0.24708000000000002	-0.70644	-0.43413	-0.47072	-0.94144	12.23872	0.9042141623488773	59.715
6625	704.803	0	31	1303	-59	-133	232	84	306	-2116	-1629	62	1320	-94	3	13	105	546	-320	132	32	64	432	57.84	0.9040217123118678	61.6	0.9042684431285468	3429.841552734375	-11657.58203125	869.2999877929688	11.9327392578125	11	0	0.0	0.0	0.0	0.0	-0.008992999452063097	-0.1885021973115916	0.0	0.0	9.4145605197	-0.3337987527	0.5491527866999999	-0.2270621359348297	-0.6504899859428406	-0.21338245272636414	0.692656934261322	7	34.49735921223958	-116.95970052083334	0.2225325018	9.3535435434	-0.4235296002	0.4450650036	9.475577496	-0.6747759732	-0.040622538193999996	0.070860367376	0.025656339912	0.000916297854	0.003970624034	0.03207042489	0.17748	-1.22728	-0.94482	0.31668	-0.1856	0.07656	0.33379875270000003	9.4145605197	-0.5491527867	-0.01985312017	0.037415495705	0.028863382400999997	0.24708000000000002	-0.70644	-0.43413	0.94144	1.88288	12.70944	0.9041450777202074	59.72
6626	704.908	0	43	1310	-31	-126	193	55	292	-2121	-1634	73	1321	-75	12	-6	73	530	-318	100	-80	-16	416	57.85	0.9043177892918826	61.6	0.9042684431285468	3429.841552734375	-11657.58203125	869.2999877929688	11.9163818359375	11	0	0.0	0.0	0.0	0.0	-0.008217595310291235	-0.2019377512892259	0.0	0.0	9.443274390900001	-0.41635113240000005	0.3804587934	-0.22721171379089355	-0.6504611372947693	-0.213362455368042	0.6926410794258118	7	34.49735921223958	-116.95970052083334	0.3086741154	9.403792818000001	-0.2225325018	0.5240281494	9.4827559638	-0.538385085	-0.038484509868	0.058948495274	0.016798793989999998	0.003665191416	-0.001832595708	0.022296581114	0.16936	-1.23018	-0.94772	0.3074	-0.18444	0.058	0.4163511324	9.443274390900001	-0.3804587934	-0.017409659225999997	0.028557949783	0.019547687552	0.23838	-0.70731	-0.44486	-2.3536	-0.47072	12.23872	0.9042931162102147	59.725
6627	705.014	0	42	1305	-45	-135	237	89	292	-2121	-1634	74	1323	-77	-6	24	113	530	-318	100	-16	64	384	57.84	0.9041302738712064	61.58	0.9042388354305452	3429.841552734375	-11657.58203125	869.2999877929688	11.9327392578125	11	0	0.0	0.0	0.0	0.0	0.16046697997021125	-0.0420184662136137	0.0	0.0	9.4325066892	-0.41635113240000005	0.4378865358	-0.22715145349502566	-0.6503455638885498	-0.21338790655136108	0.6927615404129028	7	34.49735921223958	-116.95970052083334	0.3014956476	9.367900479000001	-0.323031051	0.5312066172000001	9.497112899400001	-0.5527420206	-0.041233403429999996	0.072387530466	0.027183503002	-0.001832595708	0.007330382832	0.034513885833999995	0.16936	-1.23018	-0.94772	0.3074	-0.18444	0.058	0.41635113240000005	9.4325066892	-0.43788653580000003	-0.021532999568999997	0.039858956648999994	0.030848694418	0.23838	-0.70731	-0.44486	-0.47072	1.88288	11.29728	0.9041845546508758	59.71
6628	705.119	0	38	1307	-46	-125	196	56	312	-2127	-1626	60	1329	-93	14	-11	85	534	-360	126	112	80	528	57.85	0.9042092277325438	61.59	0.9041500123365408	3429.841552734375	-11657.58203125	869.2999877929688	11.9163818359375	11	0	0.0	0.0	0.0	0.0	0.30181874112226004	0.07545672441326395	0.0	0.0	9.4612205604	-0.3517449222	0.4989035121	-0.22704435884952545	-0.6502832770347595	-0.21338209509849548	0.6928568482398987	7	34.49735921223958	-116.95970052083334	0.2727817764	9.3822574146	-0.3302095188	0.430708068	9.5401837062	-0.6675975054000001	-0.03817907725	0.059864793128	0.017104226607999998	0.004276056651999999	-0.003359758798	0.02596177253	0.18096	-1.23366	-0.94308	0.30972	-0.2088	0.07308	0.3517449222	9.461220560400001	-0.49890351210000006	-0.016951510299	0.028252517165	0.021532999568999997	0.24534	-0.72123	-0.435	3.29504	2.3536	15.533760000000001	0.9041796200345422	59.72
6629	705.225	0	48	1305	-38	-118	222	80	288	-2095	-1645	80	1317	-72	5	28	99	534	-360	126	16	-48	384	57.85	0.9041993584998766	61.59	0.9043177892918826	3429.841552734375	-11657.58203125	869.2999877929688	11.9163818359375	11	0	0.0	0.0	0.0	0.0	0.15610718125493275	-0.11545743296030332	0.0	0.0	9.4109712858	-0.4594219392	0.394815729	-0.22718967497348785	-0.6502479314804077	-0.2134032249450684	0.6928359270095825	7	34.49735921223958	-116.95970052083334	0.3445664544	9.367900479000001	-0.2727817764	0.574277424	9.4540420926	-0.5168496816	-0.036041048924	0.06780604119599999	0.024434609439999998	0.0015271630899999999	0.008552113303999999	0.030237829182	0.16704	-1.2151	-0.9541000000000001	0.30972	-0.2088	0.07308	0.4594219392	9.4109712858	-0.394815729	-0.017256942917	0.03817907725	0.027336219311	0.23837999999999998	-0.7119500000000001	-0.44051	0.47072	-1.41216	11.29728	0.9042585738958796	59.72
6630	705.33	0	34	1312	-67	-124	210	65	288	-2095	-1645	67	1324	-106	8	2	87	513	-344	114	-32	144	528	57.85	0.9044954354798914	61.59	0.9043177892918826	3429.841552734375	-11657.58203125	869.2999877929688	11.9490966796875	11	0	0.0	0.0	0.0	0.0	0.04302288921298325	-0.25703304193097154	0.0	0.0	9.4612205604	-0.3625126239	0.6209374647	-0.2270248830318451	-0.6501399874687195	-0.2133760899305344	0.6929996013641357	7	34.49735921223958	-116.95970052083334	0.24406790520000002	9.4181497536	-0.4809573426	0.4809573426	9.5042913672	-0.7609175868	-0.037873644632	0.06414084978	0.01985312017	0.002443460944	0.000610865236	0.026572637766	0.16704	-1.2151	-0.9541000000000001	0.29754	-0.19952	0.06612	0.3625126239	9.461220560400001	-0.6209374647	-0.017715091844	0.032375857508	0.023212878968	0.23229	-0.70731	-0.44399000000000005	-0.94144	4.23648	15.533760000000001	0.9044066123858869	59.72
6631	705.436	0	54	1303	-31	-114	207	67	289	-2114	-1623	80	1321	-69	5	6	89	520	-325	125	128	176	592	57.86	0.904159881569208	61.58	0.9042388354305452	3429.841552734375	-11657.58203125	869.2999877929688	11.9163818359375	11	0	0.0	0.0	0.0	0.0	0.0520620871000361	-0.2534151312344691	0.0	0.0	9.418149753599998	-0.4809573426	0.35892338999999995	-0.2272076904773712	-0.6501222848892212	-0.21335558593273166	0.6929625868797302	7	34.49735921223958	-116.95970052083334	0.3876372612	9.3535435434	-0.2225325018	0.574277424	9.4827559638	-0.4953142782	-0.034819318451999995	0.063224551926	0.020463985405999998	0.0015271630899999999	0.001832595708	0.027183503002	0.16762	-1.22612	-0.94134	0.3016	-0.1885	0.0725	0.4809573426	9.418149753600002	-0.35892339	-0.016646077680999998	0.032528573817	0.023823744204	0.23460999999999999	-0.7073100000000001	-0.43442	3.76576	5.17792	17.41664	0.9041993584998766	59.72
6632	705.541	0	55	1308	-56	-139	213	74	289	-2114	-1623	79	1326	-100	-3	9	92	520	-325	125	-48	-32	400	57.85	0.9040907969405378	61.59	0.9041993584998766	3429.841552734375	-11657.58203125	869.2999877929688	11.9327392578125	11	0	0.0	0.0	0.0	0.0	0.028648361837440125	-0.2837046444817532	0.0	0.0	9.454042092599998	-0.4809573426	0.5599204884000001	-0.2270984798669815	-0.6499897837638855	-0.21337108314037326	0.6931179165840149	7	34.49735921223958	-116.95970052083334	0.394815729	9.3894358824	-0.40199419680000004	0.5670989562000001	9.5186483028	-0.71784678	-0.042455133901999995	0.065057147634	0.022602013732	-0.000916297854	0.002748893562	0.028099800855999998	0.16762	-1.22612	-0.94134	0.3016	-0.1885	0.0725	0.4809573426	9.454042092600002	-0.5599204884	-0.021685715877999997	0.033903020598	0.025350907293999997	0.23460999999999999	-0.7073100000000001	-0.43442	-1.41216	-0.94144	11.768	0.9041450777202072	59.72
6633	705.646	0	37	1304	-29	-119	204	67	312	-2122	-1634	72	1321	-67	14	5	78	524	-335	154	16	0	416	57.85	0.9041401431038736	61.59	0.9043671354552184	3429.841552734375	-11657.58203125	869.2999877929688	11.9163818359375	11	0	0.0	0.0	0.0	0.0	0.04256351574993618	-0.2735840578124753	0.0	0.0	9.4217389875	-0.3912264951	0.3445664544	-0.2428644895553589	-0.6485830545425415	-0.23039743304252625	0.6835743188858032	7	34.49735921223958	-116.95970052083334	0.26560330860000003	9.3607220112	-0.2081755662	0.5168496816	9.4827559638	-0.4809573426	-0.036346481542	0.062308254072	0.020463985405999998	0.004276056651999999	0.0015271630899999999	0.023823744204	0.18096	-1.23076	-0.94772	0.30392	-0.1943	0.08932	0.3912264951	9.4217389875	-0.3445664544	-0.016035212445000002	0.031917708581	0.022143864804999996	0.24244000000000002	-0.71253	-0.4292	0.47072	0.0	12.23872	0.9042536392795459	59.72
6634	705.752	0	56	1312	-48	-142	229	75	312	-2122	-1634	81	1330	-85	6	22	102	524	-335	154	-16	16	496	57.84	0.9043079200592152	61.59	0.9042487046632124	3429.841552734375	-11657.58203125	869.2999877929688	11.9163818359375	11	0	0.0	0.0	0.0	0.0	0.0592736867142968	-0.2668348516136918	0.0	0.0	9.4827559638	-0.4917250443	0.4773681087	-0.24277792870998385	-0.648296594619751	-0.23043431341648105	0.6838643550872803	7	34.49735921223958	-116.95970052083334	0.40199419680000004	9.4181497536	-0.3445664544	0.5814558918	9.547362174	-0.610169763	-0.043371431756	0.069944069522	0.02290744635	0.001832595708	0.006719517596	0.031154127036	0.18096	-1.23076	-0.94772	0.30392	-0.1943	0.08932	0.4917250443	9.482755963799999	-0.4773681087	-0.020769418024	0.038331793558999995	0.027030786693	0.24244000000000002	-0.71253	-0.4292	-0.47072	0.47072	14.59232	0.9042783123612138	59.715
6635	705.857	0	35	1304	-25	-137	201	57	301	-2139	-1634	69	1329	-70	15	-1	84	512	-330	156	-64	112	512	57.84	0.9039624969158648	61.59	0.9043671354552184	3429.841552734375	-11657.58203125	869.2999877929688	11.9163818359375	11	0	0.0	0.0	0.0	0.0	-0.03952811057151203	-0.3745415396081632	0.0	0.0	9.4504528587	-0.3732803256	0.3409772205	-0.24274204671382904	-0.6483016610145569	-0.2304224818944931	0.6838762760162354	7	34.49735921223958	-116.95970052083334	0.251246373	9.3607220112	-0.179461695	0.4953142782	9.5401837062	-0.502492746	-0.041844268665999995	0.061391956218	0.017409659225999997	0.00458148927	-0.000305432618	0.025656339912	0.17458	-1.24062	-0.94772	0.29696	-0.19140000000000001	0.09048	0.3732803256	9.4504528587	-0.3409772205	-0.018631389697999996	0.0305432618	0.021532999568999997	0.23577	-0.71601	-0.42862	-1.88288	3.29504	15.06304	0.9041648161855416	59.715
6636	705.963	0	44	1308	-30	-141	234	80	301	-2139	-1634	70	1335	-71	-1	26	97	512	-330	156	-112	160	448	57.85	0.9041993584998766	61.6	0.9044954354798914	3429.841552734375	-11657.58203125	869.2999877929688	11.8836669921875	11	0	0.0	0.0	0.0	0.0	-0.1322604554071034	-0.4686435003480578	0.0	0.0	9.4863451977	-0.4091726646	0.3625126239	-0.24273990094661715	-0.6481834053993225	-0.23044876754283905	0.6839803457260132	7	34.49735921223958	-116.95970052083334	0.31585258320000004	9.3894358824	-0.215354034	0.502492746	9.583254513	-0.5096712138	-0.043065999138	0.071471232612	0.024434609439999998	-0.000305432618	0.007941248068	0.029626963946	0.17458	-1.24062	-0.94772	0.29696	-0.19140000000000001	0.09048	0.4091726646	9.4863451977	-0.3625126239	-0.021685715878	0.039706240340000004	0.027030786693	0.23577	-0.71601	-0.42862	-3.29504	4.7072	13.18016	0.9043473969898841	59.725
6637	706.068	0	28	1310	-34	-138	198	59	305	-2115	-1620	60	1317	-79	0	-3	84	531	-338	110	96	128	464	57.85	0.9043177892918826	61.59	0.9043671354552184	3429.841552734375	-11657.58203125	869.2999877929688	11.9163818359375	11	0	0.0	0.0	0.0	0.0	-0.14914326956856253	-0.4756874473204493	0.0	0.0	9.4289174553	-0.3158525832	0.4055834307	-0.2426159977912903	-0.6481009125709534	-0.2304590344429016	0.6840988993644714	7	34.49735921223958	-116.95970052083334	0.20099709840000002	9.403792818000001	-0.24406790520000002	0.430708068	9.4540420926	-0.5670989562000001	-0.042149701283999995	0.060475658364	0.018020524462	0.0	-0.000916297854	0.025656339912	0.1769	-1.2267	-0.9396	0.30798	-0.19604	0.0638	0.3158525832	9.4289174553	-0.4055834307	-0.021074850641999997	0.029779680255	0.021838432187	0.24244	-0.71137	-0.4379	2.82432	3.76576	13.65088	0.9043424623735505	59.72
6638	706.174	0	40	1306	-32	-137	244	92	305	-2115	-1620	76	1324	-69	-6	40	110	531	-338	110	-16	-48	400	57.85	0.903972366148532	61.6	0.9042684431285468	3429.841552734375	-11657.58203125	869.2999877929688	11.9163818359375	11	0	0.0	0.0	0.0	0.0	0.06061840394702071	-0.2424506571520184	0.0	0.0	9.439685157000001	-0.4163511323999999	0.3625126239	-0.24254710972309115	-0.648020327091217	-0.2304819673299789	0.6841919422149658	7	34.49735921223958	-116.95970052083334	0.287138712	9.3750789468	-0.2297109696	0.5455635528	9.5042913672	-0.4953142782	-0.041844268665999995	0.074525558792	0.028099800855999998	-0.001832595708	0.012217304719999999	0.033597587979999996	0.1769	-1.2267	-0.9396	0.30798	-0.19604	0.0638	0.4163511324	9.439685157	-0.3625126239	-0.021838432186999997	0.043371431756	0.030848694418	0.24244	-0.71137	-0.4379	-0.47072	-1.41216	11.768	0.9041204046385394	59.725
6639	706.279	0	36	1308	-46	-131	213	54	305	-2110	-1620	61	1328	-86	-3	-5	72	512	-353	150	-16	144	432	57.85	0.9043671354552184	61.59	0.9042487046632124	3429.841552734375	-11657.58203125	869.2999877929688	11.9163818359375	11	0	0.0	0.0	0.0	0.0	0.0516144498673175	-0.26153203438912026	0.0	0.0	9.4612205604	-0.3481556883	0.4737788747999999	-0.2424203008413315	-0.6478991508483887	-0.2304968386888504	0.684346616268158	7	34.49735921223958	-116.95970052083334	0.2584248408	9.3894358824	-0.3302095188	0.43788653580000003	9.533005238400001	-0.6173482308	-0.040011672958	0.065057147634	0.016493361372	-0.000916297854	-0.0015271630899999999	0.021991148496	0.1769	-1.2238	-0.9396	0.29696	-0.20474	0.087	0.3481556883	9.461220560400001	-0.4737788748	-0.020463985405999998	0.031764992272	0.019242254934	0.23693	-0.71427	-0.4263	-0.47072	4.23648	12.70944	0.9043079200592155	59.72
6640	706.384	0	36	1302	-24	-120	233	81	305	-2110	-1620	67	1333	-66	13	16	111	512	-353	150	-16	112	528	57.85	0.903972366148532	61.58	0.9042980508265482	3429.841552734375	-11657.58203125	869.2999877929688	11.9000244140625	11	0	0.0	0.0	0.0	0.0	0.12375829655031773	-0.19575177211979405	0.0	0.0	9.4576313265	-0.36969109170000003	0.323031051	-0.2424905002117157	-0.6479154229164124	-0.23049697279930115	0.6843063831329346	7	34.49735921223958	-116.95970052083334	0.2584248408	9.3463650756	-0.1722832272	0.4809573426	9.5688975774	-0.4737788748	-0.03665191416	0.071165799994	0.024740042057999997	0.003970624034	0.004886921888	0.033903020597999996	0.1769	-1.2238	-0.9396	0.29696	-0.20474	0.087	0.36969109170000003	9.4576313265	-0.323031051	-0.016340645063000002	0.038026360940999995	0.029321531327999997	0.23693	-0.71427	-0.4263	-0.47072	3.29504	15.533760000000001	0.9041352084875401	59.715
6641	706.49	0	41	1306	-55	-151	200	52	300	-2125	-1634	71	1327	-102	2	1	81	514	-312	131	32	144	512	57.84	0.9041302738712064	61.58	0.9043572662225512	3429.841552734375	-11657.58203125	869.2999877929688	11.9000244140625	11	0	0.0	0.0	0.0	0.0	0.1108374886758718	-0.22403319678376316	0.0	0.0	9.4504528587	-0.4019941967999999	0.5635097223	-0.24244187772274015	-0.6477369666099548	-0.2304888665676117	0.6844951510429382	7	34.49735921223958	-116.95970052083334	0.2943171798	9.3750789468	-0.394815729	0.5096712138	9.5258267706	-0.7322037156000001	-0.046120325318	0.0610865236	0.015882496136	0.000610865236	0.000305432618	0.024740042057999997	0.174	-1.2325	-0.94772	0.29812	-0.18096	0.07598	0.40199419680000004	9.4504528587	-0.5635097223000001	-0.022754730041	0.030695978109	0.020311269096999998	0.23606	-0.70673	-0.43587	0.94144	4.23648	15.06304	0.9042437700468788	59.71
6642	706.595	0	34	1297	-13	-119	202	66	300	-2125	-1634	61	1325	-60	19	17	94	514	-312	131	-16	112	528	57.85	0.9042092277325438	61.6	0.9044954354798914	3429.841552734375	-11657.58203125	869.2999877929688	11.9163818359375	11	0	0.0	0.0	0.0	0.0	-0.052488486561654564	-0.4040766500618508	0.0	0.0	9.4109712858	-0.34097722049999996	0.2620140747	-0.2424949258565903	-0.6478352546691895	-0.2304491847753525	0.6843967437744141	7	34.49735921223958	-116.95970052083334	0.24406790520000002	9.3104727366	-0.0933200814	0.43788653580000003	9.511469835	-0.430708068	-0.036346481542	0.061697388836	0.020158552788	0.005803219742	0.005192354505999999	0.028710666091999997	0.174	-1.2325	-0.94772	0.29812	-0.18096	0.07598	0.3409772205	9.410971285799999	-0.2620140747	-0.0152716309	0.033444871671	0.024434609439999998	0.23606	-0.70673	-0.43587	-0.47072	3.29504	15.533760000000001	0.9043523316062176	59.725
6643	706.701	0	46	1309	-59	-151	225	70	278	-2113	-1616	73	1319	-101	-14	12	92	519	-335	105	-32	160	368	57.86	0.9043868739205528	61.6	0.9046039970392302	3429.841552734375	-11657.58203125	869.2999877929688	11.9163818359375	11	0	0.0	0.0	0.0	0.0	-0.1615649044663227	-0.5135534400883591	0.0	0.0	9.432506689199998	-0.4271188341	0.5742774239999999	-0.33034005761146545	-0.6132365465164185	-0.314350962638855	0.6449805498123169	7	34.49735921223958	-116.95970052083334	0.3302095188	9.3966143502	-0.4235296002	0.5240281494	9.4683990282	-0.7250252478	-0.046120325318	0.06872233905	0.021380283259999997	-0.004276056651999999	0.003665191416	0.028099800855999998	0.16124	-1.22554	-0.93728	0.30102	-0.1943	0.0609	0.42711883409999996	9.4325066892	-0.574277424	-0.025198190985	0.036193765233	0.024740042057999997	0.23113	-0.70992	-0.43819	-0.94144	4.7072	10.82656	0.9044954354798915	59.730000000000004
6644	706.806	0	27	1308	-21	-106	202	66	278	-2113	-1616	52	1324	-65	24	6	87	519	-335	105	16	0	384	57.85	0.9042585738958796	61.6	0.9043276585245498	3429.841552734375	-11657.58203125	869.2999877929688	11.9163818359375	11	0	0.0	0.0	0.0	0.0	-0.1912234197224046	-0.52793427174375	0.0	0.0	9.4468636248	-0.2835494781	0.30867411539999995	-0.33030733466148376	-0.6133663058280945	-0.3143167197704315	0.6448906660079956	7	34.49735921223958	-116.95970052083334	0.1938186306	9.3894358824	-0.1507478238	0.3732803256	9.5042913672	-0.466600407	-0.032375857508	0.061697388836	0.020158552788	0.007330382832	0.001832595708	0.026572637766	0.16124	-1.22554	-0.93728	0.30102	-0.1943	0.0609	0.28354947810000003	9.4468636248	-0.3086741154	-0.012522737337999999	0.031764992272	0.023365595277	0.23113	-0.70992	-0.43819	0.47072	0.0	11.29728	0.9042931162102147	59.725
6645	706.912	0	61	1304	-61	-148	237	76	291	-2125	-1636	89	1323	-94	4	32	106	501	-323	110	-32	176	448	57.85	0.9042092277325438	61.58	0.9042388354305452	3429.841552734375	-11657.58203125	869.2999877929688	11.9327392578125	11	0	0.0	0.0	0.0	0.0	-0.08894718527131525	-0.4014299610641465	0.0	0.0	9.4289174553	-0.5383850849999999	0.5563312545	-0.3303326964378357	-0.6131365299224854	-0.3143706023693085	0.6450698375701904	7	34.49735921223958	-116.95970052083334	0.43788653580000003	9.3607220112	-0.43788653580000003	0.6388836342	9.497112899400001	-0.6747759732	-0.045204027464	0.072387530466	0.023212878968	0.001221730472	0.009773843776	0.032375857508	0.16878	-1.2325	-0.9488800000000001	0.29058	-0.18734	0.0638	0.538385085	9.4289174553	-0.5563312545000001	-0.021991148496	0.041080687121	0.027794368237999998	0.22968	-0.70992	-0.44254000000000004	-0.94144	5.17792	13.18016	0.9042240315815444	59.715
6646	707.017	0	16	1307	-23	-126	214	66	278	-2126	-1669	47	1328	-67	13	-6	86	501	-323	110	-16	48	512	57.86	0.9042190969652109	61.59	0.9044263508512214	3429.841552734375	-11657.58203125	869.2999877929688	11.9163818359375	11	0	0.0	0.0	0.0	0.0	-0.20518863827956849	-0.5133385100608872	0.0	0.0	9.4576313265	-0.2261217357	0.323031051	-0.3301839530467987	-0.6132727265357971	-0.3143473267555237	0.6450278162956238	7	34.49735921223958	-116.95970052083334	0.1148554848	9.3822574146	-0.1651047594	0.3373879866	9.533005238400001	-0.4809573426	-0.038484509868	0.065362580252	0.020158552788	0.003970624034	-0.001832595708	0.026267205148	0.16124	-1.23308	-0.96802	0.29058	-0.18734	0.0638	0.22612173570000002	9.4576313265	-0.323031051	-0.017256942917	0.031764992272	0.023212878968	0.22591	-0.71021	-0.45211	-0.47072	1.41216	15.06304	0.9043227239082161	59.725
6647	707.123	0	57	1305	-48	-127	230	71	278	-2126	-1669	85	1331	-78	4	36	95	525	-319	119	16	96	400	57.85	0.903972366148532	61.59	0.9043079200592152	3429.841552734375	-11657.58203125	869.2999877929688	11.9163818359375	11	0	0.0	0.0	0.0	0.0	0.07297709795507262	-0.20678198084353253	0.0	0.0	9.4612205604	-0.5096712137999999	0.4522434714	-0.3303248286247253	-0.6131119728088379	-0.3143448233604431	0.6451098322868347	7	34.49735921223958	-116.95970052083334	0.4091726646	9.367900479000001	-0.3445664544	0.610169763	9.554540641800001	-0.5599204884	-0.038789942486	0.07024950213999999	0.021685715878	0.001221730472	0.010995574248	0.029016098709999997	0.16124	-1.23308	-0.96802	0.3045	-0.18502	0.06902	0.5096712138	9.461220560400001	-0.4522434714	-0.018784106007	0.040622538193999996	0.025350907293999997	0.23287	-0.70905	-0.4495	0.47072	2.82432	11.768	0.9041401431038736	59.72
6648	707.228	0	28	1308	-34	-140	192	58	282	-2136	-1639	53	1330	-85	-3	3	85	525	-319	119	-48	16	464	57.85	0.9041993584998766	61.59	0.9042487046632124	3429.841552734375	-11657.58203125	869.2999877929688	11.8836669921875	11	0	0.0	0.0	0.0	0.0	0.1059023121276441	-0.18390020368432414	0.0	0.0	9.4683990282	-0.2907279459	0.4271188341	-0.3300952613353729	-0.6131606698036194	-0.3143547773361206	0.645176112651825	7	34.49735921223958	-116.95970052083334	0.20099709840000002	9.3894358824	-0.24406790520000002	0.3804587934	9.547362174	-0.610169763	-0.042760566519999994	0.058643062656	0.017715091844	-0.000916297854	0.000916297854	0.02596177253	0.16356	-1.23888	-0.95062	0.3045	-0.18502	0.06902	0.2907279459	9.4683990282	-0.4271188341	-0.021838432186999997	0.029779680255	0.021838432187	0.23403000000000002	-0.71195	-0.4408	-1.41216	0.47072	13.65088	0.9042240315815445	59.72
6649	707.333	0	60	1308	-40	-128	231	83	282	-2136	-1639	86	1323	-82	1	27	97	522	-331	127	-16	0	464	57.85	0.9042585738958796	61.59	0.9043079200592152	3429.841552734375	-11657.58203125	869.2999877929688	11.9327392578125	11	0	0.0	0.0	0.0	0.0	0.08002769174848923	-0.2323109131503479	0.0	0.0	9.443274390900001	-0.5240281493999999	0.4378865358	-0.3302416205406189	-0.6130486726760864	-0.3143627941608429	0.645203709602356	7	34.49735921223958	-116.95970052083334	0.430708068	9.3894358824	-0.287138712	0.6173482308	9.497112899400001	-0.5886343596	-0.039095375104	0.070554934758	0.025350907293999997	0.000305432618	0.008246680686	0.029626963946	0.16356	-1.23888	-0.95062	0.30276000000000003	-0.19198	0.07366	0.5240281494	9.443274390900001	-0.43788653580000003	-0.019394971243	0.039400807722	0.02748893562	0.23316000000000003	-0.71543	-0.43848	-0.47072	0.0	13.65088	0.9042832469775475	59.72
6650	707.443	0	29	1304	-48	-153	201	64	290	-2136	-1634	50	1328	-86	-8	7	85	522	-331	127	-64	112	448	57.84	0.9041796200345424	61.59	0.9043671354552184	3429.841552734375	-11657.58203125	869.0999755859375	11.9163818359375	11	0	0.0	0.0	0.0	0.0	0.09605883899690998	-0.22816722063395475	0.0	0.0	9.4468636248	-0.2835494781	0.4809573426	-0.3300490975379944	-0.6130743622779846	-0.3144002854824066	0.6452595591545105	7	34.49735921223958	-116.95970052083334	0.2081755662	9.3607220112	-0.3445664544	0.35892339	9.533005238400001	-0.6173482308	-0.046731190554	0.061391956218	0.019547687552	-0.002443460944	0.0021380283259999997	0.02596177253	0.1682	-1.23888	-0.94772	0.30276000000000003	-0.19198	0.07366	0.2835494781	9.4468636248	-0.4809573426	-0.024587325748999998	0.031764992272	0.022754730041	0.23548000000000002	-0.71543	-0.43703000000000003	-1.88288	3.29504	13.18016	0.9042733777448804	59.715
6651	707.548	0	59	1304	-51	-137	216	74	290	-2136	-1634	91	1325	-87	17	20	107	511	-320	128	-32	-16	400	57.84	0.9040118430792006	61.58	0.904347396989884	3429.841552734375	-11657.58203125	869.0999755859375	11.9000244140625	11	0	0.0	0.0	0.0	0.0	0.20048182881482168	-0.13426912607074493	0.0	0.0	9.4360959231	-0.5383850849999999	0.4953142782	-0.33020851016044617	-0.6129590272903442	-0.3144227266311645	0.6452767252922058	7	34.49735921223958	-116.95970052083334	0.4235296002	9.3607220112	-0.36610185780000004	0.6532405698	9.511469835	-0.6245266986	-0.041844268665999995	0.065973445488	0.022602013732	0.005192354505999999	0.0061086523599999994	0.032681290126	0.1682	-1.23888	-0.94772	0.29638	-0.1856	0.07424	0.538385085	9.4360959231	-0.4953142782	-0.018325957079999997	0.036041048923999994	0.027641651928999998	0.23229	-0.71224	-0.43674	-0.94144	-0.47072	11.768	0.9041796200345422	59.71
6652	707.654	0	32	1307	-49	-146	207	61	314	-2133	-1623	65	1321	-86	-6	-3	79	511	-320	128	48	144	496	57.85	0.9042092277325438	61.59	0.9043177892918826	3429.841552734375	-11657.58203125	869.0999755859375	11.9163818359375	11	0	0.0	0.0	0.0	0.0	0.18978228728324334	-0.1646230210024819	0.0	0.0	9.4325066892	-0.3481556883	0.4845465765	-0.3300627171993256	-0.6129379868507385	-0.3144776523113251	0.6453444957733154	7	34.49735921223958	-116.95970052083334	0.2297109696	9.3822574146	-0.35174492220000003	0.466600407	9.4827559638	-0.6173482308	-0.044593162228	0.063224551926	0.018631389698	-0.001832595708	-0.000916297854	0.024129176821999998	0.18212	-1.23714	-0.94134	0.29638	-0.1856	0.07424	0.3481556883	9.4325066892	-0.4845465765	-0.023212878968	0.031154127036000002	0.02138028326	0.23925	-0.71137	-0.43355	1.41216	4.23648	14.59232	0.9042635085122132	59.72
6653	707.759	0	43	1308	-29	-121	231	74	314	-2133	-1623	76	1324	-67	13	26	96	480	-338	124	-96	112	448	57.86	0.9042190969652109	61.59	0.9043770046878856	3429.841552734375	-11657.58203125	869.0999755859375	11.9163818359375	11	0	0.0	0.0	0.0	0.0	0.2513761549001053	-0.1219553113030881	0.0	0.0	9.4468636248	-0.4271188341	0.3445664544	-0.22354237735271454	-0.6514820456504822	-0.20977164804935453	0.6939710974693298	7	34.49735921223958	-116.95970052083334	0.3086741154	9.3894358824	-0.2081755662	0.5455635528	9.5042913672	-0.4809573426	-0.036957346778	0.070554934758	0.022602013732	0.003970624034	0.007941248068	0.029321531328	0.18212	-1.23714	-0.94134	0.2784	-0.19604	0.07192	0.4271188341	9.4468636248	-0.3445664544	-0.016493361372	0.039248091412999994	0.02596177253	0.23026	-0.71659	-0.43471	-2.82432	3.29504	13.18016	0.9042980508265482	59.725
6654	707.865	0	44	1307	-47	-145	213	68	300	-2118	-1649	69	1330	-91	-5	19	92	480	-338	124	-64	-32	384	57.85	0.9040315815445348	61.59	0.9043177892918826	3429.841552734375	-11657.58203125	869.0999755859375	11.9163818359375	11	0	0.0	0.0	0.0	0.0	0.29679509655488195	-0.09871340714954337	0.0	0.0	9.464809794299999	-0.4055834307	0.4953142782	-0.22345831990242004	-0.6514260172843933	-0.20978981256484985	0.6940453052520752	7	34.49735921223958	-116.95970052083334	0.31585258320000004	9.3822574146	-0.3373879866	0.4953142782	9.547362174	-0.6532405698	-0.04428772961	0.065057147634	0.020769418023999998	-0.0015271630899999999	0.005803219742	0.028099800855999998	0.174	-1.22844	-0.95642	0.2784	-0.19604	0.07192	0.4055834307	9.464809794299999	-0.4953142782	-0.02290744635	0.035430183688	0.024434609439999998	0.22619999999999998	-0.71224	-0.44225000000000003	-1.88288	-0.94144	11.29728	0.9041746854182087	59.72
6655	707.97	0	34	1304	-34	-122	216	74	300	-2118	-1649	69	1324	-73	21	16	102	520	-346	138	-80	128	448	57.85	0.9040315815445348	61.59	0.9042487046632124	3429.841552734375	-11657.58203125	869.0999755859375	11.8836669921875	11	0	0.0	0.0	0.0	0.0	0.3128400587082523	-0.10510530328928752	0.0	0.0	9.4325066892	-0.36969109170000003	0.3840480273	-0.223429337143898	-0.6514507532119751	-0.20981618762016296	0.6940234303474426	7	34.49735921223958	-116.95970052083334	0.24406790520000002	9.3607220112	-0.24406790520000002	0.4953142782	9.5042913672	-0.5240281494	-0.037262779396	0.065973445488	0.022602013732	0.006414084978	0.004886921888	0.031154127036	0.174	-1.22844	-0.95642	0.3016	-0.20068	0.08004	0.36969109170000003	9.4325066892	-0.3840480273	-0.015424347209	0.035430183687999994	0.026878070384	0.23779999999999998	-0.71456	-0.43819	-2.3536	3.76576	13.18016	0.9041401431038736	59.72
6656	708.075	0	51	1306	-41	-137	222	67	306	-2126	-1645	75	1321	-85	-7	11	92	520	-346	138	16	160	336	57.86	0.904159881569208	61.58	0.9042980508265482	3429.841552734375	-11657.58203125	869.0999755859375	11.9163818359375	11	0	0.0	0.0	0.0	0.0	0.2573885146359617	-0.1856567428508848	0.0	0.0	9.4289174553	-0.4522434714	0.4522434714	-0.2234685868024826	-0.6513754725456238	-0.2098463624715805	0.6940722465515137	7	34.49735921223958	-116.95970052083334	0.36610185780000004	9.3750789468	-0.2943171798	0.538385085	9.4827559638	-0.610169763	-0.041844268665999995	0.06780604119599999	0.020463985405999998	-0.0021380283259999997	0.003359758798	0.028099800855999998	0.17748	-1.23308	-0.9541000000000001	0.3016	-0.20068	0.08004	0.45224347140000004	9.4289174553	-0.4522434714	-0.021991148495999997	0.035582899997	0.024281893130999998	0.23953999999999998	-0.71688	-0.43703000000000003	0.47072	4.7072	9.88512	0.9042289661978782	59.72
6657	708.18	0	29	1302	-41	-113	217	73	306	-2126	-1645	55	1328	-75	14	9	95	546	-343	93	-16	16	416	57.85	0.9041993584998766	61.6	0.9042092277325438	3429.841552734375	-11657.58203125	869.0999755859375	11.9163818359375	11	0	0.0	0.0	0.0	0.0	0.2729782269255321	-0.18590305094208928	0.0	0.0	9.439685157000001	-0.3014956476	0.41635113240000005	-0.22331862151622767	-0.6513913869857788	-0.20986001193523407	0.6941015720367432	7	34.49735921223958	-116.95970052083334	0.2081755662	9.3463650756	-0.2943171798	0.394815729	9.533005238400001	-0.538385085	-0.034513885833999995	0.066278878106	0.022296581114	0.004276056651999999	0.002748893562	0.029016098709999997	0.17748	-1.23308	-0.9541000000000001	0.31668	-0.19894	0.05394	0.3014956476	9.439685157	-0.4163511324	-0.015118914590999998	0.034513885834	0.025656339911999997	0.24708000000000002	-0.71601	-0.45008000000000004	-0.47072	0.47072	12.23872	0.9042042931162102	59.725
6658	708.285	0	42	1306	-36	-139	212	68	306	-2134	-1620	74	1323	-70	-5	13	91	546	-343	93	-128	96	384	57.85	0.9041993584998766	61.58	0.9042980508265482	3429.841552734375	-11657.58203125	869.0999755859375	11.9163818359375	11	0	0.0	0.0	0.0	0.0	0.27221176064206665	-0.20467963197637826	0.0	0.0	9.436095923099998	-0.41635113240000005	0.38045879340000005	-0.22339420020580286	-0.6513371467590332	-0.20986106991767886	0.6941278576850891	7	34.49735921223958	-116.95970052083334	0.3014956476	9.3750789468	-0.2584248408	0.5312066172000001	9.497112899400001	-0.502492746	-0.042455133901999995	0.064751715016	0.020769418023999998	-0.0015271630899999999	0.003970624034	0.027794368237999998	0.17748	-1.23772	-0.9396	0.31668	-0.19894	0.05394	0.41635113240000005	9.436095923100002	-0.3804587934	-0.021991148495999997	0.034361169525	0.024281893130999998	0.24708000000000002	-0.7183299999999999	-0.44283	-3.76576	2.82432	11.29728	0.9042487046632124	59.715
6659	708.391	0	21	1304	-30	-131	218	78	306	-2134	-1620	48	1321	-76	8	19	94	525	-332	128	16	112	544	57.85	0.9040315815445348	61.6	0.9044362200838884	3429.841552734375	-11657.58203125	869.0999755859375	11.9327392578125	11	0	0.0	0.0	0.0	0.0	0.3997962369645381	-0.0934162276699982	0.0	0.0	9.4217389875	-0.2476571391	0.3804587934	-0.2231750637292862	-0.6513465642929077	-0.20984317362308505	0.6941948533058167	7	34.49735921223958	-116.95970052083334	0.1507478238	9.3607220112	-0.215354034	0.3445664544	9.4827559638	-0.5455635528	-0.040011672958	0.06658431072399999	0.023823744204	0.002443460944	0.005803219742	0.028710666091999997	0.17748	-1.23772	-0.9396	0.3045	-0.19256	0.07424	0.2476571391	9.4217389875	-0.3804587934	-0.018784106007	0.036193765233	0.026267205147999996	0.24098999999999998	-0.71514	-0.43268	0.47072	3.29504	16.00448	0.9042339008142115	59.725
6660	708.496	0	43	1306	-38	-131	208	65	270	-2125	-1628	73	1327	-73	17	-1	85	525	-332	128	32	160	544	57.83	0.9039921046138664	61.58	0.9042881815938809	3429.841552734375	-11657.58203125	869.0999755859375	11.9327392578125	11	0	0.0	0.0	0.0	0.0	0.3050404406272921	-0.21324467954625706	0.0	0.0	9.4504528587	-0.41635113240000005	0.3984049629	-0.22332696616649628	-0.6512643694877625	-0.20988385379314425	0.6942108273506165	7	34.49735921223958	-116.95970052083334	0.3086741154	9.3750789468	-0.2727817764	0.5240281494	9.5258267706	-0.5240281494	-0.040011672958	0.063529984544	0.01985312017	0.005192354505999999	-0.000305432618	0.02596177253	0.1566	-1.2325	-0.94424	0.3045	-0.19256	0.07424	0.4163511324	9.4504528587	-0.3984049629	-0.017409659225999997	0.031612275962999994	0.02290744635	0.23054999999999998	-0.71253	-0.435	0.94144	4.7072	16.00448	0.9041401431038736	59.705
6661	708.602	0	22	1304	-35	-144	223	78	270	-2125	-1628	47	1327	-79	-6	13	105	512	-341	91	-32	112	512	57.86	0.9041006661732052	61.58	0.9042388354305452	3429.841552734375	-11657.58203125	869.0999755859375	11.9000244140625	11	0	0.0	0.0	0.0	0.0	0.2167414216883244	-0.3147408185646809	0.0	0.0	9.443274390900001	-0.2476571391	0.4091726646	-0.22302941977977755	-0.6512724161148071	-0.20990002155303955	0.6942939758300781	7	34.49735921223958	-116.95970052083334	0.15792629160000002	9.3607220112	-0.251246373	0.3373879866	9.5258267706	-0.5670989562000001	-0.043982296992	0.068111473814	0.023823744204	-0.001832595708	0.003970624034	0.03207042489	0.1566	-1.2325	-0.94424	0.29696	-0.19778	0.05278	0.24765713910000003	9.443274390900001	-0.4091726646	-0.02290744635	0.036041048924	0.027947084546999998	0.22677999999999998	-0.71514	-0.44572999999999996	-0.94144	3.29504	15.06304	0.9041697508018751	59.72
6662	708.707	0	35	1301	-49	-120	185	53	303	-2129	-1628	69	1324	-89	19	-13	75	512	-341	91	-80	64	336	57.85	0.9042092277325438	61.59	0.9041993584998766	3429.841552734375	-11657.58203125	869.0999755859375	11.9000244140625	11	0	0.0	0.0	0.0	0.0	0.16069168059422884	-0.3742754466402441	0.0	0.0	9.4217389875	-0.3732803256	0.4953142782	-0.1815846562385559	-0.6621847152709961	-0.16999651491641998	0.7068519592285156	7	34.49735921223958	-116.95970052083334	0.251246373	9.3391866078	-0.35174492220000003	0.4953142782	9.5042913672	-0.6388836342	-0.03665191416	0.056505034329999995	0.016187928754	0.005803219742	-0.003970624034	0.02290744635	0.17574	-1.23482	-0.94424	0.29696	-0.19778	0.05278	0.3732803256	9.4217389875	-0.49531427820000007	-0.015424347209	0.026267205147999996	0.019547687552	0.23635	-0.7163	-0.44572999999999996	-2.3536	1.88288	9.88512	0.9042042931162102	59.72
6663	708.813	0	35	1302	-38	-134	223	81	302	-2122	-1669	69	1325	-76	-4	25	109	515	-348	107	-96	-80	400	57.85	0.9040809277078709	61.58	0.9041894892672094	3429.841552734375	-11657.58203125	869.0999755859375	11.9163818359375	11	0	0.0	0.0	0.0	0.0	0.1440535131160276	-0.3852189199722831	0.0	0.0	9.4289174553	-0.3732803256	0.4091726645999999	-0.1815081685781479	-0.6622286438941956	-0.16995269060134888	0.7068409323692322	7	34.49735921223958	-116.95970052083334	0.251246373	9.3463650756	-0.2727817764	0.4953142782	9.511469835	-0.5455635528	-0.040927970811999996	0.068111473814	0.024740042057999997	-0.001221730472	0.00763581545	0.033292155361999996	0.17516	-1.23076	-0.96802	0.2987	-0.20184	0.06206	0.3732803256	9.428917455299999	-0.4091726646	-0.021074850641999997	0.037873644632	0.029016098709999997	0.23693000000000003	-0.7163	-0.45298	-2.82432	-2.3536	11.768	0.9041352084875401	59.715
6664	708.918	0	28	1304	-64	-127	192	64	302	-2122	-1669	58	1322	-102	4	-4	84	515	-348	107	32	112	544	57.85	0.9041993584998766	61.59	0.9043770046878856	3429.841552734375	-11657.58203125	869.0999755859375	11.9163818359375	11	0	0.0	0.0	0.0	0.0	0.03896034431432519	-0.4895052055938414	0.0	0.0	9.4253282214	-0.3086741154	0.5958128274	-0.1813473403453827	-0.6621465086936951	-0.16994862258434296	0.706960141658783	7	34.49735921223958	-116.95970052083334	0.20099709840000002	9.3607220112	-0.4594219392	0.4163511324	9.4899344316	-0.7322037156000001	-0.038789942486	0.058643062656	0.019547687552	0.001221730472	-0.001221730472	0.025656339912	0.17516	-1.23076	-0.96802	0.2987	-0.20184	0.06206	0.3086741154	9.425328221400001	-0.5958128274000001	-0.018784106007	0.028710666092	0.022602013732	0.23693000000000003	-0.7163	-0.45298	0.94144	3.29504	16.00448	0.9042881815938811	59.72
6665	709.023	0	51	1307	-31	-144	224	76	299	-2115	-1641	85	1326	-74	5	19	96	503	-328	123	-48	96	448	57.84	0.9041302738712064	61.59	0.9043671354552184	3429.841552734375	-11657.58203125	869.0999755859375	11.9000244140625	11	0	0.0	0.0	0.0	0.0	0.08777858290058545	-0.423332371347782	0.0	0.0	9.4504528587	-0.4881358104	0.3768695595	-0.18144278228282928	-0.6621791124343872	-0.16988684237003324	0.7069200277328491	7	34.49735921223958	-116.95970052083334	0.36610185780000004	9.3822574146	-0.2225325018	0.610169763	9.5186483028	-0.5312066172000001	-0.043982296992	0.06841690643199999	0.023212878968	0.0015271630899999999	0.005803219742	0.029321531328	0.17342	-1.2267	-0.95178	0.29174	-0.19024	0.07134	0.48813581040000004	9.4504528587	-0.3768695595	-0.021227566951	0.037110063086999996	0.026267205148	0.23258	-0.7084699999999999	-0.44022	-1.41216	2.82432	13.18016	0.9042487046632124	59.715
6666	709.129	0	30	1307	-75	-145	230	75	299	-2115	-1641	63	1331	-104	-1	15	95	543	-334	135	-80	64	336	57.85	0.9042585738958796	61.58	0.9042980508265482	3429.841552734375	-11657.58203125	869.0999755859375	11.9490966796875	11	0	0.0	0.0	0.0	0.0	0.053395360847020686	-0.4496951038957089	0.0	0.0	9.4683990282	-0.3337987527	0.6424728680999999	-0.1811092644929886	-0.6620715856552124	-0.16990314424037933	0.7071022391319275	7	34.49735921223958	-116.95970052083334	0.215354034	9.3822574146	-0.538385085	0.45224347140000004	9.554540641800001	-0.7465606512	-0.04428772961	0.07024950213999999	0.02290744635	-0.000305432618	0.00458148927	0.029016098709999997	0.17342	-1.2267	-0.95178	0.31494	-0.19372	0.0783	0.33379875270000003	9.4683990282	-0.6424728681	-0.022296581114	0.037415495704999996	0.025961772529999996	0.24418	-0.71021	-0.43673999999999996	-2.3536	1.88288	9.88512	0.9042783123612139	59.715
6667	709.234	0	59	1309	-29	-120	214	62	296	-2143	-1616	82	1317	-67	10	4	77	543	-334	135	-32	160	544	57.85	0.9042092277325438	61.59	0.9043770046878856	3429.841552734375	-11657.58203125	869.0999755859375	11.9163818359375	11	0	0.0	0.0	0.0	0.0	0.045925468936556885	-0.4487977089970501	0.0	0.0	9.4253282214	-0.5060819799	0.3445664544	-0.1812761127948761	-0.6621180772781372	-0.1699063777923584	0.7070152163505554	7	34.49735921223958	-116.95970052083334	0.4235296002	9.3966143502	-0.2081755662	0.5886343596	9.4540420926	-0.4809573426	-0.03665191416	0.065362580252	0.018936822316	0.0030543261799999997	0.001221730472	0.023518311586	0.17168	-1.24294	-0.93728	0.31494	-0.19372	0.0783	0.5060819799	9.425328221400001	-0.3445664544	-0.01679879399	0.033292155361999996	0.021227566950999997	0.24331	-0.7183299999999999	-0.42949	-0.94144	4.7072	16.00448	0.9042931162102147	59.72
6668	709.34	0	40	1311	-58	-144	217	85	296	-2143	-1616	68	1326	-96	-10	26	98	507	-356	98	-16	64	368	57.86	0.904159881569208	61.58	0.9042881815938809	3429.841552734375	-11657.58203125	869.0999755859375	11.9000244140625	11	0	0.0	0.0	0.0	0.0	-0.06896887676095961	-0.5525421552732501	0.0	0.0	9.464809794299999	-0.3876372612	0.5527420206	-0.18103201687335968	-0.6620426177978516	-0.16991004347801208	0.707147479057312	7	34.49735921223958	-116.95970052083334	0.287138712	9.4109712858	-0.4163511324	0.48813581040000004	9.5186483028	-0.6891329088	-0.043982296992	0.066278878106	0.02596177253	-0.0030543261799999997	0.007941248068	0.029932396564	0.17168	-1.24294	-0.93728	0.29406	-0.20648	0.05684	0.3876372612	9.4648097943	-0.5527420206	-0.023518311586	0.037110063087	0.027947084546999998	0.23287	-0.72471	-0.44022	-0.47072	1.88288	10.82656	0.9042240315815444	59.72
6669	709.445	0	49	1303	-32	-119	194	61	313	-2114	-1613	72	1323	-72	10	-6	81	507	-356	98	-80	64	320	57.85	0.9040907969405378	61.58	0.9042980508265482	3429.841552734375	-11657.58203125	869.0999755859375	11.9163818359375	11	0	0.0	0.0	0.0	0.0	-0.08734644125068805	-0.5489107826010382	0.0	0.0	9.4253282214	-0.4342973019	0.3732803256	-0.18109089136123654	-0.662055253982544	-0.1699051707983017	0.7071217894554138	7	34.49735921223958	-116.95970052083334	0.35174492220000003	9.3535435434	-0.2297109696	0.5168496816	9.497112899400001	-0.5168496816	-0.036346481542	0.059253927892	0.018631389698	0.0030543261799999997	-0.001832595708	0.024740042057999997	0.18154	-1.22612	-0.93554	0.29406	-0.20648	0.05684	0.43429730190000004	9.425328221400001	-0.3732803256	-0.016646077681	0.028710666092	0.021685715878	0.2378	-0.7163	-0.43935	-2.3536	1.88288	9.4144	0.9041944238835431	59.715
6670	709.551	0	45	1305	-40	-143	221	83	313	-2114	-1613	70	1320	-89	-12	18	102	516	-346	131	-16	0	400	57.85	0.9040907969405378	61.58	0.9041894892672094	3429.841552734375	-11657.58203125	869.0999755859375	11.9163818359375	11	0	0.0	0.0	0.0	0.0	-0.01857781708954575	-0.4526769330586177	0.0	0.0	9.4217389875	-0.4127618985	0.4630111731	-0.18098779022693634	-0.6619707345962524	-0.16992542147636416	0.7072224020957947	7	34.49735921223958	-116.95970052083334	0.323031051	9.367900479000001	-0.287138712	0.502492746	9.475577496	-0.6388836342	-0.043676864374	0.067500608578	0.025350907293999997	-0.003665191416	0.005497787124	0.031154127036	0.18154	-1.22612	-0.93554	0.29928	-0.20068	0.07598	0.4127618985	9.4217389875	-0.46301117310000006	-0.023671027895000002	0.036499197851	0.028252517164999998	0.24041	-0.7134	-0.42978	-0.47072	0.0	11.768	0.9041401431038736	59.715
6671	709.656	0	31	1305	-45	-118	188	60	285	-2113	-1659	65	1327	-84	18	-2	78	516	-346	131	32	-16	416	57.85	0.9042684431285468	61.59	0.9044263508512214	3429.841552734375	-11657.58203125	869.0999755859375	11.9163818359375	11	0	0.0	0.0	0.0	0.0	-0.08435228122775322	-0.5077755203444051	0.0	0.0	9.4468636248	-0.34456645439999994	0.4630111731	-0.1808740496635437	-0.6619603037834167	-0.16992464661598206	0.7072615027427673	7	34.49735921223958	-116.95970052083334	0.2225325018	9.367900479000001	-0.323031051	0.466600407	9.5258267706	-0.6029912952	-0.036041048924	0.057421332183999994	0.01832595708	0.005497787124	-0.000610865236	0.023823744204	0.1653	-1.22554	-0.96222	0.29928	-0.20068	0.07598	0.3445664544	9.4468636248	-0.46301117310000006	-0.0152716309	0.028405233473999997	0.021074850642	0.23229	-0.71311	-0.44311999999999996	0.94144	-0.47072	12.23872	0.9043473969898841	59.72
6672	709.762	0	51	1308	-34	-130	222	88	285	-2113	-1659	78	1325	-74	2	24	100	492	-334	112	-16	32	336	57.85	0.9041401431038736	61.59	0.9041993584998766	3429.841552734375	-11657.58203125	869.0999755859375	11.9327392578125	11	0	0.0	0.0	0.0	0.0	0.000499785843469526	-0.40294664823318804	0.0	0.0	9.4504528587	-0.4630111731	0.3876372612	-0.2715398371219635	-0.6354777812957764	-0.25522279739379883	0.6762363314628601	7	34.49735921223958	-116.95970052083334	0.36610185780000004	9.3894358824	-0.24406790520000002	0.5599204884	9.511469835	-0.5312066172000001	-0.03970624034	0.06780604119599999	0.026878070384	0.000610865236	0.007330382832	0.0305432618	0.1653	-1.22554	-0.96222	0.28536	-0.19372	0.06496	0.4630111731	9.4504528587	-0.3876372612	-0.019547687552	0.037568212014	0.028710666092	0.22533	-0.70963	-0.44863	-0.47072	0.94144	9.88512	0.9041697508018751	59.72
6673	709.867	0	21	1310	-47	-130	205	59	315	-2130	-1595	47	1319	-92	6	-8	83	492	-334	112	-16	-16	400	57.85	0.9043177892918826	61.58	0.9042388354305452	3429.841552734375	-11657.58203125	869.0999755859375	11.9490966796875	11	0	0.0	0.0	0.0	0.0	0.09060121774610104	-0.3062402442415252	0.0	0.0	9.436095923099998	-0.2440679052	0.4989035121	-0.27116966247558594	-0.6355164051055908	-0.25521358847618103	0.6763519048690796	7	34.49735921223958	-116.95970052083334	0.1507478238	9.403792818000001	-0.3373879866	0.3373879866	9.4683990282	-0.6604190376	-0.03970624034	0.06261368669	0.018020524462	0.001832595708	-0.002443460944	0.025350907293999997	0.1827	-1.2354	-0.9251	0.28536	-0.19372	0.06496	0.24406790520000002	9.436095923100002	-0.4989035121	-0.018936822316	0.030085112873000003	0.021685715878	0.23403000000000002	-0.7145600000000001	-0.43007	-0.47072	-0.47072	11.768	0.9042783123612139	59.715
6674	709.975	0	46	1301	-19	-134	219	79	315	-2130	-1595	77	1324	-63	7	25	111	529	-359	143	-32	80	448	57.84	0.9041796200345424	61.58	0.9042980508265482	3429.841552734375	-11657.58203125	868.9000244140625	11.9000244140625	11	0	0.0	0.0	0.0	0.0	0.13310421739226444	-0.2673687889262781	0.0	0.0	9.4217389875	-0.44147576969999996	0.2943171798	-0.2712225914001465	-0.6355490684509277	-0.2552306652069092	0.676293671131134	7	34.49735921223958	-116.95970052083334	0.3302095188	9.3391866078	-0.1363908882	0.5527420206	9.5042913672	-0.45224347140000004	-0.040927970811999996	0.066889743342	0.024129176821999998	0.0021380283259999997	0.00763581545	0.033903020597999996	0.1827	-1.2354	-0.9251	0.30682	-0.20822	0.08294	0.4414757697	9.4217389875	-0.29431717980000005	-0.019394971243	0.037262779396	0.029016098709999997	0.24475999999999998	-0.7218100000000001	-0.42108	-0.94144	2.3536	13.18016	0.9042388354305453	59.71
6675	710.081	0	28	1306	-50	-142	217	63	290	-2134	-1633	62	1318	-92	-5	8	86	529	-359	143	16	-16	320	57.85	0.9042684431285468	61.58	0.9042980508265482	3429.841552734375	-11657.58203125	868.9000244140625	11.8836669921875	11	0	0.0	0.0	0.0	0.0	0.17481958836633707	-0.23233258874935075	0.0	0.0	9.418149753599998	-0.323031051	0.5096712137999999	-0.2709076404571533	-0.6354964971542358	-0.2552649974822998	0.6764562726020813	7	34.49735921223958	-116.95970052083334	0.20099709840000002	9.3750789468	-0.35892339	0.4450650036	9.461220560400001	-0.6604190376	-0.043371431756	0.066278878106	0.019242254934	-0.0015271630899999999	0.002443460944	0.026267205148	0.1682	-1.23772	-0.94714	0.30682	-0.20822	0.08294	0.323031051	9.418149753600002	-0.5096712138	-0.022449297423	0.034361169525	0.022754730041	0.23751	-0.72297	-0.4321	0.47072	-0.47072	9.4144	0.9042832469775475	59.715
6676	710.186	0	49	1304	-20	-129	223	67	290	-2134	-1633	75	1324	-61	5	10	89	531	-344	124	-48	128	384	57.84	0.9041302738712064	61.59	0.9043079200592152	3429.841552734375	-11657.58203125	868.9000244140625	11.9163818359375	11	0	0.0	0.0	0.0	0.0	0.22634051509342504	-0.19513987753334644	0.0	0.0	9.4325066892	-0.4450650036	0.29072794589999995	-0.2709650993347168	-0.635522186756134	-0.25525861978530884	0.6764114499092102	7	34.49735921223958	-116.95970052083334	0.35174492220000003	9.3607220112	-0.143569356	0.538385085	9.5042913672	-0.43788653580000003	-0.039400807722	0.068111473814	0.020463985405999998	0.0015271630899999999	0.0030543261799999997	0.027183503002	0.1682	-1.23772	-0.94714	0.30798	-0.19952	0.07192	0.4450650036	9.4325066892	-0.2907279459	-0.018936822316	0.035582899997	0.023823744204	0.23808999999999997	-0.7186199999999999	-0.43761	-1.41216	3.76576	11.29728	0.9042190969652109	59.715
6677	710.292	0	37	1307	-63	-145	231	74	282	-2102	-1627	61	1325	-96	-6	21	94	531	-344	124	16	48	512	57.86	0.9042190969652109	61.59	0.9043671354552184	3429.841552734375	-11657.58203125	868.9000244140625	11.8673095703125	11	0	0.0	0.0	0.0	0.0	0.2000487099467895	-0.2441231688487769	0.0	0.0	9.4468636248	-0.3517449222	0.5706881900999999	-0.2706816494464874	-0.6354525089263916	-0.2552608847618103	0.6765895485877991	7	34.49735921223958	-116.95970052083334	0.26560330860000003	9.3822574146	-0.45224347140000004	0.43788653580000003	9.511469835	-0.6891329088	-0.04428772961	0.070554934758	0.022602013732	-0.001832595708	0.006414084978	0.028710666091999997	0.16356	-1.21916	-0.94366	0.30798	-0.19952	0.07192	0.35174492220000003	9.446863624799999	-0.5706881901	-0.023060162659	0.038484509868	0.025656339911999997	0.23576999999999998	-0.70934	-0.43587000000000004	0.47072	1.41216	15.06304	0.9042931162102146	59.725
6678	710.397	0	33	1310	-2	-118	199	65	282	-2102	-1627	60	1324	-56	17	4	85	519	-350	123	-16	96	512	57.84	0.9040809277078709	61.59	0.9043770046878856	3429.841552734375	-11657.58203125	868.9000244140625	11.9163818359375	11	0	0.0	0.0	0.0	0.0	0.19403469479273114	-0.2580153687526329	0.0	0.0	9.454042092599998	-0.3337987527	0.20817556620000002	-0.27070438861846924	-0.635541558265686	-0.25525110960006714	0.6765004992485046	7	34.49735921223958	-116.95970052083334	0.2368894374	9.403792818000001	-0.0143569356	0.430708068	9.5042913672	-0.40199419680000004	-0.036041048924	0.060781090982	0.01985312017	0.005192354505999999	0.001221730472	0.02596177253	0.16356	-1.21916	-0.94366	0.30102	-0.203	0.07134	0.33379875270000003	9.454042092600002	-0.20817556620000002	-0.015424347209000001	0.031001410727	0.02290744635	0.23229	-0.71108	-0.43616000000000005	-0.47072	2.82432	15.06304	0.9042289661978782	59.715
6679	710.503	0	40	1306	-47	-142	230	86	287	-2130	-1638	62	1322	-88	-7	28	108	519	-350	123	-16	-16	400	57.85	0.9041993584998766	61.58	0.9042881815938809	3429.841552734375	-11657.58203125	868.9000244140625	11.9327392578125	11	0	0.0	0.0	0.0	0.0	0.1159371021193128	-0.34841433449939113	0.0	0.0	9.4325066892	-0.3661018577999999	0.4845465765	-0.27042290568351746	-0.635513186454773	-0.2552822828292847	0.6766279935836792	7	34.49735921223958	-116.95970052083334	0.287138712	9.3750789468	-0.3373879866	0.4450650036	9.4899344316	-0.6317051664000001	-0.043371431756	0.07024950213999999	0.026267205148	-0.0021380283259999997	0.008552113303999999	0.032986722744	0.16646	-1.2354	-0.95004	0.30102	-0.203	0.07134	0.36610185780000004	9.4325066892	-0.48454657650000005	-0.022754730041	0.039400807722	0.029626963946	0.23374	-0.7192000000000001	-0.43935	-0.47072	-0.47072	11.768	0.9042437700468788	59.715
6680	710.608	0	22	1307	-24	-123	181	62	305	-2139	-1624	56	1327	-69	13	-9	77	524	-357	118	32	176	416	57.87	0.9041105354058722	61.59	0.9043770046878856	3429.841552734375	-11657.58203125	868.9000244140625	11.9000244140625	11	0	0.0	0.0	0.0	0.0	0.08702636698994441	-0.3803407857217847	0.0	0.0	9.454042092599998	-0.27996024420000004	0.3337987527	-0.2703310251235962	-0.635574460029602	-0.2553168535232544	0.676594078540802	7	34.49735921223958	-116.95970052083334	0.15792629160000002	9.3822574146	-0.1722832272	0.40199419680000004	9.5258267706	-0.4953142782	-0.037568212014	0.055283303857999996	0.018936822316	0.003970624034	-0.002748893562	0.023518311586	0.1769	-1.24062	-0.94192	0.30392	-0.20706	0.06844	0.27996024420000004	9.4540420926	-0.33379875270000003	-0.016798793989999998	0.026267205148	0.021227566950999997	0.24041	-0.72384	-0.43674	0.94144	5.17792	12.23872	0.9042437700468788	59.730000000000004
6681	710.713	0	51	1307	-37	-139	234	98	305	-2139	-1624	78	1321	-78	-7	34	112	524	-357	118	-16	32	384	57.84	0.9040710584752036	61.58	0.9042388354305452	3429.841552734375	-11657.58203125	868.9000244140625	11.9000244140625	11	0	0.0	0.0	0.0	0.0	0.0998397588474004	-0.3605163504874589	0.0	0.0	9.4325066892	-0.4630111731	0.4127618985	-0.33611297607421875	-0.6061201095581055	-0.3141627609729767	0.6488052606582642	7	34.49735921223958	-116.95970052083334	0.36610185780000004	9.3822574146	-0.26560330860000003	0.5599204884	9.4827559638	-0.5599204884	-0.042455133901999995	0.071471232612	0.029932396564	-0.0021380283259999997	0.010384709011999999	0.034208453215999995	0.1769	-1.24062	-0.94192	0.30392	-0.20706	0.06844	0.4630111731	9.4325066892	-0.4127618985	-0.022296581113999996	0.040927970812	0.03207042489	0.24041	-0.72384	-0.43674	-0.47072	0.94144	11.29728	0.9041549469528745	59.71
6682	710.819	0	36	1306	-54	-137	192	50	267	-2135	-1638	59	1326	-87	10	-24	73	523	-346	128	48	48	528	57.86	0.9042190969652109	61.59	0.9041993584998766	3429.841552734375	-11657.58203125	868.9000244140625	11.9000244140625	11	0	0.0	0.0	0.0	0.0	0.0846662901579931	-0.3702047544038608	0.0	0.0	9.4468636248	-0.34097722049999996	0.5060819799	-0.3358689546585083	-0.6061815023422241	-0.3141925036907196	0.6488598585128784	7	34.49735921223958	-116.95970052083334	0.2584248408	9.3750789468	-0.3876372612	0.4235296002	9.5186483028	-0.6245266986	-0.041844268665999995	0.058643062656	0.0152716309	0.0030543261799999997	-0.007330382832	0.022296581114	0.15486	-1.2383	-0.95004	0.30334	-0.20068	0.07424	0.3409772205	9.4468636248	-0.5060819799	-0.019394971243	0.025656339912	0.018784106007	0.2291	-0.71949	-0.4379	1.41216	1.41216	15.533760000000001	0.9042092277325438	59.725
6683	710.924	0	52	1302	-37	-130	244	91	267	-2135	-1638	91	1321	-71	4	29	110	523	-346	128	96	48	448	57.85	0.9041500123365408	61.58	0.9040611892425364	3429.841552734375	-11657.58203125	868.9000244140625	11.9327392578125	11	0	0.0	0.0	0.0	0.0	0.048418192752609925	-0.40205792063622575	0.0	0.0	9.4145605197	-0.5132604476999999	0.3876372612	-0.3358969986438751	-0.6061939001083374	-0.314172625541687	0.64884352684021	7	34.49735921223958	-116.95970052083334	0.3732803256	9.3463650756	-0.26560330860000003	0.6532405698	9.4827559638	-0.5096712138	-0.03970624034	0.074525558792	0.027794368237999998	0.001221730472	0.008857545922	0.033597587979999996	0.15486	-1.2383	-0.95004	0.30334	-0.20068	0.07424	0.5132604477	9.4145605197	-0.3876372612	-0.019242254934	0.041691552357	0.030695978108999995	0.2291	-0.71949	-0.4379	2.82432	1.41216	13.18016	0.9041056007895386	59.715
6684	711.03	0	27	1309	-61	-150	189	59	305	-2107	-1646	57	1328	-94	-9	-6	80	519	-323	96	48	-16	432	57.84	0.9040611892425364	61.58	0.9042881815938809	3429.841552734375	-11657.58203125	868.9000244140625	11.8673095703125	11	0	0.0	0.0	0.0	0.0	0.1002815690098922	-0.3379739526263788	0.0	0.0	9.464809794299999	-0.3014956476	0.5563312545	-0.3355742990970612	-0.6061857342720032	-0.3142089545726776	0.649000346660614	7	34.49735921223958	-116.95970052083334	0.1938186306	9.3966143502	-0.43788653580000003	0.4091726646	9.533005238400001	-0.6747759732	-0.0458148927	0.057726764801999994	0.018020524462	-0.002748893562	-0.001832595708	0.024434609439999998	0.1769	-1.22206	-0.95468	0.30102	-0.18734	0.05568	0.3014956476	9.4648097943	-0.5563312545000001	-0.024281893130999998	0.027947084546999998	0.021227566950999997	0.23896	-0.7047	-0.4495	1.41216	-0.47072	12.70944	0.9041746854182087	59.71
6685	711.135	0	40	1307	-10	-121	233	83	305	-2107	-1646	72	1323	-50	12	32	103	519	-323	96	-16	64	384	57.85	0.9042684431285468	61.58	0.9040710584752036	3429.841552734375	-11657.58203125	868.9000244140625	11.9163818359375	11	0	0.0	0.0	0.0	0.0	0.21667969328523254	-0.2182325318610717	0.0	0.0	9.439685157000001	-0.4019941968	0.215354034	-0.33559688925743103	-0.6062569618225098	-0.3141441643238068	0.6489535570144653	7	34.49735921223958	-116.95970052083334	0.287138712	9.3822574146	-0.071784678	0.5168496816	9.497112899400001	-0.35892339	-0.036957346778	0.071165799994	0.025350907293999997	0.003665191416	0.009773843776	0.031459559654	0.1769	-1.22206	-0.95468	0.30102	-0.18734	0.05568	0.40199419680000004	9.439685157	-0.215354034	-0.016646077681	0.040469821885	0.028405233473999997	0.23896	-0.7047	-0.4495	-0.47072	1.88288	11.29728	0.9041697508018752	59.715
6686	711.241	0	33	1304	-53	-143	217	66	300	-2116	-1648	62	1326	-99	1	5	85	526	-322	126	-16	112	528	57.87	0.904347396989884	61.59	0.9042585738958796	3429.841552734375	-11657.58203125	868.9000244140625	11.9163818359375	11	0	0.0	0.0	0.0	0.0	0.22013052989459486	-0.22989967552435225	0.0	0.0	9.439685157000001	-0.3409772205	0.5455635528	-0.3352854549884796	-0.6062265634536743	-0.31416845321655273	0.6491312384605408	7	34.49735921223958	-116.95970052083334	0.2368894374	9.3607220112	-0.3804587934	0.4450650036	9.5186483028	-0.7106683122	-0.043676864374	0.066278878106	0.020158552788	0.000305432618	0.0015271630899999999	0.02596177253	0.174	-1.22728	-0.95584	0.30508	-0.18676	0.07308	0.3409772205	9.439685157	-0.5455635528	-0.021685715878	0.033903020598	0.023060162659	0.23954	-0.70702	-0.44138	-0.47072	3.29504	15.533760000000001	0.9043029854428818	59.730000000000004
6687	711.346	0	37	1303	-33	-131	221	65	300	-2116	-1648	73	1322	-69	6	7	87	526	-322	126	-64	160	512	57.85	0.903972366148532	61.58	0.904347396989884	3429.841552734375	-11657.58203125	868.9000244140625	11.9327392578125	11	0	0.0	0.0	0.0	0.0	0.2824907815098439	-0.17961251150224822	0.0	0.0	9.4217389875	-0.394815729	0.3661018578	-0.3353187441825867	-0.606280505657196	-0.31414881348609924	0.6490731239318848	7	34.49735921223958	-116.95970052083334	0.26560330860000003	9.3535435434	-0.2368894374	0.5240281494	9.4899344316	-0.4953142782	-0.040011672958	0.067500608578	0.01985312017	0.001832595708	0.0021380283259999997	0.026572637766	0.174	-1.22728	-0.95584	0.30508	-0.18676	0.07308	0.394815729	9.4217389875	-0.36610185780000004	-0.019089538625	0.034819318452	0.023212878968	0.23954	-0.70702	-0.44138	-1.88288	4.7072	15.06304	0.904159881569208	59.715
6688	711.452	0	38	1300	-60	-156	224	74	301	-2132	-1630	72	1320	-91	-9	17	88	515	-349	112	-16	0	400	57.87	0.9040611892425364	61.59	0.9041401431038736	3429.841552734375	-11657.58203125	868.9000244140625	11.9163818359375	11	0	0.0	0.0	0.0	0.0	0.2526653495661222	-0.22435700053494345	0.0	0.0	9.403792818	-0.394815729	0.5419743188999999	-0.3350890874862671	-0.6062324047088623	-0.31417787075042725	0.6492225527763367	7	34.49735921223958	-116.95970052083334	0.2727817764	9.332008140000001	-0.430708068	0.5168496816	9.475577496	-0.6532405698	-0.047647488408	0.06841690643199999	0.022602013732	-0.002748893562	0.005192354505999999	0.026878070384	0.17458	-1.23656	-0.9454	0.2987	-0.20242	0.06496	0.394815729	9.403792818	-0.5419743189	-0.025198190984999997	0.036804630468999996	0.024740042057999997	0.23664000000000002	-0.7194900000000001	-0.44022	-0.47072	0.0	11.768	0.904100666173205	59.730000000000004
6689	711.557	0	31	1311	-31	-121	203	64	301	-2132	-1630	63	1323	-76	10	7	90	515	-349	112	-32	112	480	57.85	0.9040907969405378	61.58	0.9042388354305452	3429.841552734375	-11657.58203125	868.9000244140625	11.9163818359375	11	0	0.0	0.0	0.0	0.0	0.25786763646328925	-0.23092572748387374	0.0	0.0	9.454042092599998	-0.3373879866	0.3840480272999999	-0.335004985332489	-0.6063058376312256	-0.3141408264636993	0.6492153406143188	7	34.49735921223958	-116.95970052083334	0.2225325018	9.4109712858	-0.2225325018	0.45224347140000004	9.497112899400001	-0.5455635528	-0.036957346778	0.062002821454	0.019547687552	0.0030543261799999997	0.0021380283259999997	0.02748893562	0.17458	-1.23656	-0.9454	0.2987	-0.20242	0.06496	0.3373879866	9.454042092600002	-0.3840480273	-0.016951510299	0.03207042489	0.023518311586	0.23664000000000002	-0.7194900000000001	-0.44022	-0.94144	3.29504	14.1216	0.9041648161855416	59.715
6690	711.662	0	43	1302	-46	-153	214	77	285	-2118	-1651	70	1324	-81	-3	13	103	518	-347	106	-16	16	432	57.85	0.9041993584998766	61.59	0.9044263508512214	3429.841552734375	-11657.58203125	868.9000244140625	11.9000244140625	11	0	0.0	0.0	0.0	0.0	0.27970605873960463	-0.22143317689945327	0.0	0.0	9.4253282214	-0.4055834306999999	0.45583270530000003	-0.3349277973175049	-0.606292188167572	-0.31408727169036865	0.6492937803268433	7	34.49735921223958	-116.95970052083334	0.3086741154	9.3463650756	-0.3302095188	0.502492746	9.5042913672	-0.5814558918	-0.046731190554	0.065362580252	0.023518311586	-0.000916297854	0.003970624034	0.031459559654	0.1653	-1.22844	-0.95758	0.30044	-0.20126	0.06148	0.4055834307	9.425328221400001	-0.4558327053	-0.023823744204	0.034666602143	0.02748893562	0.23287	-0.71485	-0.44805	-0.47072	0.47072	12.70944	0.904312854675549	59.72
6691	711.768	0	28	1305	-48	-119	207	65	285	-2118	-1651	62	1319	-83	13	-1	78	518	-347	106	48	96	528	57.85	0.9042684431285468	61.59	0.9044263508512214	3429.841552734375	-11657.58203125	868.9000244140625	11.9327392578125	11	0	0.0	0.0	0.0	0.0	0.2532651400954897	-0.2676935406872713	0.0	0.0	9.418149753599998	-0.323031051	0.47018964090000004	-0.2124665379524231	-0.6544920206069946	-0.19927461445331573	0.6977018713951111	7	34.49735921223958	-116.95970052083334	0.20099709840000002	9.367900479000001	-0.3445664544	0.4450650036	9.4683990282	-0.5958128274000001	-0.036346481542	0.063224551926	0.01985312017	0.003970624034	-0.000305432618	0.023823744204	0.1653	-1.22844	-0.95758	0.30044	-0.20126	0.06148	0.323031051	9.418149753600002	-0.47018964090000004	-0.016187928754	0.031459559654	0.021838432186999997	0.23287	-0.71485	-0.44805	1.41216	2.82432	15.533760000000001	0.9043473969898841	59.72
6692	711.873	0	42	1306	-37	-151	233	76	283	-2135	-1655	72	1324	-76	-8	26	102	530	-344	104	48	48	528	57.85	0.9040907969405378	61.6	0.9043276585245498	3429.841552734375	-11657.58203125	868.9000244140625	11.9000244140625	11	0	0.0	0.0	0.0	0.0	0.21395466107783134	-0.3177803825987183	0.0	0.0	9.439685157000001	-0.4091726646	0.4055834306999999	-0.21238277852535248	-0.6544917225837708	-0.19923771917819974	0.6977382302284241	7	34.49735921223958	-116.95970052083334	0.3014956476	9.3750789468	-0.26560330860000003	0.5168496816	9.5042913672	-0.5455635528	-0.046120325318	0.071165799994	0.023212878968	-0.002443460944	0.007941248068	0.031154127036	0.16414	-1.2383	-0.9599	0.3074	-0.19952	0.06032	0.4091726646	9.439685157	-0.4055834307	-0.024281893130999998	0.039553524031	0.027183503002	0.23577	-0.7189099999999999	-0.44978999999999997	1.41216	1.41216	15.533760000000001	0.9042092277325438	59.725
6693	711.979	0	31	1303	-42	-135	198	52	283	-2135	-1655	64	1327	-78	4	-7	87	530	-344	104	64	80	528	57.85	0.9040907969405378	61.59	0.9041993584998766	3429.841552734375	-11657.58203125	868.9000244140625	11.9490966796875	11	0	0.0	0.0	0.0	0.0	0.17922551005932225	-0.35547924063620484	0.0	0.0	9.439685157000001	-0.3409772205	0.430708068	-0.212246373295784	-0.6545271277427673	-0.1992344856262207	0.6977473497390747	7	34.49735921223958	-116.95970052083334	0.2225325018	9.3535435434	-0.3014956476	0.4594219392	9.5258267706	-0.5599204884	-0.041233403429999996	0.060475658364	0.015882496136	0.001221730472	-0.0021380283259999997	0.026572637766	0.16414	-1.2383	-0.9599	0.3074	-0.19952	0.06032	0.3409772205	9.439685157	-0.430708068	-0.020005836479	0.029168815019	0.021227566950999997	0.23577	-0.7189099999999999	-0.44978999999999997	1.88288	2.3536	15.533760000000001	0.9041450777202072	59.72
6694	712.084	0	41	1303	-36	-135	232	85	286	-2109	-1666	73	1323	-76	1	8	102	514	-340	121	-32	48	384	57.86	0.9041006661732052	61.59	0.9042585738958796	3429.841552734375	-11657.58203125	868.9000244140625	11.9163818359375	11	0	0.0	0.0	0.0	0.0	0.3071273885768182	-0.22327118881183	0.0	0.0	9.4253282214	-0.4091726646	0.4019941967999999	-0.2121923714876175	-0.654547929763794	-0.1992204487323761	0.6977482438087463	7	34.49735921223958	-116.95970052083334	0.2943171798	9.3535435434	-0.2584248408	0.5240281494	9.497112899400001	-0.5455635528	-0.041233403429999996	0.070860367376	0.02596177253	0.000305432618	0.002443460944	0.031154127036	0.16588	-1.22322	-0.96628	0.29812	-0.19720000000000001	0.07018	0.4091726646	9.425328221400001	-0.40199419680000004	-0.020463985405999998	0.03665191416	0.028557949782999997	0.23199999999999998	-0.71021	-0.44805	-0.94144	1.41216	11.29728	0.9041796200345424	59.725
6695	712.19	0	38	1302	-57	-131	202	64	286	-2109	-1666	66	1326	-91	5	4	80	514	-340	121	32	112	432	57.85	0.903972366148532	61.59	0.9043671354552184	3429.841552734375	-11657.58203125	868.9000244140625	11.9163818359375	11	0	0.0	0.0	0.0	0.0	0.3300734471187973	-0.2121804758301973	0.0	0.0	9.4325066892	-0.3732803256	0.5312066172	-0.21202892065048215	-0.654529869556427	-0.19918027520179749	0.6978264451026917	7	34.49735921223958	-116.95970052083334	0.2727817764	9.3463650756	-0.4091726646	0.4737788748	9.5186483028	-0.6532405698	-0.040011672958	0.061697388836	0.019547687552	0.0015271630899999999	0.001221730472	0.024434609439999998	0.16588	-1.22322	-0.96628	0.29812	-0.19720000000000001	0.07018	0.3732803256	9.4325066892	-0.5312066172000001	-0.019242254934	0.031459559654	0.021991148496	0.23199999999999998	-0.71021	-0.44805	0.94144	3.29504	12.70944	0.9041697508018752	59.72
6696	712.295	0	39	1310	-36	-132	207	75	283	-2130	-1661	66	1324	-79	7	5	97	523	-324	135	48	96	560	57.85	0.9040809277078709	61.58	0.9042980508265482	3429.841552734375	-11657.58203125	868.9000244140625	11.9327392578125	11	0	0.0	0.0	0.0	0.0	0.3715455559040545	-0.18337099701170068	0.0	0.0	9.454042092599998	-0.3768695595	0.4127618985	-0.21198943257331848	-0.6546230912208557	-0.19916975498199466	0.6977539658546448	7	34.49735921223958	-116.95970052083334	0.2799602442	9.403792818000001	-0.2584248408	0.4737788748	9.5042913672	-0.5670989562000001	-0.040317105576	0.063224551926	0.02290744635	0.0021380283259999997	0.0015271630899999999	0.029626963946	0.16414	-1.2354	-0.96338	0.30334	-0.18792	0.0783	0.3768695595	9.454042092600002	-0.4127618985	-0.019089538625	0.032375857508000004	0.026267205148	0.23374	-0.7116600000000001	-0.44254	1.41216	2.82432	16.4752	0.9041894892672095	59.715
6697	712.401	0	42	1301	-57	-126	230	71	299	-2135	-1668	80	1321	-93	11	27	94	523	-324	135	-16	0	416	57.85	0.9041500123365408	61.59	0.9043671354552184	3429.841552734375	-11657.58203125	868.9000244140625	11.9000244140625	11	0	0.0	0.0	0.0	0.0	0.2326044364989933	-0.3437925925795637	0.0	0.0	9.4109712858	-0.4378865357999999	0.5383850849999999	-0.21187369525432587	-0.6545778512954712	-0.19915415346622467	0.6978359818458557	7	34.49735921223958	-116.95970052083334	0.3014956476	9.3391866078	-0.4091726646	0.574277424	9.4827559638	-0.6675975054000001	-0.038484509868	0.07024950213999999	0.021685715878	0.003359758798	0.008246680686	0.028710666091999997	0.17342	-1.2383	-0.96744	0.30334	-0.18792	0.0783	0.43788653580000003	9.4109712858	-0.538385085	-0.017562375535	0.039248091412999994	0.025198190985	0.23837999999999998	-0.71311	-0.44456999999999997	-0.47072	0.0	12.23872	0.9042585738958796	59.72
6698	712.506	0	23	1306	-26	-116	209	65	299	-2135	-1668	56	1323	-67	13	9	85	522	-343	108	-16	128	496	57.85	0.9042585738958796	61.58	0.9042881815938809	3429.841552734375	-11657.58203125	868.9000244140625	11.9000244140625	11	0	0.0	0.0	0.0	0.0	0.18973521426832665	-0.3879117485297579	0.0	0.0	9.436095923099998	-0.2835494781	0.3337987527	-0.2117930203676224	-0.654697060585022	-0.19911721348762512	0.6977591514587402	7	34.49735921223958	-116.95970052083334	0.1651047594	9.3750789468	-0.1866401628	0.40199419680000004	9.497112899400001	-0.4809573426	-0.035430183688	0.063835417162	0.01985312017	0.003970624034	0.002748893562	0.02596177253	0.17342	-1.2383	-0.96744	0.30276000000000003	-0.19894	0.06264	0.28354947810000003	9.436095923100002	-0.33379875270000003	-0.015729779827000002	0.033292155362	0.02290744635	0.23809000000000002	-0.71862	-0.45239999999999997	-0.47072	3.76576	14.59232	0.9042733777448803	59.715
6699	712.611	0	48	1308	-42	-142	229	82	288	-2142	-1664	80	1322	-75	1	36	95	522	-343	108	-96	64	336	57.85	0.9042092277325438	61.59	0.9044855662472244	3429.841552734375	-11657.58203125	868.9000244140625	11.9327392578125	11	0	0.0	0.0	0.0	0.0	-0.11153925359192357	-0.6906943348437847	0.0	0.0	9.439685157000001	-0.4594219392	0.41994036630000003	-0.21180333197116846	-0.6546368598937988	-0.1990858018398285	0.6978214979171753	7	34.49735921223958	-116.95970052083334	0.3445664544	9.3894358824	-0.3014956476	0.574277424	9.4899344316	-0.538385085	-0.043371431756	0.069944069522	0.025045474675999997	0.000305432618	0.010995574248	0.029016098709999997	0.16704	-1.24236	-0.96512	0.30276000000000003	-0.19894	0.06264	0.4594219392	9.439685157	-0.41994036630000003	-0.021532999569	0.040469821885	0.027030786693	0.2349	-0.72065	-0.45124	-2.82432	1.88288	9.88512	0.9043473969898841	59.72
6700	712.717	0	12	1307	-29	-123	193	63	288	-2142	-1664	50	1325	-68	9	3	84	512	-363	103	-48	16	448	57.85	0.9040809277078709	61.58	0.9043572662225512	3429.841552734375	-11657.58203125	868.9000244140625	11.9163818359375	11	0	0.0	0.0	0.0	0.0	-0.08850398580674637	-0.6277123504700091	0.0	0.0	9.4468636248	-0.2225325018	0.3481556883	-0.20171673595905304	-0.6641402244567871	-0.19315944612026212	0.6934821605682373	7	34.49735921223958	-116.95970052083334	0.0861416136	9.3822574146	-0.2081755662	0.35892339	9.511469835	-0.48813581040000004	-0.037568212014	0.058948495274	0.019242254934	0.002748893562	0.000916297854	0.025656339912	0.16704	-1.24236	-0.96512	0.29696	-0.21054	0.05974	0.2225325018	9.446863624799999	-0.3481556883	-0.017409659226	0.029932396564	0.022449297423	0.23199999999999998	-0.7264499999999999	-0.45269	-1.41216	0.47072	13.18016	0.9042190969652111	59.715
6701	712.826	0	65	1309	-37	-125	222	80	315	-2137	-1610	80	1328	-74	11	21	96	533	-339	135	-16	160	528	57.85	0.9043177892918826	61.57	0.9042881815938809	3429.841552734375	-11657.58203125	868.7999877929688	11.9327392578125	11	0	0.0	0.0	0.0	0.0	-0.16893913976487074	-0.6822657474962962	0.0	0.0	9.464809794299999	-0.5204389155	0.3984049629	-0.20184089243412015	-0.6640782952308655	-0.1931651383638382	0.6935037970542908	7	34.49735921223958	-116.95970052083334	0.466600407	9.3966143502	-0.26560330860000003	0.574277424	9.533005238400001	-0.5312066172000001	-0.03817907725	0.06780604119599999	0.024434609439999998	0.003359758798	0.006414084978	0.029321531328	0.1827	-1.23946	-0.9338	0.30914	-0.19662	0.0783	0.5204389155	9.4648097943	-0.39840496290000005	-0.017409659226	0.037110063086999996	0.026878070384	0.24592000000000003	-0.71804	-0.42774999999999996	-0.47072	4.7072	15.533760000000001	0.9043029854428817	59.71
