gs_lat	gs_lon	gs_alt	gs_baro	gs_temp	timestamp	run_number	radio_id	radio_name	rssi	lqi	crc	software_version	board_serial_number	time_stamp_ms	callsign	fcb_state_number	rot_vel_x	rot_vel_y	rot_vel_z	accel_x	accel_y	accel_z	magnetic_field_x	magnetic_field_y	magnetic_field_z	roll	pitch	yaw	orientation_quaternion	orientation_rpy	temperature	fcb_altitude	v_speed	fcb_latitude	fcb_longitude	gps_alt	fcb_battery_voltage	ground_speed	course_over_ground	gps_time	gps_sats	ble_client	distance	pyro_continuity	pyro_status	flash_usage	line_cutter_number	line_cutter_1_state	line_cutter_1_time_stamp_ms	line_cutter_1_barometer_pressure	line_cutter_1_fcb_altitude	line_cutter_1_delta_alt	line_cutter_1_temperature	line_cutter_1_accel_z	line_cutter_1_battery_voltage	line_cutter_1_cut_1	line_cutter_1_cut_2	line_cutter_1_current_sense	line_cutter_1_photoresistor	line_cutter_5_state	line_cutter_5_time_stamp_ms	line_cutter_5_barometer_pressure	line_cutter_5_fcb_altitude	line_cutter_5_delta_alt	line_cutter_5_temperature	line_cutter_5_accel_z	line_cutter_5_battery_voltage	line_cutter_5_cut_1	line_cutter_5_cut_2	line_cutter_5_current_sense	line_cutter_5_photoresistor	barometer_pressure	barometer_2_pressure	press_ref	ground_elev	ground_temp	line_cutter_5_limitVel	line_cutter_5_altitude1	line_cutter_5_altitude2	line_cutter_5_disreefDelay1	line_cutter_5_disreefDelay2	line_cutter_5_pwmVoltage1	line_cutter_5_pwmVoltage2	line_cutter_5_pwmDuration	line_cutter_5_lightThreshold	line_cutter_5_lightTriggerTime	line_cutter_5_seaLevelPressure	line_cutter_1_limitVel	line_cutter_1_altitude1	line_cutter_1_altitude2	line_cutter_1_disreefDelay1	line_cutter_1_disreefDelay2	line_cutter_1_pwmVoltage1	line_cutter_1_pwmVoltage2	line_cutter_1_pwmDuration	line_cutter_1_lightThreshold	line_cutter_1_lightTriggerTime	line_cutter_1_seaLevelPressure	line_cutter_6_limitVel	line_cutter_6_altitude1	line_cutter_6_altitude2	line_cutter_6_disreefDelay1	line_cutter_6_disreefDelay2	line_cutter_6_pwmVoltage1	line_cutter_6_pwmVoltage2	line_cutter_6_pwmDuration	line_cutter_6_lightThreshold	line_cutter_6_lightTriggerTime	line_cutter_6_seaLevelPressure
44.82508138020833	-73.16439615885416	43.599998474121094	1.0083888477670861	27.78	2022-10-15 14:16:33	1																																																																																																							
44.8250732421875	-73.16439615885416	43.900001525878906	1.005418208734271	27.71	2022-10-15 14:16:37	1																																																																																																							
44.8250732421875	-73.16439615885416	43.900001525878906	1.0047273624475697	27.72	2022-10-15 14:16:39	1																																																																																																							
44.8250732421875	-73.16439615885416	44.0	1.0052208240809277	27.73	2022-10-15 14:16:41	1																																																																																																							
					2022-10-15 14:16:42	1	1	915 MHz Radio	-16 db	5	Good	0	0	71600	KM6GNL	6	-0.005253420677036047	0.001985303359106183	-0.005528314039111137	0.02153540402650833	0.380458801984787	9.906285285949707	-0.06379999965429306	-0.05277999863028526	-0.11599999666213989	0.4447224239609405	-1.3155455184482334	-0.012697730226091468	[0.64, 0.3, -0.62, 0.29]	[0.4447224239609405, -1.3155455184482334, -0.012697730226091468]																																																																															
					2022-10-15 14:16:43	1	1	915 MHz Radio	-16 db	7	Good	0	0	71600	KM6GNL	6															34.18000030517578	0.6413376331329346	0.147779181599617	44.82510579427083	-73.16427408854166	46.70000076293945	12.436249732971191	0.0	0.0	2022-10-15 14:16:39	0	0	0.0																																																																		
44.8250732421875	-73.16439615885416	44.0	1.0057537626449544	27.73	2022-10-15 14:16:43	1																																																																																																							
					2022-10-15 14:16:43	1	1	915 MHz Radio	-15 db	4	Good	0	0	71812	KM6GNL	6															34.18000030517578	0.5644248127937317	0.06035146489739418	44.82510579427083	-73.16427408854166	46.70000076293945	12.436249732971191	0.0	0.0	2022-10-15 14:16:39	0	0	0.0																																																																		
					2022-10-15 14:16:43	1	1	915 MHz Radio	-17 db	4	Good	0	0	71887	KM6GNL																													[False, False, False, False, False, False]	[False, False, False, False, False, False, False, False]	3																																																															
					2022-10-15 14:16:43	1	1	915 MHz Radio	-18 db	6	Good	0	0	71887	KM6GNL																																1	1	8491961	100677	23.188596725463867	0.2930610179901123	30.73470703125	1.0119256973266602	3.906158447265625	0	738	465	483																																																		
					2022-10-15 14:16:43	1	1	915 MHz Radio	-17 db	5	Good	0	0	72008	KM6GNL	6	0.0060170055367052555	-0.003940070979297161	0.006291890982538462	0.035892337560653687	0.33738797903060913	9.884750366210938	-0.06032000109553337	-0.05277999863028526	-0.11455000191926956	0.9312739768470538	-1.3549710927514376	0.07762150873739344	[0.55, 0.46, -0.52, 0.44]	[0.9312739768470538, -1.3549710927514376, 0.07762150873739344]																																																																															
					2022-10-15 14:16:43	1	1	915 MHz Radio	-16 db	4	Good	0	0	72209	KM6GNL	6	0.0026572574861347675	-0.000580323045141995	0.004153869114816189	0.12203395366668701	0.380458801984787	9.934999465942383	-0.061769999563694	-0.04668999835848808	-0.10875000059604645	0.9312739768470538	-1.3549710927514376	0.07762150873739344	[0.55, 0.46, -0.52, 0.44]	[0.9312739768470538, -1.3549710927514376, 0.07762150873739344]																																																																															
					2022-10-15 14:16:43	1	1	915 MHz Radio	-15 db	4	Good	0	0	72209	KM6GNL	6															34.189998626708984	0.5344857573509216	0.03866879642009735	44.82509765625	-73.16427408854166	46.599998474121094	12.4375	0.0	0.0	2022-10-15 14:16:39	0	0	0.9043649062512563																																																																		
					2022-10-15 14:16:43	1	1	915 MHz Radio	-14 db	4	Good	0	0	72407	KM6GNL	6	0.0005192359676584601	0.0003359719121363014	-0.002565626986324787	0.05742774158716202	0.5240281224250793	9.927821159362793	-0.0626399964094162	-0.04611000046133995	-0.1133899986743927	0.9312739768470538	-1.3549710927514376	0.07762150873739344	[0.55, 0.46, -0.52, 0.44]	[0.9312739768470538, -1.3549710927514376, 0.07762150873739344]																																																																															
					2022-10-15 14:16:43	1	1	915 MHz Radio	-15 db	4	Good	0	0	72407	KM6GNL	6															34.189998626708984	0.5830848217010498	0.10301484912633896	44.82509765625	-73.16427408854166	46.599998474121094	12.4375	0.0	0.0	2022-10-15 14:16:39	0	0	0.9043649062512563																																																																		
					2022-10-15 14:16:43	1	1	915 MHz Radio	-14 db	5	Good	0	0	72606	KM6GNL	6	-0.0019242172129452229	-0.0008857547072693706	-0.0013439003378152847	0.064606212079525	0.48813581466674805	9.927821159362793	-0.06699000298976898	-0.047269999980926514	-0.09570000320672989	0.9312739768470538	-1.3549710927514376	0.07762150873739344	[0.55, 0.46, -0.52, 0.44]	[0.9312739768470538, -1.3549710927514376, 0.07762150873739344]																																																																															
					2022-10-15 14:16:44	1	1	915 MHz Radio	-13 db	5	Good	0	0	72606	KM6GNL	6															34.20000076293945	0.5869587063789368	0.10349807888269424	44.82509765625	-73.16427408854166	46.599998474121094	12.4375	0.0	0.0	2022-10-15 14:16:39	0	0	0.9043649062512563																																																																		
					2022-10-15 14:16:44	1	1	915 MHz Radio	-12 db	3	Good	0	0	72805	KM6GNL	6	0.002962689148262143	0.001863130135461688	0.00018325791461393237	0.064606212079525	0.4809573292732239	9.877572059631348	-0.061769999563694	-0.04871999844908714	-0.09657000005245209	0.9312739768470538	-1.3549710927514376	0.07762150873739344	[0.55, 0.46, -0.52, 0.44]	[0.9312739768470538, -1.3549710927514376, 0.07762150873739344]																																																																															
					2022-10-15 14:16:44	1	1	915 MHz Radio	-12 db	4	Good	0	0	72898	KM6GNL																													[False, False, False, False, False, False]	[False, False, False, False, False, False, False, False]	3																																																															
					2022-10-15 14:16:44	1	1	915 MHz Radio	-12 db	3	Good	0	0	72898	KM6GNL																																5													1	8484020	100734	26.703182220458984	0.1255185753107071	30.805087890625	1.0182164907455444	3.906158447265625	0	722	467	0																																						
					2022-10-15 14:16:44	1	1	915 MHz Radio	-13 db	5	Good	0	0	73004	KM6GNL	6															34.220001220703125	0.5670087337493896	0.07378663122653961	44.82509765625	-73.16427408854166	46.599998474121094	12.428750038146973	0.0	0.0	2022-10-15 14:16:39	0	0	0.9043649062512563																																																																		
					2022-10-15 14:16:44	1	1	915 MHz Radio	-12 db	3	Good	0	0	73200	KM6GNL	6	-0.010445764288306236	-0.0010995514458045363	-0.0060475473292171955	0.15074782073497772	0.4019941985607147	9.934999465942383	-0.063510000705719	-0.049880001693964005	-0.10469000041484833	1.1234405552487303	-1.3694589214691628	0.006779557146811615	[0.5, 0.51, -0.48, 0.49]	[1.1234405552487303, -1.3694589214691628, 0.006779557146811615]																																																																															
					2022-10-15 14:16:44	1	1	915 MHz Radio	-11 db	4	Good	0	0	73200	KM6GNL	6															34.209999084472656	0.5875363945960999	0.1016535609960556	44.82509765625	-73.16427408854166	46.599998474121094	12.4350004196167	0.0	0.0	2022-10-15 14:16:39	0	0	0.9043649062512563																																																																		
					2022-10-15 14:16:44	1	1	915 MHz Radio	-11 db	4	Good	0	0	73414	KM6GNL	6	-0.014416375197470188	-0.013316817581653595	-0.0014660723973065615	0.02153540402650833	0.5312066078186035	9.927821159362793	-0.06640999764204025	-0.05220000073313713	-0.0939600020647049	1.1234405552487303	-1.3694589214691628	0.006779557146811615	[0.5, 0.51, -0.48, 0.49]	[1.1234405552487303, -1.3694589214691628, 0.006779557146811615]																																																																															
					2022-10-15 14:16:44	1	1	915 MHz Radio	-12 db	5	Good	0	0	73414	KM6GNL	6															34.220001220703125	0.5131998062133789	0.03148911893367767	44.82509765625	-73.16427408854166	46.599998474121094	12.436249732971191	0.0	0.0	2022-10-15 14:16:39	0	0	0.9043649062512563																																																																		
					2022-10-15 14:16:45	1	1	915 MHz Radio	-15 db	5	Good	0	0	73611	KM6GNL	6	0.008796429261565208	0.00012217512994538993	0.0018936756532639265	0.07896314561367035	0.4307080805301666	9.870392799377441	-0.05973999947309494	-0.04611000046133995	-0.10352999716997147	1.1234405552487303	-1.3694589214691628	0.006779557146811615	[0.5, 0.51, -0.48, 0.49]	[1.1234405552487303, -1.3694589214691628, 0.006779557146811615]																																																																															
					2022-10-15 14:16:45	1	1	915 MHz Radio	-17 db	5	Good	0	0	73631	KM6GNL																																																									0.9953614473342896	0.9950752258300781	0.9952553510665894	0.0	16.0																																	
					2022-10-15 14:16:45	1	1	915 MHz Radio	-20 db	5	Good	0	0	73811	KM6GNL	6	-0.008002310991287231	0.007757966406643391	-0.004214957356452942	0.014356935396790504	0.2871387004852295	9.870392799377441	-0.06408999860286713	-0.047269999980926514	-0.11078000068664551	1.1234405552487303	-1.3694589214691628	0.006779557146811615	[0.5, 0.51, -0.48, 0.49]	[1.1234405552487303, -1.3694589214691628, 0.006779557146811615]																																																																															
					2022-10-15 14:16:45	1	1	915 MHz Radio	-20 db	4	Good	0	0	73811	KM6GNL	6															34.22999954223633	0.4494940936565399	-0.004015007987618446	44.82509765625	-73.16427408854166	46.599998474121094	12.436249732971191	0.0	0.0	2022-10-15 14:16:39	0	0	0.9043649062512563																																																																		
					2022-10-15 14:16:45	1	1	915 MHz Radio	-23 db	5	Good	0	0	74009	KM6GNL	6	-0.007177639752626419	-0.003023774828761816	-0.005131252110004425	0.07178467512130737	0.4307080805301666	9.906285285949707	-0.06408999860286713	-0.05104000121355057	-0.09976000338792801	0.7368252880913179	-1.3950710309639636	0.09105189031668973	[0.59, 0.4, -0.5700000000000001, 0.39]	[0.7368252880913179, -1.3950710309639636, 0.09105189031668973]																																																																															
					2022-10-15 14:16:45	1	1	915 MHz Radio	-23 db	3	Good	0	0	74009	KM6GNL	6															34.22999954223633	0.5931047797203064	0.1571771651506424	44.82509765625	-73.16427408854166	46.599998474121094	12.4350004196167	0.0	0.0	2022-10-15 14:16:39	0	0	0.9043649062512563																																																																		
					2022-10-15 14:16:45	1	1	915 MHz Radio	-22 db	6	Good	0	0	74009	KM6GNL																																5													1	8484820	100737	26.452144622802734	0.0	30.80567626953125	1.0181893110275269	3.899120330810547	1	723	467	0																																						
					2022-10-15 14:16:45	1	1	915 MHz Radio	-19 db	5	Good	0	0	74209	KM6GNL	6															34.2400016784668	0.7143748998641968	0.2734622657299042	44.82509765625	-73.16427408854166	46.599998474121094	12.430000305175781	0.0	0.0	2022-10-15 14:16:39	0	0	0.9043649062512563																																																																		
					2022-10-15 14:16:45	1	1	915 MHz Radio	-16 db	4	Good	0	0	74410	KM6GNL	6	-0.003817891702055931	-0.0018020482966676354	-0.0011606407351791859	-0.007178467698395252	0.39481574296951294	9.870392799377441	-0.06496000289916992	-0.047269999980926514	-0.09570000320672989	0.9093963973457202	-1.3540391641380403	-0.12315210819830132	[0.59, 0.4, -0.5700000000000001, 0.38]	[0.9093963973457202, -1.3540391641380403, -0.12315210819830132]																																																																															
					2022-10-15 14:16:45	1	1	915 MHz Radio	-16 db	4	Good	0	0	74410	KM6GNL	6															34.22999954223633	0.7089965343475342	0.23564475774765015	44.82509765625	-73.16427408854166	46.5	12.436249732971191	0.0	0.0	2022-10-15 14:16:39	0	0	0.9043649062512563																																																																		
					2022-10-15 14:16:46	1	1	915 MHz Radio	-17 db	4	Good	0	0	74606	KM6GNL	6	-0.006261344999074936	0.003390289843082428	-0.00024434580700471997	0.07178467512130737	0.38763725757598877	9.891928672790527	-0.055969998240470886	-0.04611000046133995	-0.11049000173807144	0.7368252880913179	-1.3950710309639636	0.09105189031668973	[0.59, 0.4, -0.5700000000000001, 0.39]	[0.7368252880913179, -1.3950710309639636, 0.09105189031668973]																																																																															
					2022-10-15 14:16:46	1	1	915 MHz Radio	-20 db	3	Good	0	0	74803	KM6GNL	6	-0.010231955908238888	-0.0042455014772713184	0.0006719491211697459	0.12203395366668701	0.4163511395454407	9.920642852783203	-0.05770999938249588	-0.04814000055193901	-0.09831000119447708	0.7368252880913179	-1.3950710309639636	0.09105189031668973	[0.59, 0.4, -0.5700000000000001, 0.39]	[0.7368252880913179, -1.3950710309639636, 0.09105189031668973]																																																																															
					2022-10-15 14:16:46	1	1	915 MHz Radio	-19 db	3	Good	0	0	74803	KM6GNL	6															34.25	0.6398431062698364	0.13917642831802368	44.82509765625	-73.16427408854166	46.5	12.436249732971191	0.0	0.0	2022-10-15 14:16:39	0	0	0.9043649062512563																																																																		
					2022-10-15 14:16:46	1	1	915 MHz Radio	-17 db	4	Good	0	0	75002	KM6GNL	6	0.0030848614405840635	-0.009926529601216316	0.0011300967307761312	0.02871387079358101	0.2512463629245758	9.920642852783203	-0.06554000079631805	-0.051330000162124634	-0.10440000146627426	0.9071941643830376	-1.3413831066759436	0.08800737352774073	[0.54, 0.47000000000000003, -0.51, 0.45]	[0.9071941643830376, -1.3413831066759436, 0.08800737352774073]																																																																															
					2022-10-15 14:16:46	1	1	915 MHz Radio	-16 db	5	Good	0	0	75020	KM6GNL																													[False, False, False, False, False, False]	[False, False, False, False, False, False, False, False]	3																																																															
					2022-10-15 14:16:46	1	1	915 MHz Radio	-16 db	5	Good	0	0	75020	KM6GNL																																1	1	8495111	100676	23.27233123779297	0.12560060620307922	30.73438232421875	1.0104418992996216	3.906158447265625	0	739	465	484																																																		
					2022-10-15 14:16:46	1	1	915 MHz Radio	-17 db	5	Good	0	0	75205	KM6GNL	6	-0.0018020449206233025	0.0022907364182174206	-0.0022296514362096786	0.02871387079358101	0.26560330390930176	9.906285285949707	-0.06235000118613243	-0.05045999959111214	-0.09685999900102615	0.9071941643830376	-1.3413831066759436	0.08800737352774073	[0.54, 0.47000000000000003, -0.51, 0.45]	[0.9071941643830376, -1.3413831066759436, 0.08800737352774073]																																																																															
					2022-10-15 14:16:46	1	1	915 MHz Radio	-18 db	4	Good	0	0	75205	KM6GNL	6															34.2599983215332	0.836543083190918	0.3040076792240143	44.82509765625	-73.16427408854166	46.5	12.428750038146973	0.0	0.0	2022-10-15 14:16:39	0	0	0.9043649062512563																																																																		
					2022-10-15 14:16:46	1	1	915 MHz Radio	-24 db	5	Good	0	0	75414	KM6GNL	6	-0.010659562423825264	0.001985304756090045	-0.004367672838270664	0.10049854964017868	0.4378865361213684	9.942177772521973	-0.0626399964094162	-0.04205000028014183	-0.10005000233650208	0.9071941643830376	-1.3413831066759436	0.08800737352774073	[0.54, 0.47000000000000003, -0.51, 0.45]	[0.9071941643830376, -1.3413831066759436, 0.08800737352774073]																																																																															
					2022-10-15 14:16:46	1	1	915 MHz Radio	-26 db	5	Good	0	0	75414	KM6GNL	6															34.2599983215332	0.783559262752533	0.20553182065486908	44.82509765625	-73.16427408854166	46.5	12.436249732971191	0.0	0.0	2022-10-15 14:16:39	0	0	0.9043649062512563																																																																		
					2022-10-15 14:16:46	1	1	915 MHz Radio	-23 db	6	Good	0	0	75612	KM6GNL	6	0.002779429778456688	-0.004123328253626823	0.004489844664931297	0.02871387079358101	0.5240281224250793	9.899106979370117	-0.0608999989926815	-0.04089000076055527	-0.09685999900102615	0.9071941643830376	-1.3413831066759436	0.08800737352774073	[0.54, 0.47000000000000003, -0.51, 0.45]	[0.9071941643830376, -1.3413831066759436, 0.08800737352774073]																																																																															
					2022-10-15 14:16:47	1	1	915 MHz Radio	-23 db	4	Good	0	0	75612	KM6GNL	6															34.27000045776367	0.7338032126426697	0.13421709835529327	44.82509765625	-73.16427408854166	46.5	12.436249732971191	0.0	0.0	2022-10-15 14:16:39	0	0	0.9043649062512563																																																																		
44.8250732421875	-73.16439615885416	44.0	1.004006908462867	27.68	2022-10-15 14:16:47	1																																																																																																							
					2022-10-15 14:16:47	1	1	915 MHz Radio	-21 db	6	Good	0	0	75813	KM6GNL	6	0.005833746399730444	-0.005039623007178307	0.004489844664931297	0.035892337560653687	0.3517449200153351	9.906285285949707	-0.057999998331069946	-0.045820001512765884	-0.10643000155687332	1.1567973241826999	-1.3950710309639636	-0.05161463270586594	[0.54, 0.47000000000000003, -0.52, 0.45]	[1.1567973241826999, -1.3950710309639636, -0.05161463270586594]																																																																															
					2022-10-15 14:16:47	1	1	915 MHz Radio	-15 db	4	Good	0	0	76012	KM6GNL	6	-0.005589399486780167	0.0010384675115346909	-0.005467227194458246	0.02871387079358101	0.4666004180908203	9.899106979370117	-0.060029998421669006	-0.043209999799728394	-0.1049799993634224	1.10714871779409	-1.3734993262591062	-0.020615635625602473	[0.52, 0.49, -0.5, 0.47000000000000003]	[1.10714871779409, -1.3734993262591062, -0.020615635625602473]																																																																															
					2022-10-15 14:16:47	1	1	915 MHz Radio	-14 db	6	Good	0	0	76012	KM6GNL	6															34.279998779296875	0.7241977453231812	0.10644959658384323	44.82509765625	-73.16427408854166	46.5	12.436249732971191	0.0	0.0	2022-10-15 14:16:39	0	0	0.9043649062512563																																																																		
					2022-10-15 14:16:47	1	1	915 MHz Radio	-13 db	5	Good	0	0	76028	KM6GNL																																1	1	8496661	100679	23.021129608154297	-0.251204252243042	30.7342529296875	1.006860375404358	3.906158447265625	0	738	466	484																																																		
					2022-10-15 14:16:47	1	1	915 MHz Radio	-14 db	7	Good	0	0	76028	KM6GNL																																5													1	8487170	100737	26.452144622802734	-0.04183918982744217	30.80580810546875	1.021269679069519	3.8920822143554688	1	725	471	0																																						
					2022-10-15 14:16:47	1	1	915 MHz Radio	-15 db	3	Good	0	0	76212	KM6GNL	6	-0.017501233145594597	-0.0029321438632905483	-0.010048702359199524	0.035892337560653687	0.5024927258491516	9.942177772521973	-0.0626399964094162	-0.05045999959111214	-0.10729999840259552	1.10714871779409	-1.3734993262591062	-0.020615635625602473	[0.52, 0.49, -0.5, 0.47000000000000003]	[1.10714871779409, -1.3734993262591062, -0.020615635625602473]																																																																															
					2022-10-15 14:16:47	1	1	915 MHz Radio	-14 db	6	Good	0	0	76212	KM6GNL	6															34.290000915527344	0.6766109466552734	0.05234925448894501	44.82509765625	-73.16427408854166	46.5	12.428750038146973	0.0	0.0	2022-10-15 14:16:44	0	0	0.9043649062512563																																																																		
					2022-10-15 14:16:47	1	1	915 MHz Radio	-13 db	6	Good	0	0	76409	KM6GNL	6	-0.008949147537350655	-0.0017104173311963677	-0.000274889258434996	0.07178467512130737	0.5240281224250793	9.927821159362793	-0.05886999890208244	-0.05770999938249588	-0.10294999927282333	1.10714871779409	-1.3734993262591062	-0.020615635625602473	[0.52, 0.49, -0.5, 0.47000000000000003]	[1.10714871779409, -1.3734993262591062, -0.020615635625602473]																																																																															
					2022-10-15 14:16:47	1	1	915 MHz Radio	-13 db	4	Good	0	0	76409	KM6GNL	6															34.290000915527344	0.563675582408905	-0.05014117434620857	44.82509765625	-73.16427408854166	46.400001525878906	12.436249732971191	0.0	0.0	2022-10-15 14:16:44	0	0	0.9043649062512563																																																																		
					2022-10-15 14:16:47	1	1	915 MHz Radio	-12 db	4	Good	0	0	76606	KM6GNL	6	-0.004062240943312645	-0.004764733836054802	0.00583374360576272	0.10767702013254166	0.3158525824546814	9.956534385681152	-0.06379999965429306	-0.049880001693964005	-0.09831000119447708	1.10714871779409	-1.3734993262591062	-0.020615635625602473	[0.52, 0.49, -0.5, 0.47000000000000003]	[1.10714871779409, -1.3734993262591062, -0.020615635625602473]																																																																															
					2022-10-15 14:16:48	1	1	915 MHz Radio	-11 db	6	Good	0	0	76606	KM6GNL	6															34.290000915527344	0.6455901265144348	0.05708153173327446	44.82509765625	-73.16427408854166	46.400001525878906	12.4350004196167	0.0	0.0	2022-10-15 14:16:44	0	0	0.9043649062512563																																																																		
					2022-10-15 14:16:48	1	1	915 MHz Radio	-10 db	5	Good	0	0	76805	KM6GNL	6	-0.008949147537350655	-0.00018325904966332018	-0.007910680025815964	0.0933200791478157	0.30149564146995544	9.891928672790527	-0.05857999995350838	-0.05480999872088432	-0.09019000083208084	1.10714871779409	-1.3734993262591062	-0.020615635625602473	[0.52, 0.49, -0.5, 0.47000000000000003]	[1.10714871779409, -1.3734993262591062, -0.020615635625602473]																																																																															
					2022-10-15 14:16:48	1	1	915 MHz Radio	-9 db	6	Good	0	0	77003	KM6GNL	6	0.004734193906188011	-0.003543008351698518	-0.006383521016687155	0.05742774158716202	0.5814558863639832	9.891928672790527	-0.06322000175714493	-0.051330000162124634	-0.10266000032424927	1.2490457723982538	-1.368461259094727	-0.015383401780594178	[0.52, 0.5, -0.49, 0.47000000000000003]	[1.2490457723982538, -1.368461259094727, -0.015383401780594178]																																																																															
					2022-10-15 14:16:48	1	1	915 MHz Radio	-8 db	6	Good	0	0	77003	KM6GNL	6															34.29999923706055	0.5855180621147156	0.007926316000521183	44.82509765625	-73.16427408854166	46.400001525878906	12.436249732971191	0.0	0.0	2022-10-15 14:16:44	0	0	0.9043649062512563																																																																		
					2022-10-15 14:16:48	1	1	915 MHz Radio	-9 db	3	Good	0	0	77033	KM6GNL																																1	1	8497461	100674	23.439802169799805	0.4186636507511139	30.73554931640625	1.0083491802215576	3.8920822143554688	0	739	463	483																																																		
					2022-10-15 14:16:48	1	1	915 MHz Radio	-9 db	2	Good	0	0	77203	KM6GNL	6	0.013286280445754528	0.002260192995890975	0.012247809208929539	0.04307080805301666	0.4378865361213684	9.949356079101562	-0.06699000298976898	-0.04842999950051308	-0.10440000146627426	1.2490457723982538	-1.368461259094727	-0.015383401780594178	[0.52, 0.5, -0.49, 0.47000000000000003]	[1.2490457723982538, -1.368461259094727, -0.015383401780594178]																																																																															
					2022-10-15 14:16:48	1	1	915 MHz Radio	-9 db	4	Good	0	0	77203	KM6GNL	6															34.29999923706055	0.6436606049537659	0.07738150656223297	44.82509765625	-73.16427408854166	46.400001525878906	12.428750038146973	0.0	0.0	2022-10-15 14:16:44	0	0	0.9043649062512563																																																																		
					2022-10-15 14:16:48	1	1	915 MHz Radio	-9 db	6	Good	0	0	77400	KM6GNL	6	-0.003512460505589843	0.0013438980095088482	0.008277197368443012	0.07178467512130737	0.4091726541519165	9.913463592529297	-0.055390000343322754	-0.0516199991106987	-0.09540999680757523	1.2490457723982538	-1.368461259094727	-0.015383401780594178	[0.52, 0.5, -0.49, 0.47000000000000003]	[1.2490457723982538, -1.368461259094727, -0.015383401780594178]																																																																															
					2022-10-15 14:16:49	1	1	915 MHz Radio	-10 db	4	Good	0	0	77600	KM6GNL	6	-0.012064546346664429	-0.0010995551710948348	-0.011881290934979916	0.035892337560653687	0.4737788736820221	9.963713645935059	-0.05857999995350838	-0.041179999709129333	-0.09570000320672989	1.2490457723982538	-1.368461259094727	-0.015383401780594178	[0.52, 0.5, -0.49, 0.47000000000000003]	[1.2490457723982538, -1.368461259094727, -0.015383401780594178]																																																																															
44.8250732421875	-73.16439615885416	44.20000076293945	1.0037897853441895	27.69	2022-10-15 14:16:49	1																																																																																																							
					2022-10-15 14:16:49	1	1	915 MHz Radio	-9 db	4	Good	0	0	77813	KM6GNL	6	-0.005955913569778204	0.00012217140465509146	-0.012797585688531399	0.10767702013254166	0.5670989751815796	9.891928672790527	-0.05770999938249588	-0.04698000103235245	-0.11049000173807144	1.2490457723982538	-1.368461259094727	-0.015383401780594178	[0.52, 0.5, -0.49, 0.47000000000000003]	[1.2490457723982538, -1.368461259094727, -0.015383401780594178]																																																																															
					2022-10-15 14:16:49	1	1	915 MHz Radio	-10 db	6	Good	0	0	77813	KM6GNL	6															34.31999969482422	0.6255384087562561	0.05917585268616676	44.82509765625	-73.16427408854166	46.400001525878906	12.436249732971191	0.0	0.0	2022-10-15 14:16:44	0	0	0.9043649062512563																																																																		
					2022-10-15 14:16:49	1	1	915 MHz Radio	-8 db	5	Good	0	0	78014	KM6GNL	6	0.014233117923140526	0.003420830937102437	0.010415219701826572	-0.07178467512130737	0.5527420043945312	9.884750366210938	-0.06061000004410744	-0.04639999940991402	-0.09685999900102615	1.5768022605860321	-1.3540391641380398	0.01982119235711171	[0.42, 0.59, -0.39, 0.55]	[1.5768022605860321, -1.3540391641380398, 0.01982119235711171]																																																																															
					2022-10-15 14:16:49	1	1	915 MHz Radio	-9 db	3	Good	0	0	78014	KM6GNL	6															34.31999969482422	0.5599931478500366	9.873436283669434e-06	44.82509765625	-73.16427408854166	46.400001525878906	12.43375015258789	0.0	0.0	2022-10-15 14:16:44	0	0	0.9043649062512563																																																																		
					2022-10-15 14:16:49	1	1	915 MHz Radio	-9 db	4	Good	0	0	78044	KM6GNL																													[False, False, False, False, False, False]	[False, False, False, False, False, False, False, False]	3																																																															
					2022-10-15 14:16:49	1	1	915 MHz Radio	-9 db	6	Good	0	0	78044	KM6GNL																																5													1	8489520	100737	26.452144622802734	0.04183885082602501	30.80548095703125	1.0200620889663696	3.8920822143554688	0	723	468	0																																						
					2022-10-15 14:16:49	1	1	915 MHz Radio	-8 db	6	Good	0	0	78210	KM6GNL	6															34.33000183105469	0.5555782914161682	0.009970203042030334	44.82509765625	-73.16427408854166	46.400001525878906	12.428750038146973	0.0	0.0	2022-10-15 14:16:44	0	0	0.9043649062512563																																																																		
					2022-10-15 14:16:49	1	1	915 MHz Radio	-8 db	5	Good	0	0	78407	KM6GNL	6	-0.018142636865377426	0.0006719462107867002	-0.012186722829937935	0.05742774158716202	0.3732803165912628	9.956534385681152	-0.06119000166654587	-0.03914999961853027	-0.09802000224590302	1.5768022605860321	-1.3540391641380398	0.01982119235711171	[0.42, 0.59, -0.39, 0.55]	[1.5768022605860321, -1.3540391641380398, 0.01982119235711171]																																																																															
					2022-10-15 14:16:49	1	1	915 MHz Radio	-8 db	7	Good	0	0	78407	KM6GNL	6															34.33000183105469	0.520134449005127	-0.01074657030403614	44.82509765625	-73.16427408854166	46.29999923706055	12.436249732971191	0.0	0.0	2022-10-15 14:16:44	0	0	0.9043649062512563																																																																		
					2022-10-15 14:16:49	1	1	915 MHz Radio	-8 db	5	Good	0	0	78605	KM6GNL	6	-0.014782888814806938	-0.01673765853047371	-0.015851901844143867	0.02871387079358101	0.4450649917125702	9.891928672790527	-0.05857999995350838	-0.04495000094175339	-0.09047999978065491	1.5768022605860321	-1.3540391641380398	0.01982119235711171	[0.42, 0.59, -0.39, 0.55]	[1.5768022605860321, -1.3540391641380398, 0.01982119235711171]																																																																															
					2022-10-15 14:16:50	1	1	915 MHz Radio	-7 db	4	Good	0	0	78605	KM6GNL	6															34.34000015258789	0.4830690324306488	-0.02377716824412346	44.82509765625	-73.16427408854166	46.29999923706055	12.436249732971191	0.0	0.0	2022-10-15 14:16:44	0	0	0.9043649062512563																																																																		
					2022-10-15 14:16:50	1	1	915 MHz Radio	-7 db	3	Good	0	0	78605	KM6GNL																																																									0.9954107999801636	0.9949173331260681	0.9952553510665894	0.0	16.0																																	
					2022-10-15 14:16:50	1	1	915 MHz Radio	-7 db	4	Good	0	0	78804	KM6GNL	6	0.005070168059319258	-0.0011606436455622315	0.006444607861340046	-0.13639089465141296	0.45224347710609436	9.906285285949707	-0.0524899996817112	-0.04611000046133995	-0.09193000197410583	1.5768022605860321	-1.3540391641380398	0.01982119235711171	[0.42, 0.59, -0.39, 0.55]	[1.5768022605860321, -1.3540391641380398, 0.01982119235711171]																																																																															
					2022-10-15 14:16:50	1	1	915 MHz Radio	-7 db	4	Good	0	0	78804	KM6GNL	6															34.34000015258789	0.43136072158813477	-0.05222651734948158	44.82509765625	-73.16427408854166	46.29999923706055	12.4350004196167	0.0	0.0	2022-10-15 14:16:44	0	0	0.9043649062512563																																																																		
					2022-10-15 14:16:50	1	1	915 MHz Radio	-6 db	5	Good	0	0	79003	KM6GNL	6	0.015210496261715889	0.009040772914886475	0.00650569424033165	-0.007178467698395252	0.29431718587875366	9.913463592529297	-0.06408999860286713	-0.04901000112295151	-0.10208000242710114	0.7647114596176054	-1.387235699840025	0.1353378165324098	[0.56, 0.44, -0.54, 0.43]	[0.7647114596176054, -1.387235699840025, 0.1353378165324098]																																																																															
					2022-10-15 14:16:50	1	1	915 MHz Radio	-6 db	4	Good	0	0	79048	KM6GNL																													[False, False, False, False, False, False]	[False, False, False, False, False, False, False, False]	3																																																															
					2022-10-15 14:16:50	1	1	915 MHz Radio	-7 db	4	Good	0	0	79048	KM6GNL																																5													1	8490220	100730	27.037906646728516	0.2928813695907593	30.804892578125	1.0220390558242798	3.8920822143554688	2	723	471	0																																						
					2022-10-15 14:16:50	1	1	915 MHz Radio	-7 db	3	Good	0	0	79202	KM6GNL	6	0.00024434580700471997	-0.003176492638885975	-0.009071319364011288	0.2153540402650833	0.20817556977272034	9.949356079101562	-0.06119000166654587	-0.04465999826788902	-0.10382000356912613	0.7647114596176054	-1.387235699840025	0.1353378165324098	[0.56, 0.44, -0.54, 0.43]	[0.7647114596176054, -1.387235699840025, 0.1353378165324098]																																																																															
					2022-10-15 14:16:50	1	1	915 MHz Radio	-7 db	4	Good	0	0	79202	KM6GNL	6															34.34000015258789	0.5614616274833679	0.12128644436597824	44.82509765625	-73.16427408854166	46.29999923706055	12.428750038146973	0.0	0.0	2022-10-15 14:16:44	0	0	0.9043649062512563																																																																		
					2022-10-15 14:16:50	1	1	915 MHz Radio	-7 db	2	Good	0	0	79403	KM6GNL	6	-0.010445761494338512	-0.012034010142087936	-0.008765887469053268	0.12203395366668701	0.380458801984787	9.891928672790527	-0.06119000166654587	-0.04465999826788902	-0.10382000356912613	0.7647114596176054	-1.387235699840025	0.1353378165324098	[0.56, 0.44, -0.54, 0.43]	[0.7647114596176054, -1.387235699840025, 0.1353378165324098]																																																																															
					2022-10-15 14:16:51	1	1	915 MHz Radio	-8 db	6	Good	0	0	79615	KM6GNL	6	-0.003115402301773429	-0.0047036511823534966	-0.0002138017734978348	-0.014356935396790504	0.5240281224250793	9.877572059631348	-0.05307000130414963	-0.05277999863028526	-0.0820700004696846	0.7647114596176054	-1.387235699840025	0.1353378165324098	[0.56, 0.44, -0.54, 0.43]	[0.7647114596176054, -1.387235699840025, 0.1353378165324098]																																																																															
					2022-10-15 14:16:51	1	1	915 MHz Radio	-8 db	7	Good	0	0	79615	KM6GNL	6															34.349998474121094	0.5607324242591858	0.11266792565584183	44.82509765625	-73.16427408854166	46.29999923706055	12.4350004196167	0.0	0.0	2022-10-15 14:16:44	0	0	0.9043649062512563																																																																		
44.8250732421875	-73.16439615885416	44.20000076293945	1.0058425857389588	27.73	2022-10-15 14:16:51	1																																																																																																							
					2022-10-15 14:16:51	1	1	915 MHz Radio	-8 db	7	Good	0	0	79812	KM6GNL	6	-0.0018936757696792483	0.009040772914886475	-0.004489844664931297	0.08614161610603333	0.29431718587875366	9.934999465942383	-0.06293000280857086	-0.05626000091433525	-0.09802000224590302	0.7647114596176054	-1.387235699840025	0.1353378165324098	[0.56, 0.44, -0.54, 0.43]	[0.7647114596176054, -1.387235699840025, 0.1353378165324098]																																																																															
					2022-10-15 14:16:51	1	1	915 MHz Radio	-8 db	4	Good	0	0	79812	KM6GNL	6															34.36000061035156	0.5139485001564026	0.05789986252784729	44.82509765625	-73.16427408854166	46.29999923706055	12.4350004196167	0.0	0.0	2022-10-15 14:16:44	0	0	0.9043649062512563																																																																		
					2022-10-15 14:16:51	1	1	915 MHz Radio	-8 db	6	Good	0	0	79830	KM6GNL																																																									0.9954206943511963	0.9949666857719421	0.9952553510665894	0.0	16.0																																	
					2022-10-15 14:16:51	1	1	915 MHz Radio	-8 db	4	Good	0	0	80010	KM6GNL	6	-0.005283968988806009	-0.001496612560003996	-0.009621096774935722	0.07178467512130737	0.35892337560653687	9.891928672790527	-0.06293000280857086	-0.05626000091433525	-0.09802000224590302	0.9097531579442113	-1.4093759766464684	-0.06742177005590866	[0.63, 0.35000000000000003, -0.6, 0.33]	[0.9097531579442113, -1.4093759766464684, -0.06742177005590866]																																																																															
					2022-10-15 14:16:51	1	1	915 MHz Radio	-9 db	5	Good	0	0	80058	KM6GNL																													[False, False, False, False, False, False]	[False, False, False, False, False, False, False, False]	3																																																															
					2022-10-15 14:16:51	1	1	915 MHz Radio	-9 db	5	Good	0	0	80058	KM6GNL																																5													1	8490970	100738	26.368467330932617	-0.08367803692817688	30.806201171875	1.0191500186920166	3.899120330810547	2	724	470	0																																						
					2022-10-15 14:16:51	1	1	915 MHz Radio	-8 db	3	Good	0	0	80058	KM6GNL																																5																														-0.5	305	366	48000	12500	6.0	6.0	12000	400	2000	101053																						
					2022-10-15 14:16:51	1	1	915 MHz Radio	-8 db	4	Good	0	0	80213	KM6GNL	6	-0.012003464624285698	-0.011270425282418728	-0.006261348258703947	0.13639089465141296	0.4450649917125702	9.913463592529297	-0.06408999860286713	-0.04030999913811684	-0.08699999749660492	0.9097531579442113	-1.4093759766464684	-0.06742177005590866	[0.63, 0.35000000000000003, -0.6, 0.33]	[0.9097531579442113, -1.4093759766464684, -0.06742177005590866]																																																																															
					2022-10-15 14:16:51	1	1	915 MHz Radio	-8 db	7	Good	0	0	80213	KM6GNL	6															34.36000061035156	0.5577772855758667	0.11921369284391403	44.82509765625	-73.16427408854166	46.29999923706055	12.427499771118164	0.0	0.0	2022-10-15 14:16:44	0	0	0.9043649062512563																																																																		
					2022-10-15 14:16:51	1	1	915 MHz Radio	-8 db	5	Good	0	0	80410	KM6GNL	6															34.380001068115234	0.5782169699668884	0.1224367693066597	44.82509765625	-73.16427408854166	46.20000076293945	12.427499771118164	0.0	0.0	2022-10-15 14:16:44	0	0	0.9043649062512563																																																																		
					2022-10-15 14:16:52	1	1	915 MHz Radio	-8 db	2	Good	0	0	80609	KM6GNL	6	0.0011300956830382347	0.0024739988148212433	0.0007635796209797263	0.07896314561367035	0.4450649917125702	9.899106979370117	-0.06437999755144119	-0.04495000094175339	-0.10034000128507614	0.9097531579442113	-1.4093759766464684	-0.06742177005590866	[0.63, 0.35000000000000003, -0.6, 0.33]	[0.9097531579442113, -1.4093759766464684, -0.06742177005590866]																																																																															
					2022-10-15 14:16:52	1	1	915 MHz Radio	-7 db	4	Good	0	0	80808	KM6GNL	6	-0.010476307012140751	-0.0036346339620649815	-0.004734190180897713	0.05024927482008934	0.35892337560653687	9.927821159362793	-0.06119000166654587	-0.051330000162124634	-0.10294999927282333	0.9097531579442113	-1.4093759766464684	-0.06742177005590866	[0.63, 0.35000000000000003, -0.6, 0.33]	[0.9097531579442113, -1.4093759766464684, -0.06742177005590866]																																																																															
					2022-10-15 14:16:52	1	1	915 MHz Radio	-8 db	5	Good	0	0	80808	KM6GNL	6															34.380001068115234	0.5024317502975464	0.045948732644319534	44.82509765625	-73.16427408854166	46.20000076293945	12.4350004196167	0.0	0.0	2022-10-15 14:16:44	0	0	0.9043649062512563																																																																		
					2022-10-15 14:16:52	1	1	915 MHz Radio	-8 db	3	Good	0	0	81007	KM6GNL	6	-0.00894914846867323	-0.008826971985399723	-0.014202571474015713	0.11485548317432404	0.380458801984787	9.913463592529297	-0.06699000298976898	-0.05104000121355057	-0.09511999785900116	0.9097531579442113	-1.4093759766464684	-0.06742177005590866	[0.63, 0.35000000000000003, -0.6, 0.33]	[0.9097531579442113, -1.4093759766464684, -0.06742177005590866]																																																																															
					2022-10-15 14:16:52	1	1	915 MHz Radio	-8 db	6	Good	0	0	81007	KM6GNL	6															34.38999938964844	0.3685385584831238	-0.07377767562866211	44.82509765625	-73.16427408854166	46.20000076293945	12.4350004196167	0.0	0.0	2022-10-15 14:16:44	0	0	0.9043649062512563																																																																		
					2022-10-15 14:16:52	1	1	915 MHz Radio	-8 db	5	Good	0	0	81068	KM6GNL																													[False, False, False, False, False, False]	[False, False, False, False, False, False, False, False]	3																																																															
					2022-10-15 14:16:52	1	1	915 MHz Radio	-8 db	5	Good	0	0	81068	KM6GNL																																5													1	8492570	100739	26.2847900390625	-0.41840028762817383	30.80580810546875	1.0189441442489624	3.899120330810547	2	724	469	1																																						
					2022-10-15 14:16:52	1	1	915 MHz Radio	-8 db	4	Good	0	0	81203	KM6GNL	6	-0.004245502408593893	0.0019853077828884125	0.00513125117868185	0.035892337560653687	0.5096712112426758	9.920642852783203	-0.06408999860286713	-0.05567999929189682	-0.09860000014305115	0.9994588469612713	-1.3684612590947274	-0.09495170634275552	[0.5700000000000001, 0.43, -0.55, 0.41000000000000003]	[0.9994588469612713, -1.3684612590947274, -0.09495170634275552]																																																																															
					2022-10-15 14:16:52	1	1	915 MHz Radio	-10 db	5	Good	0	0	81404	KM6GNL	6	0.018661871552467346	0.0053450558334589005	0.011239884421229362	0.007178467698395252	0.4163511395454407	9.927821159362793	-0.05973999947309494	-0.04871999844908714	-0.09425000101327896	0.5825141844528081	-1.331057401958109	0.0915798501426871	[0.5700000000000001, 0.42, -0.55, 0.41000000000000003]	[0.5825141844528081, -1.331057401958109, 0.0915798501426871]																																																																															
					2022-10-15 14:16:52	1	1	915 MHz Radio	-10 db	5	Good	0	0	81404	KM6GNL	6															34.400001525878906	0.22458577156066895	-0.14838863909244537	44.82510579427083	-73.16427408854166	46.099998474121094	12.4350004196167	0.0	0.0	2022-10-15 14:16:49	0	0	0.0																																																																		
					2022-10-15 14:16:53	1	1	915 MHz Radio	-13 db	5	Good	0	0	81602	KM6GNL	6	0.009498922154307365	-0.001679872046224773	0.001160640036687255	0.14356935024261475	0.3445664644241333	9.891928672790527	-0.0626399964094162	-0.047269999980926514	-0.09888999909162521	0.5825141844528081	-1.331057401958109	0.0915798501426871	[0.5700000000000001, 0.42, -0.55, 0.41000000000000003]	[0.5825141844528081, -1.331057401958109, 0.0915798501426871]																																																																															
44.8250732421875	-73.16439615885416	44.20000076293945	1.0084678016284234	27.77	2022-10-15 14:16:53	1																																																																																																							
					2022-10-15 14:16:53	1	1	915 MHz Radio	-13 db	5	Good	0	0	81802	KM6GNL	6															34.400001525878906	0.39776310324668884	0.07218323647975922	44.82510579427083	-73.16427408854166	46.099998474121094	12.43375015258789	0.0	0.0	2022-10-15 14:16:49	0	0	0.0																																																																		
					2022-10-15 14:16:53	1	1	915 MHz Radio	-13 db	5	Good	0	0	82013	KM6GNL	6	-0.0002748908009380102	-0.0013744403840973973	-0.0009773815982043743	0.007178467698395252	0.5886343717575073	9.927821159362793	-0.06669999659061432	-0.051330000162124634	-0.09193000197410583	0.9994588469612713	-1.3684612590947274	-0.09495170634275552	[0.5700000000000001, 0.43, -0.55, 0.41000000000000003]	[0.9994588469612713, -1.3684612590947274, -0.09495170634275552]																																																																															
					2022-10-15 14:16:53	1	1	915 MHz Radio	-12 db	5	Good	0	0	82013	KM6GNL	6															34.40999984741211	0.42554453015327454	0.10178317874670029	44.82510579427083	-73.16427408854166	46.099998474121094	12.4350004196167	0.0	0.0	2022-10-15 14:16:49	0	0	0.0																																																																		
					2022-10-15 14:16:53	1	1	915 MHz Radio	-11 db	4	Good	0	0	82078	KM6GNL																													[False, False, False, False, False, False]	[False, False, False, False, False, False, False, False]	3																																																															
					2022-10-15 14:16:53	1	1	915 MHz Radio	-11 db	6	Good	0	0	82078	KM6GNL																																1	1	8502861	100683	22.68620491027832	-0.041865184903144836	30.737497558593752	1.014195442199707	3.899120330810547	0	739	466	484																																																		
					2022-10-15 14:16:53	1	1	915 MHz Radio	-10 db	5	Good	0	0	82214	KM6GNL	6	0.00913240946829319	0.0004276020627003163	0.014080398716032505	0.035892337560653687	0.4091726541519165	9.870392799377441	-0.057420000433921814	-0.043209999799728394	-0.09802000224590302	1.2612155569616674	-1.366480349386344	0.0	[0.51, 0.51, -0.48, 0.48]	[1.2612155569616674, -1.366480349386344, 0.0]																																																																															
					2022-10-15 14:16:53	1	1	915 MHz Radio	-11 db	5	Good	0	0	82273	KM6GNL																																																									0.9954107999801636	0.9948877096176147	0.9952553510665894	0.0	16.0																																	
					2022-10-15 14:16:53	1	1	915 MHz Radio	-11 db	6	Good	0	0	82410	KM6GNL	6	0.013103020377457142	-0.002015851205214858	0.007971765473484993	-0.02153540402650833	0.2225324958562851	9.870392799377441	-0.06466999650001526	-0.047269999980926514	-0.10700999945402145	1.2612155569616674	-1.366480349386344	0.0	[0.51, 0.51, -0.48, 0.48]	[1.2612155569616674, -1.366480349386344, 0.0]																																																																															
					2022-10-15 14:16:53	1	1	915 MHz Radio	-10 db	5	Good	0	0	82609	KM6GNL	6	-0.0143858278170228	-0.0017104194266721606	-0.011575859971344471	0.04307080805301666	0.30149564146995544	9.949356079101562	-0.05829000100493431	-0.04698000103235245	-0.10034000128507614	1.2612155569616674	-1.366480349386344	0.0	[0.51, 0.51, -0.48, 0.48]	[1.2612155569616674, -1.366480349386344, 0.0]																																																																															
					2022-10-15 14:16:54	1	1	915 MHz Radio	-10 db	4	Good	0	0	82609	KM6GNL	6															34.41999816894531	0.6336449980735779	0.2647922933101654	44.82510579427083	-73.16427408854166	46.0	12.4350004196167	0.0	0.0	2022-10-15 14:16:49	0	0	0.0																																																																		
					2022-10-15 14:16:54	1	1	915 MHz Radio	-10 db	3	Good	0	0	82806	KM6GNL	6	-0.016523849219083786	-0.00507016759365797	-0.012492154724895954	0.035892337560653687	0.4809573292732239	9.870392799377441	-0.0701799988746643	-0.0524899996817112	-0.09743999689817429	1.2612155569616674	-1.366480349386344	0.0	[0.51, 0.51, -0.48, 0.48]	[1.2612155569616674, -1.366480349386344, 0.0]																																																																															
					2022-10-15 14:16:54	1	1	915 MHz Radio	-10 db	3	Good	0	0	82806	KM6GNL	6															34.41999816894531	0.7973521947860718	0.3909532427787781	44.82510579427083	-73.16427408854166	46.0	12.43375015258789	0.0	0.0	2022-10-15 14:16:49	0	0	0.0																																																																		
					2022-10-15 14:16:54	1	1	915 MHz Radio	-10 db	4	Good	0	0	83005	KM6GNL	6	-0.0049174465239048	-0.006597325671464205	0.007360902614891529	0.02153540402650833	0.8111668825149536	9.906285285949707	-0.06379999965429306	-0.04814000055193901	-0.09164000302553177	1.2612155569616674	-1.366480349386344	0.0	[0.51, 0.51, -0.48, 0.48]	[1.2612155569616674, -1.366480349386344, 0.0]																																																																															
					2022-10-15 14:16:54	1	1	915 MHz Radio	-10 db	5	Good	0	0	83005	KM6GNL	6															34.43000030517578	0.7098305225372314	0.24104835093021393	44.82510579427083	-73.16427408854166	46.0	12.4350004196167	0.0	0.0	2022-10-15 14:16:49	0	0	0.0																																																																		
					2022-10-15 14:16:54	1	1	915 MHz Radio	-10 db	4	Good	0	0	83083	KM6GNL																													[False, False, False, False, False, False]	[False, False, False, False, False, False, False, False]	3																																																															
					2022-10-15 14:16:54	1	1	915 MHz Radio	-10 db	6	Good	0	0	83083	KM6GNL																																5													1	8494070	100733	26.786861419677734	0.2928743064403534	30.8054150390625	1.0203348398208618	3.8920822143554688	0	724	470	1																																						
					2022-10-15 14:16:54	1	1	915 MHz Radio	-10 db	4	Good	0	0	83204	KM6GNL	6	0.006597321480512619	-0.0011300974292680621	0.01356116496026516	-0.035892337560653687	0.4666004180908203	9.856036186218262	-0.05654999986290932	-0.04495000094175339	-0.1014999970793724	1.3746961030081017	-1.3850570790419683	0.048091233314550966	[0.48, 0.54, -0.45, 0.51]	[1.3746961030081017, -1.3850570790419683, 0.048091233314550966]																																																																															
					2022-10-15 14:16:54	1	1	915 MHz Radio	-10 db	8	Good	0	0	83204	KM6GNL	6															34.43000030517578	0.6477924585342407	0.15672457218170166	44.82510579427083	-73.16427408854166	46.0	12.428750038146973	0.0	0.0	2022-10-15 14:16:49	0	0	0.0																																																																		
					2022-10-15 14:16:54	1	1	915 MHz Radio	-10 db	5	Good	0	0	83402	KM6GNL	6	-0.018753506243228912	0.010170873254537582	-0.003237575525417924	0.02871387079358101	0.2799602448940277	9.884750366210938	-0.06322000175714493	-0.05104000121355057	-0.09860000014305115	1.3746961030081017	-1.3850570790419683	0.048091233314550966	[0.48, 0.54, -0.45, 0.51]	[1.3746961030081017, -1.3850570790419683, 0.048091233314550966]																																																																															
					2022-10-15 14:16:54	1	1	915 MHz Radio	-10 db	8	Good	0	0	83402	KM6GNL	6															34.439998626708984	0.8229724168777466	0.31368473172187805	44.82510579427083	-73.16427408854166	46.0	12.4350004196167	0.0	0.0	2022-10-15 14:16:49	0	0	0.0																																																																		
					2022-10-15 14:16:54	1	1	915 MHz Radio	-10 db	6	Good	0	0	83494	KM6GNL																																																									0.9954601526260376	0.9948285222053528	0.9952553510665894	0.0	16.0																																	
					2022-10-15 14:16:54	1	1	915 MHz Radio	-10 db	4	Good	0	0	83614	KM6GNL	6	-0.034941382706165314	-0.010598478838801384	-0.02217433787882328	0.12921242415905	0.4809573292732239	9.899106979370117	-0.06322000175714493	-0.04698000103235245	-0.09685999900102615	1.3746961030081017	-1.3850570790419683	0.048091233314550966	[0.48, 0.54, -0.45, 0.51]	[1.3746961030081017, -1.3850570790419683, 0.048091233314550966]																																																																															
					2022-10-15 14:16:55	1	1	915 MHz Radio	-10 db	5	Good	0	0	83614	KM6GNL	6															34.439998626708984	0.9238628149032593	0.36431679129600525	44.82510579427083	-73.16427408854166	46.0	12.4350004196167	0.0	0.0	2022-10-15 14:16:49	0	0	0.0																																																																		
44.8250732421875	-73.16439615885416	44.20000076293945	1.0047668393782383	27.68	2022-10-15 14:16:55	1																																																																																																							
					2022-10-15 14:16:55	1	1	915 MHz Radio	-11 db	5	Good	0	0	83800	KM6GNL	6	-0.020280662924051285	-0.015790816396474838	-0.0014049856690689921	0.035892337560653687	0.5168496966362	9.856036186218262	-0.06611999869346619	-0.04465999826788902	-0.09164000302553177	1.3999632008971332	-1.3335974601017084	-0.0630741178969129	[0.48, 0.54, -0.45, 0.5]	[1.3999632008971332, -1.3335974601017084, -0.0630741178969129]																																																																															
					2022-10-15 14:16:55	1	1	915 MHz Radio	-13 db	6	Good	0	0	84010	KM6GNL	6	0.01117879617959261	0.00528396712616086	0.020891524851322174	0.07896314561367035	0.2871387004852295	9.884750366210938	-0.0626399964094162	-0.04958999902009964	-0.10585000365972519	1.3746961030081017	-1.3850570790419683	0.048091233314550966	[0.48, 0.54, -0.45, 0.51]	[1.3746961030081017, -1.3850570790419683, 0.048091233314550966]																																																																															
					2022-10-15 14:16:55	1	1	915 MHz Radio	-14 db	3	Good	0	0	84085	KM6GNL																													[False, False, False, False, False, False]	[False, False, False, False, False, False, False, False]	3																																																															
					2022-10-15 14:16:55	1	1	915 MHz Radio	-14 db	4	Good	0	0	84085	KM6GNL																																5													1	8495620	100733	26.786861419677734	0.2928743064403534	30.80600341796875	1.0178372859954834	3.899120330810547	0	725	470	1																																						
					2022-10-15 14:16:55	1	1	915 MHz Radio	-13 db	5	Good	0	0	84212	KM6GNL	6															34.459999084472656	1.1413789987564087	0.442060649394989	44.82510579427083	-73.16427408854166	45.900001525878906	12.427499771118164	0.0	0.0	2022-10-15 14:16:49	0	0	0.0																																																																		
					2022-10-15 14:16:55	1	1	915 MHz Radio	-11 db	3	Good	0	0	84407	KM6GNL	6	-0.0020158481784164906	0.0035430120769888163	-0.01081228069961071	0.20817556977272034	0.45942193269729614	9.920642852783203	-0.06640999764204025	-0.04901000112295151	-0.09773000329732895	0.7853981633974483	-1.3724816100652324	-0.010203727493954524	[0.51, 0.49, -0.5, 0.48]	[0.7853981633974483, -1.3724816100652324, -0.010203727493954524]																																																																															
					2022-10-15 14:16:55	1	1	915 MHz Radio	-11 db	5	Good	0	0	84407	KM6GNL	6															34.470001220703125	1.2618972063064575	0.4862506091594696	44.82510579427083	-73.16427408854166	45.900001525878906	12.4350004196167	0.0	0.0	2022-10-15 14:16:49	0	0	0.0																																																																		
					2022-10-15 14:16:55	1	1	915 MHz Radio	-12 db	5	Good	0	0	84608	KM6GNL	6	-0.0001832582929637283	-0.006536232307553291	-0.006536236964166164	-0.05024927482008934	0.574277400970459	9.913463592529297	-0.06496000289916992	-0.04814000055193901	-0.10846000164747238	0.9812360921082924	-1.432121170812645	0.23052183904336832	[0.52, 0.49, -0.5, 0.48]	[0.9812360921082924, -1.432121170812645, 0.23052183904336832]																																																																															
					2022-10-15 14:16:56	1	1	915 MHz Radio	-13 db	6	Good	0	0	84608	KM6GNL	6															34.470001220703125	1.3965787887573242	0.5483287572860718	44.82510579427083	-73.16427408854166	45.900001525878906	12.43375015258789	0.0	0.0	2022-10-15 14:16:49	0	0	0.0																																																																		
					2022-10-15 14:16:56	1	1	915 MHz Radio	-14 db	5	Good	0	0	84808	KM6GNL	6	-0.0004886899259872735	0.002932148752734065	0.009040776640176773	-0.064606212079525	0.574277400970459	9.913463592529297	-0.06379999965429306	-0.05423000082373619	-0.10208000242710114	0.9812360921082924	-1.432121170812645	0.23052183904336832	[0.52, 0.49, -0.5, 0.48]	[0.9812360921082924, -1.432121170812645, 0.23052183904336832]																																																																															
					2022-10-15 14:16:56	1	1	915 MHz Radio	-13 db	4	Good	0	0	84808	KM6GNL	6															34.470001220703125	1.5596040487289429	0.6220723986625671	44.82510579427083	-73.16427408854166	45.900001525878906	12.4350004196167	0.0	0.0	2022-10-15 14:16:49	0	0	0.0																																																																		
					2022-10-15 14:16:56	1	1	915 MHz Radio	-13 db	5	Good	0	0	84808	KM6GNL																																																									0.9954700469970703	0.9948482513427734	0.9952553510665894	0.0	16.0																																	
					2022-10-15 14:16:56	1	1	915 MHz Radio	-15 db	5	Good	0	0	85005	KM6GNL	6	-0.0007941215881146491	-0.0034819156862795353	0.001710417214781046	0.07178467512130737	0.35892337560653687	9.949356079101562	-0.06437999755144119	-0.05277999863028526	-0.11106999963521957	0.7853981633974483	-1.3724816100652324	-0.010203727493954524	[0.51, 0.49, -0.5, 0.48]	[0.7853981633974483, -1.3724816100652324, -0.010203727493954524]																																																																															
					2022-10-15 14:16:56	1	1	915 MHz Radio	-12 db	4	Good	0	0	85005	KM6GNL	6															34.47999954223633	1.6653649806976318	0.6202100515365601	44.82510579427083	-73.16427408854166	45.79999923706055	12.4350004196167	0.0	0.0	2022-10-15 14:16:49	0	0	0.0																																																																		
					2022-10-15 14:16:56	1	1	915 MHz Radio	-12 db	5	Good	0	0	85095	KM6GNL																																1	1	8505261	100672	23.607275009155273	0.12560464441776276	30.73756103515625	1.012053370475769	3.8920822143554688	0	739	464	483																																																		
					2022-10-15 14:16:56	1	1	915 MHz Radio	-14 db	4	Good	0	0	85095	KM6GNL																																5													1	8496370	100728	27.20527458190918	0.33472561836242676	30.80711669921875	1.0144093036651611	3.906158447265625	0	725	466	0																																						
					2022-10-15 14:16:56	1	1	915 MHz Radio	-14 db	5	Good	0	0	85204	KM6GNL	6	-0.030482079833745956	-0.016462763771414757	-0.01838698424398899	0.064606212079525	0.33020952343940735	9.927821159362793	-0.057999998331069946	-0.04349999874830246	-0.1116499975323677	0.9928943898326527	-1.4321211708126462	-0.3217505543966433	[0.66, 0.28, -0.64, 0.26]	[0.9928943898326527, -1.4321211708126462, -0.3217505543966433]																																																																															
					2022-10-15 14:16:56	1	1	915 MHz Radio	-16 db	3	Good	0	0	85204	KM6GNL	6															34.47999954223633	1.8743948936462402	0.7185578942298889	44.82510579427083	-73.16427408854166	45.79999923706055	12.427499771118164	0.0	0.0	2022-10-15 14:16:49	0	0	0.0																																																																		
					2022-10-15 14:16:56	1	1	915 MHz Radio	-16 db	5	Good	0	0	85403	KM6GNL	6	-0.031092943623661995	-0.009132403880357742	-0.018081553280353546	-0.05742774158716202	0.5240281224250793	9.927821159362793	-0.06582999974489212	-0.05045999959111214	-0.1041100025177002	0.9928943898326527	-1.4321211708126462	-0.3217505543966433	[0.66, 0.28, -0.64, 0.26]	[0.9928943898326527, -1.4321211708126462, -0.3217505543966433]																																																																															
					2022-10-15 14:16:56	1	1	915 MHz Radio	-14 db	4	Good	0	0	85403	KM6GNL	6															34.47999954223633	1.8376173973083496	0.5548904538154602	44.82510579427083	-73.16427408854166	45.79999923706055	12.43375015258789	0.0	0.0	2022-10-15 14:16:49	0	0	0.0																																																																		
					2022-10-15 14:16:56	1	1	915 MHz Radio	-10 db	6	Good	0	0	85602	KM6GNL	6	0.004031696356832981	0.00339029380120337	0.008185568265616894	0.035892337560653687	0.4378865361213684	9.913463592529297	-0.059450000524520874	-0.049300000071525574	-0.10120999813079834	0.9928943898326527	-1.4321211708126462	-0.3217505543966433	[0.66, 0.28, -0.64, 0.26]	[0.9928943898326527, -1.4321211708126462, -0.3217505543966433]																																																																															
					2022-10-15 14:16:57	1	1	915 MHz Radio	-9 db	3	Good	0	0	85602	KM6GNL	6															34.47999954223633	1.6325364112854004	0.2712084650993347	44.82510579427083	-73.16427408854166	45.79999923706055	12.4350004196167	0.0	0.0	2022-10-15 14:16:49	0	0	0.0																																																																		
44.8250732421875	-73.16439615885416	44.29999923706055	1.0084283246977548	27.75	2022-10-15 14:16:57	1																																																																																																							
					2022-10-15 14:16:57	1	1	915 MHz Radio	-9 db	4	Good	0	0	85814	KM6GNL	6															34.4900016784668	1.275377869606018	-0.12029381096363068	44.82510579427083	-73.16427408854166	45.79999923706055	12.436249732971191	0.0	0.0	2022-10-15 14:16:49	0	0	0.0																																																																		
					2022-10-15 14:16:57	1	1	915 MHz Radio	-8 db	4	Good	0	0	86011	KM6GNL	6	-0.006047547794878483	-0.0066889505833387375	-0.01136205717921257	0.08614161610603333	0.08614161610603333	9.906285285949707	-0.06843999773263931	-0.04552999883890152	-0.1049799993634224	0.9928943898326527	-1.4321211708126462	-0.3217505543966433	[0.66, 0.28, -0.64, 0.26]	[0.9928943898326527, -1.4321211708126462, -0.3217505543966433]																																																																															
					2022-10-15 14:16:57	1	1	915 MHz Radio	-8 db	6	Good	0	0	86011	KM6GNL	6															34.5	1.173532485961914	-0.1810416430234909	44.82510579427083	-73.16427408854166	45.79999923706055	12.4350004196167	0.0	0.0	2022-10-15 14:16:49	0	0	0.0																																																																		
					2022-10-15 14:16:57	1	1	915 MHz Radio	-8 db	4	Good	0	0	86211	KM6GNL	6	-0.008307740092277527	-0.006780581548810005	-0.01350007951259613	0.10049854964017868	0.574277400970459	9.891928672790527	-0.06235000118613243	-0.0516199991106987	-0.09279999881982803	0.5848776137200348	-1.3353057630879865	-0.04677436912252852	[0.55, 0.44, -0.54, 0.43]	[0.5848776137200348, -1.3353057630879865, -0.04677436912252852]																																																																															
					2022-10-15 14:16:57	1	1	915 MHz Radio	-9 db	4	Good	0	0	86211	KM6GNL	6															34.4900016784668	1.152806282043457	-0.14751294255256653	44.82510579427083	-73.16427408854166	45.79999923706055	12.43375015258789	0.0	0.0	2022-10-15 14:16:54	0	0	0.0																																																																		
					2022-10-15 14:16:57	1	1	915 MHz Radio	-8 db	5	Good	0	0	86211	KM6GNL																													[False, False, False, False, False, False]	[False, False, False, False, False, False, False, False]	3																																																															
					2022-10-15 14:16:57	1	1	915 MHz Radio	-8 db	4	Good	0	0	86211	KM6GNL																																5													1	8497120	100734	26.703182220458984	0.0	30.80881591796875	1.019343376159668	3.8920822143554688	0	724	472	0																																						
					2022-10-15 14:16:57	1	1	915 MHz Radio	-8 db	6	Good	0	0	86412	KM6GNL	6															34.5	1.18973708152771	-0.05714849755167961	44.82510579427083	-73.16427408854166	45.70000076293945	12.426250457763672	0.0	0.0	2022-10-15 14:16:54	0	0	0.0																																																																		
					2022-10-15 14:16:57	1	1	915 MHz Radio	-8 db	4	Good	0	0	86608	KM6GNL	6	0.01795938052237034	0.006658410653471947	0.01795938052237034	0.014356935396790504	0.5527420043945312	9.877572059631348	-0.06293000280857086	-0.04958999902009964	-0.10700999945402145	0.5848776137200348	-1.3353057630879865	-0.04677436912252852	[0.55, 0.44, -0.54, 0.43]	[0.5848776137200348, -1.3353057630879865, -0.04677436912252852]																																																																															
					2022-10-15 14:16:58	1	1	915 MHz Radio	-8 db	3	Good	0	0	86608	KM6GNL	6															34.5099983215332	1.4007314443588257	0.17843958735466003	44.82510579427083	-73.16427408854166	45.70000076293945	12.43375015258789	0.0	0.0	2022-10-15 14:16:54	0	0	0.0																																																																		
					2022-10-15 14:16:58	1	1	915 MHz Radio	-8 db	3	Good	0	0	86805	KM6GNL	6	-0.008002309128642082	0.00390952592715621	-0.0015882448060438037	0.035892337560653687	0.30149564146995544	9.884750366210938	-0.06931000202894211	-0.04842999950051308	-0.1049799993634224	0.5848776137200348	-1.3353057630879865	-0.04677436912252852	[0.55, 0.44, -0.54, 0.43]	[0.5848776137200348, -1.3353057630879865, -0.04677436912252852]																																																																															
					2022-10-15 14:16:58	1	1	915 MHz Radio	-8 db	6	Good	0	0	86805	KM6GNL	6															34.5099983215332	1.2857577800750732	0.04536884278059006	44.82510579427083	-73.16427408854166	45.70000076293945	12.43375015258789	0.0	0.0	2022-10-15 14:16:54	0	0	0.0																																																																		
					2022-10-15 14:16:58	1	1	915 MHz Radio	-7 db	6	Good	0	0	87005	KM6GNL	6	-0.03946176916360855	-0.006475150119513273	-0.022968459874391556	0.05024927482008934	0.4666004180908203	9.920642852783203	-0.06496000289916992	-0.04611000046133995	-0.10005000233650208	0.5848776137200348	-1.3353057630879865	-0.04677436912252852	[0.55, 0.44, -0.54, 0.43]	[0.5848776137200348, -1.3353057630879865, -0.04677436912252852]																																																																															
					2022-10-15 14:16:58	1	1	915 MHz Radio	-7 db	5	Good	0	0	87005	KM6GNL	6															34.5099983215332	1.234383225440979	0.00922322552651167	44.82510579427083	-73.16427408854166	45.70000076293945	12.4350004196167	0.0	0.0	2022-10-15 14:16:54	0	0	0.0																																																																		
					2022-10-15 14:16:58	1	1	915 MHz Radio	-8 db	4	Good	0	0	87206	KM6GNL	6	-0.011972920037806034	-0.0016798734432086349	-0.002443452598527074	-0.02871387079358101	0.6317051649093628	9.891928672790527	-0.06408999860286713	-0.049300000071525574	-0.10120999813079834	1.3353468570575058	-1.3635439914324228	-0.00821336766677031	[0.52, 0.51, -0.48, 0.47000000000000003]	[1.3353468570575058, -1.3635439914324228, -0.00821336766677031]																																																																															
					2022-10-15 14:16:58	1	1	915 MHz Radio	-7 db	7	Good	0	0	87206	KM6GNL	6															34.5099983215332	1.214363694190979	0.001802526181563735	44.82510579427083	-73.16427408854166	45.70000076293945	12.432499885559082	0.0	0.0	2022-10-15 14:16:54	0	0	0.0																																																																		
					2022-10-15 14:16:58	1	1	915 MHz Radio	-8 db	4	Good	0	0	87222	KM6GNL																													[False, False, False, False, False, False]	[False, False, False, False, False, False, False, False]	3																																																															
					2022-10-15 14:16:58	1	1	915 MHz Radio	-8 db	5	Good	0	0	87222	KM6GNL																																1	1	8507661	100672	23.607275009155273	-0.1674775779247284	30.733212890625	1.0117100477218628	3.906158447265625	0	739	463	484																																																		
					2022-10-15 14:16:58	1	1	915 MHz Radio	-8 db	4	Good	0	0	87222	KM6GNL																																5													1	8498670	100728	27.20527458190918	0.04184187948703766	30.806201171875	1.0189208984375	3.913196563720703	0	723	469	0																																						
					2022-10-15 14:16:58	1	1	915 MHz Radio	-8 db	5	Good	0	0	87251	KM6GNL																																																									0.9952825307846069	0.9949074983596802	0.9952553510665894	0.0	16.0																																	
					2022-10-15 14:16:58	1	1	915 MHz Radio	-8 db	5	Good	0	0	87402	KM6GNL	6	0.008796432055532932	0.004428759682923555	0.011606402695178986	0.04307080805301666	0.3086741268634796	9.906285285949707	-0.06582999974489212	-0.04349999874830246	-0.10120999813079834	1.3353468570575058	-1.3635439914324228	-0.00821336766677031	[0.52, 0.51, -0.48, 0.47000000000000003]	[1.3353468570575058, -1.3635439914324228, -0.00821336766677031]																																																																															
					2022-10-15 14:16:59	1	1	915 MHz Radio	-9 db	4	Good	0	0	87614	KM6GNL	6	-0.0047952765598893166	-0.00259616831317544	-0.0015271577285602689	0.0933200791478157	0.20099709928035736	9.891928672790527	-0.06640999764204025	-0.045239999890327454	-0.10526999831199646	1.0529033447245055	-1.3219613684476363	0.09010443456392465	[0.52, 0.5, -0.48, 0.47000000000000003]	[1.0529033447245055, -1.3219613684476363, 0.09010443456392465]																																																																															
44.8250732421875	-73.16439615885416	44.099998474121094	1.0083592400690846	27.7	2022-10-15 14:16:59	1																																																																																																							
					2022-10-15 14:16:59	1	1	915 MHz Radio	-9 db	7	Good	0	0	87813	KM6GNL	6	-0.012278351932764053	-0.0022907366510480642	-0.013744423165917397	0.0933200791478157	0.33738797903060913	9.906285285949707	-0.06235000118613243	-0.04292000085115433	-0.08902999758720398	1.0529033447245055	-1.3219613684476363	0.09010443456392465	[0.52, 0.5, -0.48, 0.47000000000000003]	[1.0529033447245055, -1.3219613684476363, 0.09010443456392465]																																																																															
					2022-10-15 14:16:59	1	1	915 MHz Radio	-10 db	6	Good	0	0	88000	KM6GNL	6	0.008185568265616894	-0.0010690101189538836	0.0012217271141707897	0.007178467698395252	0.6604190468788147	9.899106979370117	-0.062059998512268066	-0.049880001693964005	-0.10120999813079834	1.0529033447245055	-1.3219613684476363	0.09010443456392465	[0.52, 0.5, -0.48, 0.47000000000000003]	[1.0529033447245055, -1.3219613684476363, 0.09010443456392465]																																																																															
					2022-10-15 14:16:59	1	1	915 MHz Radio	-10 db	5	Good	0	0	88000	KM6GNL	6															34.529998779296875	0.8217983841896057	-0.3199315369129181	44.82510579427083	-73.16427408854166	45.599998474121094	12.43375015258789	0.0	0.0	2022-10-15 14:16:54	0	0	0.0																																																																		
					2022-10-15 14:16:59	1	1	915 MHz Radio	-10 db	3	Good	0	0	88212	KM6GNL	6	0.008521541953086853	0.0007330335211008787	0.009407293982803822	0.035892337560653687	0.380458801984787	9.934999465942383	-0.061769999563694	-0.053360000252723694	-0.09367000311613083	1.1567973241826999	-1.3950710309639636	-0.05161463270586594	[0.54, 0.47000000000000003, -0.52, 0.45]	[1.1567973241826999, -1.3950710309639636, -0.05161463270586594]																																																																															
					2022-10-15 14:16:59	1	1	915 MHz Radio	-10 db	6	Good	0	0	88212	KM6GNL	6															34.540000915527344	0.630139172077179	-0.42642542719841003	44.82510579427083	-73.16427408854166	45.599998474121094	12.432499885559082	0.0	0.0	2022-10-15 14:16:54	0	0	0.0																																																																		
					2022-10-15 14:16:59	1	1	915 MHz Radio	-10 db	3	Good	0	0	88228	KM6GNL																																1	1	8508411	100681	22.853666305541992	-0.209332674741745	30.737497558593752	1.0087122917175293	3.8920822143554688	0	739	464	482																																																		
					2022-10-15 14:16:59	1	1	915 MHz Radio	-11 db	6	Good	0	0	88409	KM6GNL	6	0.0021074775140732527	0.00042760188807733357	-0.0006719501106999815	0.02871387079358101	0.4091726541519165	9.899106979370117	-0.061480000615119934	-0.04871999844908714	-0.1032399982213974	1.1567973241826999	-1.3950710309639636	-0.05161463270586594	[0.54, 0.47000000000000003, -0.52, 0.45]	[1.1567973241826999, -1.3950710309639636, -0.05161463270586594]																																																																															
					2022-10-15 14:16:59	1	1	915 MHz Radio	-11 db	5	Good	0	0	88409	KM6GNL	6															34.540000915527344	0.5753377676010132	-0.3763265013694763	44.82510579427083	-73.16427408854166	45.599998474121094	12.427499771118164	0.0	0.0	2022-10-15 14:16:54	0	0	0.0																																																																		
					2022-10-15 14:16:59	1	1	915 MHz Radio	-10 db	7	Good	0	0	88468	KM6GNL																																																									0.9953417181968689	0.9948679804801941	0.9952553510665894	0.0	16.0																																	
					2022-10-15 14:17:00	1	1	915 MHz Radio	-10 db	6	Good	0	0	88609	KM6GNL	6	-0.013164104893803596	-0.0004886930692009628	-0.0049479929730296135	0.05742774158716202	0.49531427025794983	9.949356079101562	-0.06235000118613243	-0.05510000139474869	-0.10294999927282333	1.1567973241826999	-1.3950710309639636	-0.05161463270586594	[0.54, 0.47000000000000003, -0.52, 0.45]	[1.1567973241826999, -1.3950710309639636, -0.05161463270586594]																																																																															
					2022-10-15 14:17:00	1	1	915 MHz Radio	-10 db	6	Good	0	0	88808	KM6GNL	6	-0.0009468388743698597	-0.0001832614216255024	-0.00036651844857260585	0.064606212079525	0.4809573292732239	9.927821159362793	-0.063510000705719	-0.05104000121355057	-0.09714999794960022	1.1567973241826999	-1.3950710309639636	-0.05161463270586594	[0.54, 0.47000000000000003, -0.52, 0.45]	[1.1567973241826999, -1.3950710309639636, -0.05161463270586594]																																																																															
					2022-10-15 14:17:00	1	1	915 MHz Radio	-10 db	6	Good	0	0	88808	KM6GNL	6															34.560001373291016	0.7032926678657532	-0.09189596027135849	44.82510579427083	-73.16427408854166	45.599998474121094	12.4350004196167	0.0	0.0	2022-10-15 14:16:54	0	0	0.0																																																																		
					2022-10-15 14:17:00	1	1	915 MHz Radio	-9 db	4	Good	0	0	89005	KM6GNL	6	-0.0070554716512560844	-0.0004886930692009628	0.0011606398038566113	-0.007178467698395252	0.42352959513664246	9.891928672790527	-0.06235000118613243	-0.04668999835848808	-0.09337999671697617	1.1567973241826999	-1.3950710309639636	-0.05161463270586594	[0.54, 0.47000000000000003, -0.52, 0.45]	[1.1567973241826999, -1.3950710309639636, -0.05161463270586594]																																																																															
					2022-10-15 14:17:00	1	1	915 MHz Radio	-10 db	5	Good	0	0	89200	KM6GNL	6	-0.001649327459745109	0.003543008118867874	0.0017715038266032934	0.02153540402650833	0.45224347710609436	9.884750366210938	-0.057420000433921814	-0.05307000130414963	-0.0939600020647049	1.1567973241826999	-1.3950710309639636	-0.05161463270586594	[0.54, 0.47000000000000003, -0.52, 0.45]	[1.1567973241826999, -1.3950710309639636, -0.05161463270586594]																																																																															
					2022-10-15 14:17:00	1	1	915 MHz Radio	-10 db	8	Good	0	0	89200	KM6GNL	6															34.560001373291016	0.6895813941955566	-0.039514437317848206	44.82510579427083	-73.16427408854166	45.5	12.43375015258789	0.0	0.0	2022-10-15 14:16:54	0	0	0.0																																																																		
					2022-10-15 14:17:00	1	1	915 MHz Radio	-10 db	5	Good	0	0	89235	KM6GNL																																1	1	8510011	100683	22.68620491027832	-0.4186670184135437	30.7362646484375	1.011366844177246	3.8920822143554688	0	737	466	484																																																		
					2022-10-15 14:17:00	1	1	915 MHz Radio	-10 db	5	Good	0	0	89403	KM6GNL	6	-0.0071470970287919044	0.001404986483976245	-0.0025045392103493214	0.10049854964017868	0.4666004180908203	9.920642852783203	-0.06496000289916992	-0.0524899996817112	-0.09888999909162521	1.1567973241826999	-1.3950710309639636	-0.05161463270586594	[0.54, 0.47000000000000003, -0.52, 0.45]	[1.1567973241826999, -1.3950710309639636, -0.05161463270586594]																																																																															
					2022-10-15 14:17:00	1	1	915 MHz Radio	-10 db	4	Good	0	0	89403	KM6GNL	6															34.56999969482422	0.672451376914978	-0.027162138372659683	44.82510579427083	-73.16427408854166	45.5	12.426250457763672	0.0	0.0	2022-10-15 14:16:54	0	0	0.0																																																																		
					2022-10-15 14:17:00	1	1	915 MHz Radio	-10 db	6	Good	0	0	89601	KM6GNL	6	-0.006536233704537153	-0.005009077955037355	-0.002809970872476697	0.02153540402650833	0.3445664644241333	9.906285285949707	-0.06235000118613243	-0.051330000162124634	-0.10787999629974365	1.1567973241826999	-1.3950710309639636	-0.05161463270586594	[0.54, 0.47000000000000003, -0.52, 0.45]	[1.1567973241826999, -1.3950710309639636, -0.05161463270586594]																																																																															
					2022-10-15 14:17:01	1	1	915 MHz Radio	-10 db	4	Good	0	0	89601	KM6GNL	6															34.56999969482422	0.7112216353416443	0.03439543768763542	44.82510579427083	-73.16427408854166	45.5	12.432499885559082	0.0	0.0	2022-10-15 14:16:54	0	0	0.0																																																																		
					2022-10-15 14:17:01	1	1	915 MHz Radio	-10 db	6	Good	0	0	89691	KM6GNL																																																									0.9953614473342896	0.9949666857719421	0.9952553510665894	0.0	16.0																																	
44.8250732421875	-73.16439615885416	44.099998474121094	1.0086849247471008	27.63	2022-10-15 14:17:01	1																																																																																																							
					2022-10-15 14:17:01	1	1	915 MHz Radio	-10 db	5	Good	0	0	89811	KM6GNL	6	-0.001954759005457163	0.0023212814703583717	-0.004337129183113575	0.02871387079358101	0.380458801984787	9.884750366210938	-0.055969998240470886	-0.043209999799728394	-0.10526999831199646	1.1567973241826999	-1.3950710309639636	-0.05161463270586594	[0.54, 0.47000000000000003, -0.52, 0.45]	[1.1567973241826999, -1.3950710309639636, -0.05161463270586594]																																																																															
					2022-10-15 14:17:01	1	1	915 MHz Radio	-10 db	6	Good	0	0	89811	KM6GNL	6															34.58000183105469	0.6431819200515747	-0.021811559796333313	44.82510579427083	-73.16427408854166	45.5	12.43375015258789	0.0	0.0	2022-10-15 14:16:54	0	0	0.0																																																																		
					2022-10-15 14:17:01	1	1	915 MHz Radio	-10 db	5	Good	0	0	90010	KM6GNL	6	0.005070168990641832	-0.0007330350345000625	0.005742115434259176	-0.014356935396790504	0.380458801984787	9.899106979370117	-0.063510000705719	-0.0516199991106987	-0.10729999840259552	1.1567973241826999	-1.3950710309639636	-0.05161463270586594	[0.54, 0.47000000000000003, -0.52, 0.45]	[1.1567973241826999, -1.3950710309639636, -0.05161463270586594]																																																																															
					2022-10-15 14:17:01	1	1	915 MHz Radio	-11 db	5	Good	0	0	90071	KM6GNL																																1																																									-0.5	305	366	48000	12500	6.0	6.0	12000	400	2000	100954											
					2022-10-15 14:17:01	1	1	915 MHz Radio	-10 db	4	Good	0	0	90212	KM6GNL	6	0.0012217257171869278	-0.004612014163285494	0.003512463066726923	-0.05024927482008934	0.2871387004852295	9.913463592529297	-0.06293000280857086	-0.04842999950051308	-0.09599000215530396	1.0182119765041837	-1.398536921040984	0.05619078620123779	[0.5700000000000001, 0.44, -0.54, 0.42]	[1.0182119765041837, -1.398536921040984, 0.05619078620123779]																																																																															
					2022-10-15 14:17:01	1	1	915 MHz Radio	-10 db	6	Good	0	0	90242	KM6GNL																													[False, False, False, False, False, False]	[False, False, False, False, False, False, False, False]	3																																																															
					2022-10-15 14:17:01	1	1	915 MHz Radio	-10 db	4	Good	0	0	90242	KM6GNL																																5													1	8501770	100735	26.6195011138916	-0.16736146807670593	30.806201171875	1.0189661979675293	3.8920822143554688	0	724	469	0																																						
					2022-10-15 14:17:01	1	1	915 MHz Radio	-9 db	6	Good	0	0	90408	KM6GNL	6															34.59000015258789	0.8160700798034668	0.17103785276412964	44.82510579427083	-73.16427408854166	45.400001525878906	12.427499771118164	0.0	0.0	2022-10-15 14:16:54	0	0	0.0																																																																		
					2022-10-15 14:17:01	1	1	915 MHz Radio	-9 db	5	Good	0	0	90605	KM6GNL	6	-0.002443453995510936	0.000580323685426265	0.00626134779304266	0.035892337560653687	0.4378865361213684	9.870392799377441	-0.06322000175714493	-0.04552999883890152	-0.09570000320672989	1.0182119765041837	-1.398536921040984	0.05619078620123779	[0.5700000000000001, 0.44, -0.54, 0.42]	[1.0182119765041837, -1.398536921040984, 0.05619078620123779]																																																																															
					2022-10-15 14:17:02	1	1	915 MHz Radio	-9 db	5	Good	0	0	90605	KM6GNL	6															34.59000015258789	0.6649095416069031	0.004102282226085663	44.82510579427083	-73.16427408854166	45.400001525878906	12.4350004196167	0.0	0.0	2022-10-15 14:16:54	0	0	0.0																																																																		
					2022-10-15 14:17:02	1	1	915 MHz Radio	-9 db	5	Good	0	0	90804	KM6GNL	6	0.013133560307323933	0.00363464024849236	0.0010690100025385618	0.04307080805301666	0.2871387004852295	9.891928672790527	-0.06061000004410744	-0.037700001150369644	-0.10643000155687332	1.0182119765041837	-1.398536921040984	0.05619078620123779	[0.5700000000000001, 0.44, -0.54, 0.42]	[1.0182119765041837, -1.398536921040984, 0.05619078620123779]																																																																															
					2022-10-15 14:17:02	1	1	915 MHz Radio	-9 db	4	Good	0	0	90804	KM6GNL	6															34.59000015258789	0.6871943473815918	0.03705151379108429	44.82510579427083	-73.16427408854166	45.400001525878906	12.4350004196167	0.0	0.0	2022-10-15 14:16:54	0	0	0.0																																																																		
					2022-10-15 14:17:02	1	1	915 MHz Radio	-9 db	5	Good	0	0	91006	KM6GNL	6	0.00030543081811629236	-0.0003359712427482009	-0.004123327787965536	0.02871387079358101	0.5096712112426758	9.906285285949707	-0.06582999974489212	-0.05104000121355057	-0.09860000014305115	1.0182119765041837	-1.398536921040984	0.05619078620123779	[0.5700000000000001, 0.44, -0.54, 0.42]	[1.0182119765041837, -1.398536921040984, 0.05619078620123779]																																																																															
					2022-10-15 14:17:02	1	1	915 MHz Radio	-9 db	4	Good	0	0	91006	KM6GNL	6															34.599998474121094	0.6898125410079956	0.05543584004044533	44.82510579427083	-73.16427408854166	45.400001525878906	12.432499885559082	0.0	0.0	2022-10-15 14:16:54	0	0	0.0																																																																		
					2022-10-15 14:17:02	1	1	915 MHz Radio	-10 db	4	Good	0	0	91201	KM6GNL	6	-0.004612020216882229	-0.008093937300145626	0.0027794281486421824	0.02153540402650833	0.5383850932121277	9.920642852783203	-0.055390000343322754	-0.051330000162124634	-0.09279999881982803	1.2359043545119075	-1.3476228963447556	-0.1866893308142502	[0.54, 0.47000000000000003, -0.52, 0.44]	[1.2359043545119075, -1.3476228963447556, -0.1866893308142502]																																																																															
					2022-10-15 14:17:02	1	1	915 MHz Radio	-9 db	5	Good	0	0	91201	KM6GNL	6															34.61000061035156	0.7643962502479553	0.13340891897678375	44.82510579427083	-73.16427408854166	45.400001525878906	12.43375015258789	0.0	0.0	2022-10-15 14:16:59	0	0	0.0																																																																		
					2022-10-15 14:17:02	1	1	915 MHz Radio	-9 db	4	Good	0	0	91246	KM6GNL																																1	1	8511511	100675	23.35606575012207	0.0	30.7353564453125	1.0102672576904297	3.899120330810547	0	738	464	483																																																		
					2022-10-15 14:17:02	1	1	915 MHz Radio	-8 db	4	Good	0	0	91400	KM6GNL	6	0.013713878579437733	0.001374443992972374	0.008277198299765587	0.02871387079358101	0.4307080805301666	9.899106979370117	-0.05973999947309494	-0.0414699986577034	-0.10034000128507614	1.2359043545119075	-1.3476228963447556	-0.1866893308142502	[0.54, 0.47000000000000003, -0.52, 0.44]	[1.2359043545119075, -1.3476228963447556, -0.1866893308142502]																																																																															
					2022-10-15 14:17:02	1	1	915 MHz Radio	-8 db	6	Good	0	0	91400	KM6GNL	6															34.61000061035156	0.8764650821685791	0.22686661779880524	44.82510579427083	-73.16427408854166	45.29999923706055	12.426250457763672	0.0	0.0	2022-10-15 14:16:59	0	0	0.0																																																																		
					2022-10-15 14:17:03	1	1	915 MHz Radio	-8 db	4	Good	0	0	91601	KM6GNL	6	0.0002748859697021544	0.00442876061424613	-0.002718341303989291	0.04307080805301666	0.4019941985607147	9.891928672790527	-0.06814999878406525	-0.04814000055193901	-0.09743999689817429	1.2359043545119075	-1.3476228963447556	-0.1866893308142502	[0.54, 0.47000000000000003, -0.52, 0.44]	[1.2359043545119075, -1.3476228963447556, -0.1866893308142502]																																																																															
44.8250732421875	-73.16439615885416	44.099998474121094	1.008566493955095	27.62	2022-10-15 14:17:03	1																																																																																																							
					2022-10-15 14:17:03	1	1	915 MHz Radio	-9 db	4	Good	0	0	91800	KM6GNL	6															34.61000061035156	1.1158944368362427	0.3601018190383911	44.82510579427083	-73.16427408854166	45.29999923706055	12.43375015258789	0.0	0.0	2022-10-15 14:16:59	0	0	0.0																																																																		
					2022-10-15 14:17:03	1	1	915 MHz Radio	-8 db	5	Good	0	0	92012	KM6GNL	6	0.0069943820126354694	0.001985307317227125	0.00919349305331707	0.10049854964017868	0.4809573292732239	9.891928672790527	-0.06699000298976898	-0.04465999826788902	-0.09511999785900116	1.2359043545119075	-1.3476228963447556	-0.1866893308142502	[0.54, 0.47000000000000003, -0.52, 0.44]	[1.2359043545119075, -1.3476228963447556, -0.1866893308142502]																																																																															
					2022-10-15 14:17:03	1	1	915 MHz Radio	-8 db	4	Good	0	0	92012	KM6GNL	6															34.619998931884766	1.141279697418213	0.32137730717658997	44.82510579427083	-73.16427408854166	45.29999923706055	12.432499885559082	0.0	0.0	2022-10-15 14:16:59	0	0	0.0																																																																		
					2022-10-15 14:17:03	1	1	915 MHz Radio	-9 db	4	Good	0	0	92207	KM6GNL	6	0.01627950370311737	0.008155031129717827	0.004703646060079336	0.035892337560653687	0.2799602448940277	9.891928672790527	-0.06814999878406525	-0.04465999826788902	-0.08555000275373459	0.8940593792380361	-1.3319011442863293	0.09863719334174138	[0.53, 0.48, -0.5, 0.46]	[0.8940593792380361, -1.3319011442863293, 0.09863719334174138]																																																																															
					2022-10-15 14:17:03	1	1	915 MHz Radio	-10 db	3	Good	0	0	92226	KM6GNL																																																									0.9954798817634583	0.9948778748512268	0.9952553510665894	0.0	16.0																																	
					2022-10-15 14:17:03	1	1	915 MHz Radio	-10 db	5	Good	0	0	92254	KM6GNL																																1	1	8512261	100669	23.858489990234375	0.25121232867240906	30.7336669921875	1.0064164400100708	3.906158447265625	0	738	464	483																																																		
					2022-10-15 14:17:03	1	1	915 MHz Radio	-10 db	4	Good	0	0	92254	KM6GNL																																5													1	8503170	100725	27.456329345703125	0.08368544280529022	30.80698486328125	1.016116976737976	3.899120330810547	0	723	469	1																																						
					2022-10-15 14:17:03	1	1	915 MHz Radio	-10 db	7	Good	0	0	92406	KM6GNL	6	0.0120034608989954	0.016401685774326324	-0.004153871443122625	0.14356935024261475	0.4091726541519165	9.942177772521973	-0.06814999878406525	-0.04465999826788902	-0.08555000275373459	0.8940593792380361	-1.3319011442863293	0.09863719334174138	[0.53, 0.48, -0.5, 0.46]	[0.8940593792380361, -1.3319011442863293, 0.09863719334174138]																																																																															
					2022-10-15 14:17:03	1	1	915 MHz Radio	-10 db	3	Good	0	0	92406	KM6GNL	6															34.619998931884766	1.3565598726272583	0.46816545724868774	44.82510579427083	-73.16427408854166	45.29999923706055	12.426250457763672	0.0	0.0	2022-10-15 14:16:59	0	0	0.0																																																																		
					2022-10-15 14:17:04	1	1	915 MHz Radio	-10 db	4	Good	0	0	92606	KM6GNL	6	-0.010293049737811089	-0.009560003876686096	-0.007208188064396381	0.2727817893028259	0.29431718587875366	9.963713645935059	-0.0626399964094162	-0.04292000085115433	-0.10266000032424927	0.8940593792380361	-1.3319011442863293	0.09863719334174138	[0.53, 0.48, -0.5, 0.46]	[0.8940593792380361, -1.3319011442863293, 0.09863719334174138]																																																																															
					2022-10-15 14:17:04	1	1	915 MHz Radio	-10 db	6	Good	0	0	92801	KM6GNL	6	-0.016401682049036026	-0.02605331316590309	-0.016982000321149826	-0.02153540402650833	0.35892337560653687	9.870392799377441	-0.059450000524520874	-0.045820001512765884	-0.09976000338792801	0.8940593792380361	-1.3319011442863293	0.09863719334174138	[0.53, 0.48, -0.5, 0.46]	[0.8940593792380361, -1.3319011442863293, 0.09863719334174138]																																																																															
					2022-10-15 14:17:04	1	1	915 MHz Radio	-9 db	6	Good	0	0	93002	KM6GNL	6	0.0010079212952405214	0.011820211075246334	-0.0023212817031890154	-0.20817556977272034	0.5312066078186035	9.848857879638672	-0.061480000615119934	-0.043209999799728394	-0.10034000128507614	0.8940593792380361	-1.3319011442863293	0.09863719334174138	[0.53, 0.48, -0.5, 0.46]	[0.8940593792380361, -1.3319011442863293, 0.09863719334174138]																																																																															
					2022-10-15 14:17:04	1	1	915 MHz Radio	-9 db	3	Good	0	0	93002	KM6GNL	6															34.63999938964844	1.5417147874832153	0.32555991411209106	44.82510579427083	-73.16427408854166	45.29999923706055	12.43375015258789	0.0	0.0	2022-10-15 14:16:59	0	0	0.0																																																																		
					2022-10-15 14:17:04	1	1	915 MHz Radio	-9 db	5	Good	0	0	93200	KM6GNL	6	0.029657410457730293	0.015515923500061035	0.014782891608774662	0.11485548317432404	0.5886343717575073	9.899106979370117	-0.05829000100493431	-0.04901000112295151	-0.10208000242710114	1.2490457723982538	-1.368461259094727	-0.015383401780594178	[0.52, 0.5, -0.49, 0.47000000000000003]	[1.2490457723982538, -1.368461259094727, -0.015383401780594178]																																																																															
					2022-10-15 14:17:04	1	1	915 MHz Radio	-9 db	4	Good	0	0	93200	KM6GNL	6															34.63999938964844	1.4674162864685059	0.21489474177360535	44.82510579427083	-73.16427408854166	45.29999923706055	12.43375015258789	0.0	0.0	2022-10-15 14:16:59	0	0	0.0																																																																		
					2022-10-15 14:17:04	1	1	915 MHz Radio	-9 db	4	Good	0	0	93261	KM6GNL																																1	1	8513661	100675	23.35606575012207	0.1256016194820404	30.7327587890625	1.009207010269165	3.8920822143554688	0	739	463	484																																																		
					2022-10-15 14:17:04	1	1	915 MHz Radio	-9 db	4	Good	0	0	93261	KM6GNL																																5													1	8504820	100734	26.703182220458984	0.0	30.80862060546875	1.0182602405548096	3.899120330810547	1	725	470	0																																						
					2022-10-15 14:17:04	1	1	915 MHz Radio	-9 db	5	Good	0	0	93400	KM6GNL	6	0.0009468361968174577	-0.011667492799460888	0.0034819208085536957	0.064606212079525	0.3517449200153351	9.942177772521973	-0.06640999764204025	-0.04495000094175339	-0.10208000242710114	1.2490457723982538	-1.368461259094727	-0.015383401780594178	[0.52, 0.5, -0.49, 0.47000000000000003]	[1.2490457723982538, -1.368461259094727, -0.015383401780594178]																																																																															
					2022-10-15 14:17:04	1	1	915 MHz Radio	-9 db	7	Good	0	0	93400	KM6GNL	6															34.63999938964844	1.3108453750610352	0.03644711151719093	44.82510579427083	-73.16427408854166	45.20000076293945	12.427499771118164	0.0	0.0	2022-10-15 14:16:59	0	0	0.0																																																																		
					2022-10-15 14:17:04	1	1	915 MHz Radio	-8 db	4	Good	0	0	93613	KM6GNL	6	-0.024709422141313553	-0.012278356589376926	-0.02217433787882328	-0.12921242415905	0.38763725757598877	9.848857879638672	-0.06466999650001526	-0.04639999940991402	-0.11223000288009644	1.2490457723982538	-1.368461259094727	-0.015383401780594178	[0.52, 0.5, -0.49, 0.47000000000000003]	[1.2490457723982538, -1.368461259094727, -0.015383401780594178]																																																																															
					2022-10-15 14:17:05	1	1	915 MHz Radio	-8 db	5	Good	0	0	93613	KM6GNL	6															34.650001525878906	1.1762512922286987	-0.08234371244907379	44.82510579427083	-73.16427408854166	45.20000076293945	12.432499885559082	0.0	0.0	2022-10-15 14:16:59	0	0	0.0																																																																		
44.8250732421875	-73.16439615885416	44.099998474121094	1.008635578583765	27.61	2022-10-15 14:17:05	1																																																																																																							
					2022-10-15 14:17:05	1	1	915 MHz Radio	-7 db	5	Good	0	0	93812	KM6GNL	6	-0.012492156587541103	0.005742110777646303	-0.009957071393728256	-0.035892337560653687	0.696311354637146	9.877572059631348	-0.06437999755144119	-0.043790001422166824	-0.10585000365972519	1.2490457723982538	-1.368461259094727	-0.015383401780594178	[0.52, 0.5, -0.49, 0.47000000000000003]	[1.2490457723982538, -1.368461259094727, -0.015383401780594178]																																																																															
					2022-10-15 14:17:05	1	1	915 MHz Radio	-7 db	4	Good	0	0	94009	KM6GNL	6	0.024159641936421394	0.005742110777646303	0.01844807155430317	0.16510476171970367	0.4091726541519165	9.927821159362793	-0.0608999989926815	-0.0524899996817112	-0.09917999804019928	1.2490457723982538	-1.368461259094727	-0.015383401780594178	[0.52, 0.5, -0.49, 0.47000000000000003]	[1.2490457723982538, -1.368461259094727, -0.015383401780594178]																																																																															
					2022-10-15 14:17:05	1	1	915 MHz Radio	-8 db	4	Good	0	0	94209	KM6GNL	6	-0.002962683793157339	-0.007849592715501785	0.0038178940303623676	0.17228323221206665	0.02871387079358101	9.899106979370117	-0.06757000088691711	-0.04901000112295151	-0.10787999629974365	1.0990188156141452	-1.4008863898999535	-0.12062366858010441	[0.58, 0.42, -0.56, 0.4]	[1.0990188156141452, -1.4008863898999535, -0.12062366858010441]																																																																															
					2022-10-15 14:17:05	1	1	915 MHz Radio	-8 db	3	Good	0	0	94209	KM6GNL	6															34.65999984741211	0.6008322238922119	-0.45164480805397034	44.82510579427083	-73.16427408854166	45.20000076293945	12.432499885559082	0.0	0.0	2022-10-15 14:16:59	0	0	0.0																																																																		
					2022-10-15 14:17:05	1	1	915 MHz Radio	-10 db	5	Good	0	0	94270	KM6GNL																													[False, False, False, False, False, False]	[False, False, False, False, False, False, False, False]	3																																																															
					2022-10-15 14:17:05	1	1	915 MHz Radio	-10 db	3	Good	0	0	94270	KM6GNL																																1	1	8514461	100675	23.35606575012207	-0.3349524736404419	30.732695312500002	1.006334900856018	3.899120330810547	0	739	464	482																																																		
					2022-10-15 14:17:05	1	1	915 MHz Radio	-10 db	3	Good	0	0	94270	KM6GNL																																5													1	8505570	100734	26.703182220458984	-0.25104624032974243	30.8085546875	1.0188459157943726	3.8920822143554688	0	723	470	0																																						
					2022-10-15 14:17:05	1	1	915 MHz Radio	-11 db	4	Good	0	0	94407	KM6GNL	6	-0.0020463888067752123	-0.006627866066992283	-0.019700342789292336	0.05742774158716202	0.2871387004852295	9.934999465942383	-0.06437999755144119	-0.051330000162124634	-0.10961999744176865	1.0990188156141452	-1.4008863898999535	-0.12062366858010441	[0.58, 0.42, -0.56, 0.4]	[1.0990188156141452, -1.4008863898999535, -0.12062366858010441]																																																																															
					2022-10-15 14:17:06	1	1	915 MHz Radio	-11 db	4	Good	0	0	94606	KM6GNL	6	-0.0017409571446478367	-0.0023518227972090244	-0.004123328719288111	0.05024927482008934	0.6819544434547424	9.942177772521973	-0.0626399964094162	-0.04030999913811684	-0.10091999918222427	1.0990188156141452	-1.4008863898999535	-0.12062366858010441	[0.58, 0.42, -0.56, 0.4]	[1.0990188156141452, -1.4008863898999535, -0.12062366858010441]																																																																															
					2022-10-15 14:17:06	1	1	915 MHz Radio	-11 db	4	Good	0	0	94667	KM6GNL																																																									0.9952825307846069	0.9949469566345215	0.9952553510665894	0.0	16.0																																	
					2022-10-15 14:17:06	1	1	915 MHz Radio	-10 db	4	Good	0	0	94806	KM6GNL	6	0.008949150331318378	0.006811126600950956	0.019700339064002037	0.02871387079358101	0.6819544434547424	10.200602531433105	-0.062059998512268066	-0.05277999863028526	-0.09888999909162521	1.0990188156141452	-1.4008863898999535	-0.12062366858010441	[0.58, 0.42, -0.56, 0.4]	[1.0990188156141452, -1.4008863898999535, -0.12062366858010441]																																																																															
					2022-10-15 14:17:06	1	1	915 MHz Radio	-10 db	5	Good	0	0	94806	KM6GNL	6															34.68000030517578	0.5806484222412109	-0.21251042187213898	44.82510579427083	-73.16427408854166	45.20000076293945	12.43375015258789	0.0	0.0	2022-10-15 14:16:59	0	0	0.0																																																																		
					2022-10-15 14:17:06	1	1	915 MHz Radio	-12 db	3	Good	0	0	95003	KM6GNL	6	0.02269357442855835	0.011698032729327679	0.01328627485781908	0.007178467698395252	0.48813581466674805	10.15035343170166	-0.06235000118613243	-0.04495000094175339	-0.0939600020647049	1.0990188156141452	-1.4008863898999535	-0.12062366858010441	[0.58, 0.42, -0.56, 0.4]	[1.0990188156141452, -1.4008863898999535, -0.12062366858010441]																																																																															
					2022-10-15 14:17:06	1	1	915 MHz Radio	-13 db	4	Good	0	0	95003	KM6GNL	6															34.68000030517578	0.5643582344055176	-0.18650367856025696	44.82510579427083	-73.16427408854166	45.20000076293945	12.432499885559082	0.0	0.0	2022-10-15 14:16:59	0	0	0.0																																																																		
					2022-10-15 14:17:06	1	1	915 MHz Radio	-13 db	4	Good	0	0	95200	KM6GNL	6	-0.017776120454072952	-0.012980842962861061	-0.013866596855223179	1.098305583000183	0.30149564146995544	9.841679573059082	-0.06119000166654587	-0.043790001422166824	-0.09831000119447708	0.9549263748553769	-1.3997076618500026	-0.5809769580203038	[0.65, 0.27, -0.65, 0.26]	[0.9549263748553769, -1.3997076618500026, -0.5809769580203038]																																																																															
					2022-10-15 14:17:06	1	1	915 MHz Radio	-13 db	4	Good	0	0	95279	KM6GNL																													[False, False, False, False, False, False]	[False, False, False, False, False, False, False, False]	3																																																															
					2022-10-15 14:17:06	1	1	915 MHz Radio	-12 db	5	Good	0	0	95279	KM6GNL																																5													1	8506320	100739	26.2847900390625	-0.251036137342453	30.81077880859375	1.0214428901672363	3.899120330810547	0	724	469	2																																						
					2022-10-15 14:17:06	1	1	915 MHz Radio	-12 db	4	Good	0	0	95401	KM6GNL	6	-0.024801049381494522	-0.01847861334681511	-0.001649330835789442	-0.014356935396790504	0.7752745151519775	9.942177772521973	-0.061480000615119934	-0.04349999874830246	-0.09279999881982803	0.9549263748553769	-1.3997076618500026	-0.5809769580203038	[0.65, 0.27, -0.65, 0.26]	[0.9549263748553769, -1.3997076618500026, -0.5809769580203038]																																																																															
					2022-10-15 14:17:06	1	1	915 MHz Radio	-11 db	5	Good	0	0	95614	KM6GNL	6	0.02651146799325943	0.00809394009411335	0.021563474088907242	-0.08614161610603333	0.33020952343940735	9.877572059631348	-0.060029998421669006	-0.047850001603364944	-0.1041100025177002	0.9549263748553769	-1.3997076618500026	-0.5809769580203038	[0.65, 0.27, -0.65, 0.26]	[0.9549263748553769, -1.3997076618500026, -0.5809769580203038]																																																																															
					2022-10-15 14:17:07	1	1	915 MHz Radio	-11 db	5	Good	0	0	95614	KM6GNL	6															34.70000076293945	0.8190116286277771	0.14421682059764862	44.82510579427083	-73.16427408854166	45.20000076293945	12.43375015258789	0.0	0.0	2022-10-15 14:16:59	0	0	0.0																																																																		
44.8250732421875	-73.16439615885416	43.900001525878906	1.0086158401184309	27.6	2022-10-15 14:17:07	1																																																																																																							
					2022-10-15 14:17:07	1	1	915 MHz Radio	-12 db	4	Good	0	0	95812	KM6GNL	6	0.014905065298080444	0.01298084668815136	0.009651640430092812	0.007178467698395252	0.10767702013254166	9.920642852783203	-0.063510000705719	-0.0414699986577034	-0.09570000320672989	0.0	-1.4350455155435462	0.0	[0.65, 0.27, -0.65, 0.27]	[0.0, -1.4350455155435462, 0.0]																																																																															
					2022-10-15 14:17:07	1	1	915 MHz Radio	-12 db	4	Good	0	0	95812	KM6GNL	6															34.689998626708984	1.0307068824768066	0.3423563241958618	44.82510579427083	-73.16427408854166	45.20000076293945	12.43375015258789	0.0	0.0	2022-10-15 14:16:59	0	0	0.0																																																																		
					2022-10-15 14:17:07	1	1	915 MHz Radio	-13 db	4	Good	0	0	96014	KM6GNL	6	-0.014721804298460484	-0.009926526807248592	-0.020280661061406136	0.23688943684101105	0.6675975322723389	10.121639251708984	-0.063510000705719	-0.043790001422166824	-0.1032399982213974	0.0	-1.4350455155435462	0.0	[0.65, 0.27, -0.65, 0.27]	[0.0, -1.4350455155435462, 0.0]																																																																															
					2022-10-15 14:17:07	1	1	915 MHz Radio	-13 db	4	Good	0	0	96014	KM6GNL	6															34.70000076293945	1.2947770357131958	0.5576656460762024	44.82510579427083	-73.16427408854166	45.20000076293945	12.43375015258789	0.0	0.0	2022-10-15 14:17:04	0	0	0.0																																																																		
					2022-10-15 14:17:07	1	1	915 MHz Radio	-13 db	3	Good	0	0	96208	KM6GNL	6	-0.013958226889371872	-0.027213959023356438	-0.01676819659769535	0.36610186100006104	0.8398807048797607	10.13599681854248	-0.05886999890208244	-0.03914999961853027	-0.10063000023365021	0.8145676064112359	-1.3227747708254187	-0.09880260189937462	[0.58, 0.41000000000000003, -0.56, 0.39]	[0.8145676064112359, -1.3227747708254187, -0.09880260189937462]																																																																															
					2022-10-15 14:17:07	1	1	915 MHz Radio	-12 db	3	Good	0	0	96286	KM6GNL																													[False, False, False, False, False, False]	[False, False, False, False, False, False, False, False]	3																																																															
					2022-10-15 14:17:07	1	1	915 MHz Radio	-11 db	6	Good	0	0	96286	KM6GNL																																1	1	8516761	100676	23.27233123779297	0.12560060620307922	30.7342529296875	0.9907540678977966	3.899120330810547	0	737	467	482																																																		
					2022-10-15 14:17:07	1	1	915 MHz Radio	-11 db	5	Good	0	0	96286	KM6GNL																																5													1	8507070	100735	26.6195011138916	-0.29288607835769653	30.8103857421875	1.016390085220337	3.8920822143554688	1	724	467	0																																						
					2022-10-15 14:17:07	1	1	915 MHz Radio	-11 db	5	Good	0	0	96411	KM6GNL	6															34.709999084472656	1.2442538738250732	0.3175908923149109	44.82510579427083	-73.16427408854166	45.20000076293945	12.427499771118164	0.0	0.0	2022-10-15 14:17:04	0	0	0.0																																																																		
					2022-10-15 14:17:08	1	1	915 MHz Radio	-10 db	5	Good	0	0	96607	KM6GNL	6	0.03368911147117615	0.022265968844294548	0.00888806115835905	0.12921242415905	0.2153540402650833	9.920642852783203	-0.059450000524520874	-0.04698000103235245	-0.10091999918222427	0.6461189038606031	-1.35873911837166	0.09065988720074379	[0.58, 0.41000000000000003, -0.56, 0.4]	[0.6461189038606031, -1.35873911837166, 0.09065988720074379]																																																																															
					2022-10-15 14:17:08	1	1	915 MHz Radio	-9 db	4	Good	0	0	96802	KM6GNL	6	-0.015790816396474838	0.008216111920773983	-0.02104424126446247	0.26560330390930176	0.33738797903060913	9.956534385681152	-0.05857999995350838	-0.04349999874830246	-0.10585000365972519	0.6461189038606031	-1.35873911837166	0.09065988720074379	[0.58, 0.41000000000000003, -0.56, 0.4]	[0.6461189038606031, -1.35873911837166, 0.09065988720074379]																																																																															
					2022-10-15 14:17:08	1	1	915 MHz Radio	-8 db	4	Good	0	0	96802	KM6GNL	6															34.720001220703125	1.0766834020614624	0.10958822071552277	44.82510579427083	-73.16427408854166	45.20000076293945	12.432499885559082	0.0	0.0	2022-10-15 14:17:04	0	0	0.0																																																																		
					2022-10-15 14:17:08	1	1	915 MHz Radio	-13 db	6	Good	0	0	97002	KM6GNL	6	-0.020677722990512848	-0.010415217839181423	-0.01615733467042446	0.02871387079358101	0.6317051649093628	9.920642852783203	-0.06466999650001526	-0.04668999835848808	-0.1014999970793724	0.8145676064112359	-1.3227747708254187	-0.09880260189937462	[0.58, 0.41000000000000003, -0.56, 0.39]	[0.8145676064112359, -1.3227747708254187, -0.09880260189937462]																																																																															
					2022-10-15 14:17:08	1	1	915 MHz Radio	-10 db	5	Good	0	0	97203	KM6GNL	6	-0.01881459169089794	-0.005406143609434366	0.00846045557409525	-0.17946168780326843	0.6819544434547424	9.949356079101562	-0.063510000705719	-0.05973999947309494	-0.10643000155687332	1.285838976544745	-1.4008863898999535	-0.06656816377582421	[0.55, 0.47000000000000003, -0.52, 0.44]	[1.285838976544745, -1.4008863898999535, -0.06656816377582421]																																																																															
					2022-10-15 14:17:08	1	1	915 MHz Radio	-10 db	5	Good	0	0	97203	KM6GNL	6															34.720001220703125	1.1831165552139282	0.18242254853248596	44.82510579427083	-73.16427408854166	45.20000076293945	12.431249618530273	0.0	0.0	2022-10-15 14:17:04	0	0	0.0																																																																		
					2022-10-15 14:17:08	1	1	915 MHz Radio	-10 db	4	Good	0	0	97203	KM6GNL																																																									0.9954601526260376	0.9948877096176147	0.9952553510665894	0.0	16.0																																	
					2022-10-15 14:17:08	1	1	915 MHz Radio	-11 db	5	Good	0	0	97293	KM6GNL																													[False, False, False, False, False, False]	[False, False, False, False, False, False, False, False]	3																																																															
					2022-10-15 14:17:08	1	1	915 MHz Radio	-10 db	5	Good	0	0	97293	KM6GNL																																5													1	8508720	100733	26.786861419677734	0.16735877096652985	30.80816162109375	1.0096917152404785	3.913196563720703	0	723	471	1																																						
					2022-10-15 14:17:08	1	1	915 MHz Radio	-8 db	4	Good	0	0	97401	KM6GNL	6															34.72999954223633	1.1869138479232788	0.15978774428367615	44.82510579427083	-73.16427408854166	45.20000076293945	12.425000190734863	0.0	0.0	2022-10-15 14:17:04	0	0	0.0																																																																		
					2022-10-15 14:17:09	1	1	915 MHz Radio	-10 db	4	Good	0	0	97613	KM6GNL	6	-0.019578171893954277	-0.009071323089301586	-0.0077274213545024395	0.10049854964017868	0.3517449200153351	9.920642852783203	-0.06061000004410744	-0.04901000112295151	-0.09657000005245209	1.285838976544745	-1.4008863898999535	-0.06656816377582421	[0.55, 0.47000000000000003, -0.52, 0.44]	[1.285838976544745, -1.4008863898999535, -0.06656816377582421]																																																																															
					2022-10-15 14:17:09	1	1	915 MHz Radio	-11 db	5	Good	0	0	97613	KM6GNL	6															34.72999954223633	0.9523035883903503	-0.08411865681409836	44.82510579427083	-73.16427408854166	45.20000076293945	12.432499885559082	0.0	0.0	2022-10-15 14:17:04	0	0	0.0																																																																		
44.8250732421875	-73.16439615885416	43.900001525878906	1.0085566247224278	27.6	2022-10-15 14:17:09	1																																																																																																							
					2022-10-15 14:17:09	1	1	915 MHz Radio	-13 db	4	Good	0	0	97812	KM6GNL	6															34.7400016784668	0.8595377206802368	-0.13794824481010437	44.82510579427083	-73.16427408854166	45.20000076293945	12.431249618530273	0.0	0.0	2022-10-15 14:17:04	0	0	0.0																																																																		
					2022-10-15 14:17:09	1	1	915 MHz Radio	-16 db	4	Good	0	0	98012	KM6GNL	6	-0.009040779434144497	0.012003459967672825	-0.0007024934166111052	0.05742774158716202	0.5599204897880554	9.812965393066406	-0.05886999890208244	-0.04262999817728996	-0.09047999978065491	1.285838976544745	-1.4008863898999535	-0.06656816377582421	[0.55, 0.47000000000000003, -0.52, 0.44]	[1.285838976544745, -1.4008863898999535, -0.06656816377582421]																																																																															
					2022-10-15 14:17:09	1	1	915 MHz Radio	-15 db	4	Good	0	0	98012	KM6GNL	6															34.7400016784668	0.9278854131698608	-0.02306189574301243	44.82510579427083	-73.16427408854166	45.099998474121094	12.432499885559082	0.0	0.0	2022-10-15 14:17:04	0	0	0.0																																																																		
					2022-10-15 14:17:09	1	1	915 MHz Radio	-15 db	6	Good	0	0	98209	KM6GNL	6	0.02058609202504158	0.009071321226656437	0.013622251339256763	-0.30149564146995544	0.12203395366668701	9.942177772521973	-0.049300000071525574	-0.030160000547766685	-0.08990000188350677	1.285838976544745	-1.4008863898999535	-0.06656816377582421	[0.55, 0.47000000000000003, -0.52, 0.44]	[1.285838976544745, -1.4008863898999535, -0.06656816377582421]																																																																															
					2022-10-15 14:17:09	1	1	915 MHz Radio	-16 db	4	Good	0	0	98209	KM6GNL	6															34.75	0.8571585416793823	-0.07486768811941147	44.82510579427083	-73.16427408854166	45.099998474121094	12.432499885559082	0.0	0.0	2022-10-15 14:17:04	0	0	0.0																																																																		
					2022-10-15 14:17:09	1	1	915 MHz Radio	-17 db	5	Good	0	0	98299	KM6GNL																													[False, False, False, False, False, False]	[False, False, False, False, False, False, False, False]	3																																																															
					2022-10-15 14:17:09	1	1	915 MHz Radio	-20 db	5	Good	0	0	98299	KM6GNL																																5													1	8509420	100733	26.786861419677734	0.041840195655822754	30.8113671875	1.0141595602035522	3.899120330810547	0	724	470	2																																						
					2022-10-15 14:17:09	1	1	915 MHz Radio	-17 db	6	Good	0	0	98407	KM6GNL	6															34.75	0.7756093144416809	-0.11915207654237747	44.82510579427083	-73.16427408854166	45.099998474121094	12.426250457763672	0.0	0.0	2022-10-15 14:17:04	0	0	0.0																																																																		
					2022-10-15 14:17:09	1	1	915 MHz Radio	-16 db	5	Good	0	0	98425	KM6GNL																																																									0.9953713417053223	0.9948482513427734	0.9952553510665894	0.0	16.0																																	
					2022-10-15 14:17:09	1	1	915 MHz Radio	-16 db	4	Good	0	0	98606	KM6GNL	6	-0.01270595658570528	0.0008246666402556002	-0.02058609388768673	0.02871387079358101	0.6532405614852905	10.092926025390625	-0.03740999847650528	-0.014790000393986702	-0.06408999860286713	1.285838976544745	-1.4008863898999535	-0.06656816377582421	[0.55, 0.47000000000000003, -0.52, 0.44]	[1.285838976544745, -1.4008863898999535, -0.06656816377582421]																																																																															
					2022-10-15 14:17:10	1	1	915 MHz Radio	-15 db	5	Good	0	0	98606	KM6GNL	6															34.7599983215332	0.7863613963127136	-0.07625585794448853	44.82510579427083	-73.16427408854166	45.099998474121094	12.43375015258789	0.0	0.0	2022-10-15 14:17:04	0	0	0.0																																																																		
					2022-10-15 14:17:10	1	1	915 MHz Radio	-13 db	6	Good	0	0	98806	KM6GNL	6	-0.0026267124339938164	0.00021380337420850992	0.008735344745218754	0.11485548317432404	0.6317051649093628	9.949356079101562	-0.0313199982047081	-0.024940000846982002	-0.051330000162124634	1.285838976544745	-1.4008863898999535	-0.06656816377582421	[0.55, 0.47000000000000003, -0.52, 0.44]	[1.285838976544745, -1.4008863898999535, -0.06656816377582421]																																																																															
					2022-10-15 14:17:10	1	1	915 MHz Radio	-13 db	5	Good	0	0	98806	KM6GNL	6															34.7599983215332	0.7445245981216431	-0.08269312232732773	44.82510579427083	-73.16427408854166	45.099998474121094	12.432499885559082	0.0	0.0	2022-10-15 14:17:04	0	0	0.0																																																																		
					2022-10-15 14:17:10	1	1	915 MHz Radio	-14 db	4	Good	0	0	99003	KM6GNL	6	0.005619942210614681	0.0047952779568731785	0.005986460018903017	0.02871387079358101	0.2153540402650833	9.906285285949707	-0.03277000039815903	-0.026680000126361847	-0.05480999872088432	1.285838976544745	-1.4008863898999535	-0.06656816377582421	[0.55, 0.47000000000000003, -0.52, 0.44]	[1.285838976544745, -1.4008863898999535, -0.06656816377582421]																																																																															
					2022-10-15 14:17:10	1	1	915 MHz Radio	-14 db	3	Good	0	0	99003	KM6GNL	6															34.7599983215332	0.8304136395454407	0.030613897368311882	44.82510579427083	-73.16427408854166	45.099998474121094	12.43375015258789	0.0	0.0	2022-10-15 14:17:04	0	0	0.0																																																																		
					2022-10-15 14:17:10	1	1	915 MHz Radio	-14 db	4	Good	0	0	99202	KM6GNL	6	-0.00836883019655943	-0.0006108608213253319	-0.016615482047200203	0.014356935396790504	0.4307080805301666	9.949356079101562	-0.02116999961435795	-0.01768999919295311	-0.051330000162124634	0.7752974968121261	-1.3850570790419683	-0.0817843806179949	[0.5700000000000001, 0.42, -0.56, 0.41000000000000003]	[0.7752974968121261, -1.3850570790419683, -0.0817843806179949]																																																																															
					2022-10-15 14:17:10	1	1	915 MHz Radio	-14 db	6	Good	0	0	99202	KM6GNL	6															34.7599983215332	0.7624906301498413	-0.021776990965008736	44.82510579427083	-73.16427408854166	45.099998474121094	12.432499885559082	0.0	0.0	2022-10-15 14:17:04	0	0	0.0																																																																		
					2022-10-15 14:17:10	1	1	915 MHz Radio	-12 db	4	Good	0	0	99404	KM6GNL	6	-0.006230808794498444	-0.0003054291591979563	-0.00042760444921441376	-0.07178467512130737	0.6245266795158386	9.913463592529297	-0.012470000423491001	-0.015949999913573265	-0.03943999856710434	0.7752974968121261	-1.3850570790419683	-0.0817843806179949	[0.5700000000000001, 0.42, -0.56, 0.41000000000000003]	[0.7752974968121261, -1.3850570790419683, -0.0817843806179949]																																																																															
					2022-10-15 14:17:10	1	1	915 MHz Radio	-11 db	4	Good	0	0	99404	KM6GNL	6															34.77000045776367	0.7895359992980957	0.033176109194755554	44.82510579427083	-73.16427408854166	45.099998474121094	12.432499885559082	0.0	0.0	2022-10-15 14:17:04	0	0	0.0																																																																		
					2022-10-15 14:17:10	1	1	915 MHz Radio	-10 db	5	Good	0	0	99404	KM6GNL																													[False, False, False, False, False, False]	[False, False, False, False, False, False, False, False]	3																																																															
					2022-10-15 14:17:10	1	1	915 MHz Radio	-10 db	4	Good	0	0	99404	KM6GNL																																1	1	8519961	100677	23.188596725463867	0.2511961758136749	30.73574462890625	1.0060899257659912	3.8850440979003906	0	738	466	481																																																		
					2022-10-15 14:17:11	1	1	915 MHz Radio	-10 db	5	Good	0	0	99404	KM6GNL																																5													1	8510920	100732	26.870542526245117	0.20919930934906006	30.8133935546875	1.0135647058486938	3.913196563720703	0	724	468	2																																						
					2022-10-15 14:17:11	1	1	915 MHz Radio	-12 db	3	Good	0	0	99647	KM6GNL																																																									0.9954798817634583	0.9949469566345215	0.9952553510665894	0.0	16.0																																	
44.8250732421875	-73.16439615885416	43.900001525878906	1.006049839624969	27.55	2022-10-15 14:17:11	1																																																																																																							
					2022-10-15 14:17:11	1	1	915 MHz Radio	-13 db	4	Good	0	0	99812	KM6GNL	6	-0.00836883019655943	-0.0036651771515607834	-0.009285122156143188	0.02871387079358101	0.39481574296951294	9.920642852783203	-0.0002899999963119626	-0.008990000002086163	-0.01768999919295311	0.7752974968121261	-1.3850570790419683	-0.0817843806179949	[0.5700000000000001, 0.42, -0.56, 0.41000000000000003]	[0.7752974968121261, -1.3850570790419683, -0.0817843806179949]																																																																															
