	packetType	timestamp_ms	imu1_accel_x	imu1_accel_y	imu1_accel_z	imu1_gyro_x	imu1_gyro_y	imu1_gyro_z	imu1_mag_x	imu1_mag_y	imu1_mag_z	imu2_accel_x	imu2_accel_y	imu2_accel_z	imu2_gyro_x	imu2_gyro_y	imu2_gyro_z	imu2_mag_x	imu2_mag_y	imu2_mag_z	high_g_accel_x	high_g_accel_y	high_g_accel_z	baro1_temp	baro1_pres	baro2_temp	baro2_pres	gps_lat	gps_long	gps_alt	gps_fix_quality	gps_sats_tracked	gps_hdop	battery_voltage	pyro_cont	trigger_status	heading	vtg	pos_x	pos_y	pos_z	vel_x	vel_y	vel_z	acc_x	acc_y	acc_z	q_x	q_y	q_z	q_w	state	gps_lat_mod	gps_long_mod	imu1_accel_x_real	imu1_accel_y_real	imu1_accel_z_real	imu2_accel_x_real	imu2_accel_y_real	imu2_accel_z_real	imu1_gyro_x_real	imu1_gyro_y_real	imu1_gyro_z_real	imu2_gyro_x_real	imu2_gyro_y_real	imu2_gyro_z_real	imu1_mag_x_real	imu1_mag_y_real	imu1_mag_z_real	imu2_mag_x_real	imu2_mag_y_real	imu2_mag_z_real	imu_accel_x_avg	imu_accel_y_avg	imu_accel_z_avg	imu_gyro_x_avg	imu_gyro_y_avg	imu_gyro_z_avg	imu_mag_x_avg	imu_mag_y_avg	imu_mag_z_avg	high_g_accel_x_real	high_g_accel_y_real	high_g_accel_z_real	baro_pres_avg	baro_temp_avg
57528	0	6067966	58	1328	-82	-5	37	34	30	1337	-109	30	16	30	-826	-2009	-2272	-179	-347	-686	-96	80	480	39.05	0.9715667406859116	41.84	0.971961509992598	34.89463424682617	-86.61671447753906	240.5	2	12	0.5799999833106995	0.114501953125	0	0	0.0	0.0	0.0	0.0	-0.2091775195071362	0.0	0.0	-0.3265480126606354	0.6855436748999999	-0.3158525832	9.5653083435	-0.1970911473035812	-0.6502513289451599	-0.1796418577432632	0.7113769054412842	6	0.5815772374471029	-1.4436119079589844	0.4163511324	9.533005238400001	-0.5886343596	0.215354034	0.1148554848	0.215354034	-0.0061086523599999994	0.045204027464	0.041538836047999995	-1.009149369872	-2.454456518248	-2.775771632384	0.0174	0.77546	-0.06322	-0.10382	-0.20126	-0.39788	0.3158525832	4.8239303616	-0.1866401628	-0.507629011116	-1.204626245392	-1.3671163981680001	-0.04321	0.2871	-0.23055	-2.82432	2.3536	14.1216	0.9717641253392548	40.445
57529	0	6068071	70	1322	-84	-5	46	35	62	1334	-110	17	24	34	-818	-2015	-2263	-179	-347	-686	-112	80	544	39.04	0.9714976560572416	41.86	0.9720503330866024	34.89463424682617	-86.61671447753906	240.5	2	12	0.5799999833106995	0.114501953125	0	0	0.0	0.0	0.0	0.0	-0.2051656649495006	0.0	0.0	-0.3116154531287828	0.6963113766	-0.4737788747999999	9.5330052384	-0.1969732940196991	-0.650161862373352	-0.1795765310525894	0.7115079164505005	6	0.5815772374471029	-1.4436119079589844	0.502492746	9.4899344316	-0.6029912952	0.12203395260000001	0.1722832272	0.24406790520000002	-0.0061086523599999994	0.056199601711999995	0.042760566519999994	-0.9993755260959999	-2.46178690108	-2.764776058136	0.03596	0.77372	-0.0638	-0.10382	-0.20126	-0.39788	0.31226334930000005	4.8311088294	-0.17946169500000003	-0.5027420892279999	-1.202793649684	-1.3610077458079999	-0.03393	0.28623	-0.23084	-3.29504	2.3536	16.00448	0.9717739945719219	40.45
57530	0	6068177	60	1328	-93	-6	45	37	59	1337	-113	7	21	36	-818	-2015	-2263	-202	-350	-679	-64	-16	528	39.05	0.971458179126573	41.85	0.9718726868985936	34.89463424682617	-86.61671447753906	240.5	2	12	0.5799999833106995	0.114501953125	0	0	0.0	0.0	0.0	0.0	-0.2099631922943202	0.0	0.0	-0.3053395372484386	0.7393821834	-0.4271188340999999	9.5653083435	-0.1968362778425216	-0.6501465439796448	-0.1794666051864624	0.7115874886512756	6	0.5815772374471029	-1.4436119079589844	0.430708068	9.533005238400001	-0.6675975054000001	0.050249274600000005	0.1507478238	0.2584248408	-0.007330382832	0.05497787124	0.045204027464	-0.9993755260959999	-2.46178690108	-2.764776058136	0.03422	0.77546	-0.06554	-0.11716	-0.203	-0.39382	0.2404786713	4.8418765311000005	-0.20458633230000003	-0.503352954464	-1.20340451492	-1.359786015336	-0.04147	0.28623	-0.22968	-1.88288	-0.47072	15.533760000000001	0.9716654330125833	40.45
57531	0	6068282	61	1324	-86	-2	41	35	64	1334	-110	18	18	31	-816	-2008	-2264	-202	-350	-679	-144	48	528	39.04	0.9713298791018998	41.85	0.9720898100172712	34.89463424682617	-86.61671447753906	240.5	2	12	0.5799999833106995	0.114501953125	0	0	0.0	0.0	0.0	0.0	-0.1180216896188248	0.0	0.0	-0.2007464959783227	0.7034898444	-0.4486542375	9.5401837062	-0.1968808472156524	-0.6501680612564087	-0.1794589906930923	0.7115573883056641	6	0.5815772374471029	-1.4436119079589844	0.43788653580000003	9.5042913672	-0.6173482308	0.1292124204	0.1292124204	0.2225325018	-0.002443460944	0.050090949351999994	0.042760566519999994	-0.996932065152	-2.4532347877759997	-2.765997788608	0.03712	0.77372	-0.0638	-0.11716	-0.203	-0.39382	0.28354947810000003	4.8167518938	-0.1974078645	-0.499687763048	-1.2015719192119998	-1.3616186110439998	-0.04002	0.28535999999999995	-0.22881	-4.23648	1.41216	15.533760000000001	0.9717098445595855	40.445
57532	0	6068388	56	1328	-79	-9	41	35	68	1336	-108	34	18	33	-816	-2008	-2264	-186	-343	-677	-64	64	528	39.04	0.9713792252652356	41.87	0.9720602023192696	34.89463424682617	-86.61671447753906	240.5	2	12	0.5799999833106995	0.114501953125	0	0	0.0	0.0	0.0	0.0	-0.1206553236035725	0.0	0.0	-0.2066287451742726	0.6711867393	-0.4450650036	9.561719109599998	-0.1970539689064026	-0.650079071521759	-0.1795333921909332	0.7115720510482788	6	0.5815772374471029	-1.4436119079589844	0.40199419680000004	9.533005238400001	-0.5670989562000001	0.24406790520000002	0.1292124204	0.2368894374	-0.010995574248	0.050090949351999994	0.042760566519999994	-0.996932065152	-2.4532347877759997	-2.765997788608	0.03944	0.77488	-0.06264	-0.10788	-0.19894	-0.39266	0.323031051	4.831108829400001	-0.16510475940000002	-0.5039638196999999	-1.2015719192119998	-1.3616186110439998	-0.03422	0.28797	-0.22765000000000002	-1.88288	1.88288	15.533760000000001	0.9717197137922526	40.455
57533	0	6068493	63	1322	-81	-4	47	36	66	1339	-107	37	24	31	-828	-2025	-2292	-186	-343	-677	-144	112	640	39.05	0.9716851714779176	41.84	0.972010856155934	34.89463424682617	-86.61671447753906	240.5	2	12	0.5799999833106995	0.114501953125	0	0	0.0	0.0	0.0	0.0	-0.1575635417790592	0.0	0.0	-0.2488765692670731	0.6747759731999999	-0.4630111730999999	9.5509514079	-0.2139690667390823	-0.6471743583679199	-0.196264699101448	0.704884946346283	6	0.5815772374471029	-1.4436119079589844	0.45224347140000004	9.4899344316	-0.5814558918	0.26560330860000003	0.1722832272	0.2225325018	-0.004886921888	0.057421332183999994	0.043982296992	-1.011592830816	-2.4740042058	-2.8002062418239997	0.03828	0.77662	-0.06206	-0.10788	-0.19894	-0.39266	0.35892339000000006	4.8311088294	-0.179461695	-0.5082398763520001	-1.208291436808	-1.3781119724159998	-0.0348	0.28884	-0.22736	-4.23648	3.29504	18.8288	0.9718480138169258	40.445
57534	0	6068598	50	1332	-78	-5	46	37	23	1336	-103	22	23	33	-828	-2025	-2292	-206	-329	-697	-144	144	528	39.03	0.9714779175919072	41.84	0.9720207253886012	34.89463424682617	-86.61671447753906	240.5	2	12	0.5799999833106995	0.114501953125	0	0	0.0	0.0	0.0	0.0	-0.1082412163399946	0.0	0.0	-0.1982539468223324	0.6496513359	-0.2620140747	9.5760760452	-0.2137045115232467	-0.6471919417381287	-0.1960653960704803	0.7050045132637024	6	0.5815772374471029	-1.4436119079589844	0.35892339	9.5617191096	-0.5599204884	0.15792629160000002	0.1651047594	0.2368894374	-0.0061086523599999994	0.056199601711999995	0.045204027464	-1.011592830816	-2.4740042058	-2.8002062418239997	0.01334	0.77488	-0.05974	-0.11948	-0.19082	-0.40426	0.2584248408	4.8634119345	-0.16151552549999998	-0.508850741588	-1.208902302044	-1.3775011071799999	-0.05307	0.29203	-0.232	-4.23648	4.23648	15.533760000000001	0.9717493214902542	40.435
57535	0	6068704	61	1321	-84	-8	39	35	65	1333	-112	18	16	38	-806	-2003	-2218	-206	-329	-697	-128	96	496	39.05	0.971517394522576	41.86	0.9723168023686158	34.89463424682617	-86.61671447753906	240.5	2	12	0.5799999833106995	0.114501953125	0	0	0.0	0.0	0.0	0.0	-0.201975201706831	0.0	0.0	-0.2993694515676851	0.7034898444	-0.4522434714	9.525826770599998	-0.2138145267963409	-0.6472638845443726	-0.1960674524307251	0.7049045562744141	6	0.5815772374471029	-1.4436119079589844	0.43788653580000003	9.4827559638	-0.6029912952	0.1292124204	0.1148554848	0.2727817764	-0.009773843776	0.047647488408	0.042760566519999994	-0.9847147604319999	-2.4471261354159997	-2.7097981868959997	0.0377	0.77314	-0.06496	-0.11948	-0.19082	-0.40426	0.28354947810000003	4.7988057243	-0.16510475940000002	-0.49724430210399995	-1.199739323504	-1.3335188101879998	-0.04089	0.29116000000000003	-0.23461	-3.76576	2.82432	14.59232	0.9719170984455959	40.455
57536	0	6068809	63	1321	-80	-3	44	35	59	1336	-112	1	23	39	-806	-2003	-2218	-199	-361	-660	-80	128	592	39.05	0.97139896373057	41.86	0.9720009869232668	34.89463424682617	-86.61671447753906	240.5	2	12	0.5799999833106995	0.114501953125	0	0	0.0	0.0	0.0	0.0	-0.138245159048168	0.0	0.0	-0.2275467670773784	0.6891329088	-0.4378865358	9.5365944723	-0.2138714343309402	-0.6470522284507751	-0.1962116509675979	0.7050414681434631	6	0.5815772374471029	-1.4436119079589844	0.45224347140000004	9.4827559638	-0.574277424	0.0071784678	0.1651047594	0.2799602442	-0.003665191416	0.053756140768	0.042760566519999994	-0.9847147604319999	-2.4471261354159997	-2.7097981868959997	0.03422	0.77488	-0.06496	-0.11542	-0.20938	-0.38280000000000003	0.2297109696	4.8239303616	-0.14715858990000003	-0.49418997592399994	-1.196684997324	-1.3335188101879998	-0.0406	0.28275	-0.22388000000000002	-2.3536	3.76576	17.41664	0.9716999753269184	40.455
57537	0	6068915	60	1325	-84	-8	46	36	64	1336	-107	34	24	30	-821	-2027	-2266	-199	-361	-660	-144	64	608	39.03	0.9714285714285714	41.85	0.9720305946212682	34.89463424682617	-86.61671447753906	240.5	2	12	0.5799999833106995	0.114501953125	0	0	0.0	0.0	0.0	0.0	-0.1956308776153626	0.0	0.0	-0.2889103002813785	0.6855436748999999	-0.4450650035999999	9.5509514079	-0.2138028889894485	-0.6470862627029419	-0.1960710734128952	0.7050701975822449	6	0.5815772374471029	-1.4436119079589844	0.430708068	9.511469835	-0.6029912952	0.24406790520000002	0.1722832272	0.215354034	-0.009773843776	0.056199601711999995	0.043982296992	-1.003040717512	-2.476447666744	-2.7684412495519997	0.03712	0.77488	-0.06206	-0.11542	-0.20938	-0.38280000000000003	0.3373879866	4.8418765311	-0.19381863060000004	-0.506407280644	-1.2101240325159999	-1.3622294762799998	-0.03915	0.28275	-0.22243000000000002	-4.23648	1.88288	17.88736	0.9717295830249197	40.44
57538	0	6069020	61	1327	-84	-4	48	34	65	1338	-115	7	24	36	-821	-2027	-2266	-207	-321	-635	-32	144	576	39.05	0.9713594867999014	41.83	0.9720404638539354	34.89463424682617	-86.61671447753906	240.5	2	12	0.5799999833106995	0.114501953125	0	0	0.0	0.0	0.0	0.0	-0.1344921937200117	0.0	0.0	-0.2217654847842563	0.7142575460999999	-0.4522434714	9.5653083435	-0.2136872559785843	-0.6470010280609131	-0.1959558129310608	0.7052153944969177	6	0.5815772374471029	-1.4436119079589844	0.43788653580000003	9.5258267706	-0.6029912952	0.050249274600000005	0.1722832272	0.2584248408	-0.004886921888	0.058643062656	0.041538836047999995	-1.003040717512	-2.476447666744	-2.7684412495519997	0.0377	0.77604	-0.0667	-0.12006	-0.18618	-0.3683	0.24406790520000002	4.8490549989	-0.17228322720000003	-0.5039638197	-1.208902302044	-1.363451206752	-0.04118	0.29492999999999997	-0.2175	-0.94144	4.23648	16.94592	0.9716999753269184	40.44
57539	0	6069126	65	1323	-83	-3	37	32	64	1332	-115	13	21	36	-816	-2011	-2242	-207	-345	-687	-64	-16	544	39.05	0.971517394522576	41.85	0.972149025413274	34.89463424682617	-86.61671447753906	240.5	2	12	0.5799999833106995	0.114501953125	0	0	0.0	0.0	0.0	0.0	-0.2387880485219671	0.0	0.0	-0.3305639835794143	0.7106683121999999	-0.4630111730999999	9.5294160045	-0.2136916667222976	-0.646994411945343	-0.1959108710289001	0.7052326798439026	6	0.5815772374471029	-1.4436119079589844	0.466600407	9.497112899400001	-0.5958128274000001	0.0933200814	0.1507478238	0.2584248408	-0.003665191416	0.045204027464	0.039095375104	-0.996932065152	-2.456899979192	-2.739119718224	0.03712	0.77256	-0.0667	-0.12006	-0.2001	-0.39846	0.2799602442	4.8239303616	-0.16869399330000004	-0.500298628284	-1.205847975864	-1.35001217156	-0.04147	0.28623	-0.23257999999999998	-1.88288	-0.47072	16.00448	0.971833209967925	40.45
57540	0	6069231	69	1320	-83	-7	37	36	61	1337	-112	12	17	37	-816	-2011	-2242	-207	-345	-687	-80	80	544	39.04	0.9714384406612386	41.86	0.9718825561312608	34.89463424682617	-86.61671447753906	240.5	2	12	0.5799999833106995	0.114501953125	0	0	0.0	0.0	0.0	0.0	-0.2057611021200861	0.0	0.0	-0.283213696512658	0.6999006105	-0.4666004069999999	9.5365944723	-0.2138130366802215	-0.6469652056694031	-0.1960886418819427	0.7051733136177063	6	0.5815772374471029	-1.4436119079589844	0.4953142782	9.475577496	-0.5958128274000001	0.0861416136	0.12203395260000001	0.26560330860000003	-0.008552113303999999	0.045204027464	0.043982296992	-0.996932065152	-2.456899979192	-2.739119718224	0.03538	0.77546	-0.06496	-0.12006	-0.2001	-0.39846	0.2907279459	4.7988057243	-0.16510475940000002	-0.502742089228	-1.205847975864	-1.347568710616	-0.04234	0.28768000000000005	-0.23171	-2.3536	2.3536	16.00448	0.9716604983962498	40.45
57541	0	6069337	61	1323	-79	-9	53	33	64	1334	-115	19	26	35	-808	-2015	-2263	-210	-349	-651	-112	128	496	39.04	0.9714384406612386	41.87	0.9721687638786084	34.89463424682617	-86.61671447753906	240.3999938964844	2	12	0.5799999833106995	0.114501953125	0	0	0.0	0.0	0.0	0.0	-0.2421198238822832	0.0	0.0	-0.3163258218821059	0.6963113766	-0.4486542375	9.5365944723	-0.2137357890605926	-0.6470814943313599	-0.1958926618099212	0.705144464969635	6	0.5815772374471029	-1.4436119079589844	0.43788653580000003	9.497112899400001	-0.5670989562000001	0.1363908882	0.1866401628	0.251246373	-0.010995574248	0.064751715016	0.040317105576	-0.987158221376	-2.46178690108	-2.764776058136	0.03712	0.77372	-0.0667	-0.1218	-0.20242	-0.37758	0.287138712	4.8418765311000005	-0.15792629160000002	-0.499076897812	-1.198517593032	-1.36222947628	-0.04234	0.28564999999999996	-0.22214	-3.29504	3.76576	14.59232	0.9718036022699235	40.455
57542	0	6069442	62	1325	-81	-7	46	35	58	1339	-112	25	19	32	-808	-2015	-2263	-210	-349	-651	-48	80	544	39.04	0.9715470022205772	41.86	0.9718825561312608	34.89463424682617	-86.61671447753906	240.3999938964844	2	12	0.5799999833106995	0.114501953125	0	0	0.0	0.0	0.0	0.0	-0.2309952236078256	0.0	0.0	-0.2957278350404526	0.6927221426999999	-0.4307080679999999	9.561719109599998	-0.1383369714021682	-0.6675941348075867	-0.1282375454902649	0.7202333807945251	6	0.5815772374471029	-1.4436119079589844	0.4450650036	9.511469835	-0.5814558918	0.179461695	0.1363908882	0.2297109696	-0.008552113303999999	0.056199601711999995	0.042760566519999994	-0.987158221376	-2.46178690108	-2.764776058136	0.03364	0.77662	-0.06496	-0.1218	-0.20242	-0.37758	0.3122633493	4.8239303615999996	-0.1758724611	-0.49785516733999996	-1.202793649684	-1.3610077458079999	-0.04408	0.2871	-0.22127000000000002	-1.41216	2.3536	16.00448	0.9717147791759191	40.45
57543	0	6069548	70	1318	-96	0	37	37	16	1335	-110	39	18	34	-801	-2010	-2267	-197	-349	-667	-48	16	512	39.05	0.971349617567234	41.86	0.972326671601283	34.89463424682617	-86.61671447753906	240.3999938964844	2	12	0.5799999833106995	0.114501953125	0	0	0.0	0.0	0.0	0.0	-0.293695642519274	0.0	0.0	-0.3545887848182767	0.7393821834	-0.3086741153999999	9.5222375367	-0.1385158598423004	-0.6676312685012817	-0.1283714771270752	0.7201407551765442	6	0.5815772374471029	-1.4436119079589844	0.502492746	9.461220560400001	-0.6891329088	0.2799602442	0.1292124204	0.24406790520000002	0.0	0.045204027464	0.045204027464	-0.978606108072	-2.45567824872	-2.769662980024	0.00928	0.7743	-0.0638	-0.11426	-0.20242	-0.38686	0.3912264951	4.7952164904000005	-0.2225325018	-0.489303054036	-1.205237110628	-1.36222947628	-0.05249	0.28593999999999997	-0.22532999999999997	-1.41216	0.47072	15.06304	0.9718381445842585	40.455
57544	0	6069653	61	1329	-91	-3	49	36	69	1339	-117	27	21	34	-815	-2018	-2278	-197	-349	-667	-80	96	528	39.04	0.9714976560572416	41.83	0.9719911176905996	34.89463424682617	-86.61671447753906	240.3999938964844	2	12	0.5799999833106995	0.114501953125	0	0	0.0	0.0	0.0	0.0	-0.2870654910100614	0.0	0.0	-0.3351854384978407	0.7465606511999999	-0.4666004069999999	9.5760760452	-0.1385769844055175	-0.6676915884017944	-0.1283213943243026	0.7200819253921509	6	0.5815772374471029	-1.4436119079589844	0.43788653580000003	9.5401837062	-0.6532405698	0.1938186306	0.1507478238	0.24406790520000002	-0.003665191416	0.059864793128	0.043982296992	-0.9957103346799999	-2.4654520924959997	-2.783102015216	0.04002	0.77662	-0.06786	-0.11426	-0.20242	-0.38686	0.31585258320000004	4.845465765	-0.2045863323	-0.49968776304799994	-1.202793649684	-1.369559859112	-0.03712	0.2871	-0.22736	-2.3536	2.82432	15.533760000000001	0.9717443868739206	40.435
57545	0	6069758	62	1328	-79	-4	45	36	59	1335	-111	11	24	35	-815	-2018	-2278	-204	-363	-622	-96	64	576	39.05	0.9717443868739204	41.85	0.972079940784604	34.89463424682617	-86.61671447753906	240.3999938964844	2	12	0.5799999833106995	0.114501953125	0	0	0.0	0.0	0.0	0.0	-0.3385168002367754	0.0	0.0	-0.3773564428395751	0.681954441	-0.4342973018999999	9.5581298757	-0.1385528445243835	-0.6677546501159668	-0.1282706260681152	0.7200371623039246	6	0.5815772374471029	-1.4436119079589844	0.4450650036	9.533005238400001	-0.5670989562000001	0.07896314580000001	0.1722832272	0.251246373	-0.004886921888	0.05497787124	0.043982296992	-0.9957103346799999	-2.4654520924959997	-2.783102015216	0.03422	0.7743	-0.06438	-0.11832	-0.21054	-0.36076	0.2620140747	4.8526442328	-0.15792629160000002	-0.500298628284	-1.2052371106279998	-1.369559859112	-0.04205	0.28188	-0.21257	-2.82432	1.88288	16.94592	0.9719121638292623	40.45
57546	0	6069864	65	1320	-87	-6	44	36	60	1336	-111	35	22	31	-820	-2012	-2247	-204	-363	-622	-80	96	560	39.05	0.9715667406859116	41.84	0.9719121638292624	34.89463424682617	-86.61671447753906	240.3999938964844	2	12	0.5799999833106995	0.114501953125	0	0	0.0	0.0	0.0	0.0	-0.1978393080563294	0.0	0.0	-0.2159200077943892	0.7106683121999999	-0.4486542374999999	9.5330052384	-0.1384462118148803	-0.6677135825157166	-0.1282030493021011	0.7201077938079834	6	0.5815772374471029	-1.4436119079589844	0.466600407	9.475577496	-0.6245266986	0.251246373	0.15792629160000002	0.2225325018	-0.007330382832	0.053756140768	0.043982296992	-1.00181898704	-2.458121709664	-2.745228370584	0.0348	0.77488	-0.06438	-0.11832	-0.21054	-0.36076	0.35892339	4.8167518938	-0.2009970984	-0.504574684936	-1.202182784448	-1.350623036796	-0.04176	0.28217000000000003	-0.21257	-2.3536	2.82432	16.4752	0.9717394522575871	40.445
57547	0	6069969	61	1323	-86	-4	42	34	61	1338	-115	30	17	30	-820	-2012	-2247	-223	-347	-663	-128	80	512	39.04	0.9714483098939056	41.86	0.9721095484826054	34.89463424682617	-86.61671447753906	240.3999938964844	2	12	0.5799999833106995	0.114501953125	0	0	0.0	0.0	0.0	0.0	-0.2191218791959125	0.0	0.0	-0.2425091654414881	0.7214360138999999	-0.4378865358	9.5509514079	-0.1385119408369064	-0.6677564978599548	-0.1281877160072326	0.7200581431388855	6	0.5815772374471029	-1.4436119079589844	0.43788653580000003	9.497112899400001	-0.6173482308	0.215354034	0.12203395260000001	0.215354034	-0.004886921888	0.051312679824	0.041538836047999995	-1.00181898704	-2.458121709664	-2.745228370584	0.03538	0.77604	-0.0667	-0.12934	-0.20126	-0.38454	0.3266202849	4.809573426000001	-0.20099709840000002	-0.5033529544640001	-1.20340451492	-1.351844767268	-0.04698000000000001	0.28739	-0.22562	-3.76576	2.3536	15.06304	0.9717789291882555	40.45
57548	0	6070075	63	1321	-82	-10	40	35	63	1335	-111	31	21	34	-838	-2013	-2249	-223	-347	-663	-64	16	576	39.05	0.971517394522576	41.86	0.972208240809277	34.89463424682617	-86.61671447753906	240.3999938964844	2	12	0.5799999833106995	0.114501953125	0	0	0.0	0.0	0.0	0.0	-0.2437012646278419	0.0	0.0	-0.2670729001177441	0.6927221427	-0.4522434714	9.5330052384	-0.1387409269809723	-0.6676787734031677	-0.1283801794052124	0.7200518250465393	6	0.5815772374471029	-1.4436119079589844	0.45224347140000004	9.4827559638	-0.5886343596	0.2225325018	0.1507478238	0.24406790520000002	-0.012217304719999999	0.048869218879999995	0.042760566519999994	-1.0238101355359999	-2.4593434401359997	-2.7476718315279998	0.03654	0.7743	-0.06438	-0.12934	-0.20126	-0.38454	0.3373879866	4.8167518938	-0.1722832272	-0.518013720128	-1.2052371106279998	-1.3524556325039998	-0.046400000000000004	0.28652	-0.22446	-1.88288	0.47072	16.94592	0.9718628176659265	40.455
57549	0	6070180	62	1319	-86	-7	48	37	64	1339	-107	20	24	30	-838	-2013	-2249	-230	-348	-657	-96	96	704	39.05	0.9715766099185787	41.84	0.9720207253886012	34.89463424682617	-86.61671447753906	240.3999938964844	2	12	0.5799999833106995	0.114501953125	0	0	0.0	0.0	0.0	0.0	-0.2181902891601033	0.0	0.0	-0.2380347812619507	0.6927221426999999	-0.4522434714	9.5401837062	-0.1385677456855774	-0.6677102446556091	-0.1281990259885788	0.7200882434844971	6	0.5815772374471029	-1.4436119079589844	0.4450650036	9.4683990282	-0.6173482308	0.143569356	0.1722832272	0.215354034	-0.008552113303999999	0.058643062656	0.045204027464	-1.0238101355359999	-2.4593434401359997	-2.7476718315279998	0.03712	0.77662	-0.06206	-0.1334	-0.20184	-0.38106	0.2943171798	4.8203411277	-0.20099709840000002	-0.51618112442	-1.2003501887399999	-1.351233902032	-0.048139999999999995	0.28739	-0.22156	-2.82432	2.82432	20.71168	0.9717986676535899	40.445
57550	0	6070286	61	1324	-79	-6	39	35	61	1332	-116	33	19	30	-823	-2019	-2288	-230	-348	-657	-80	-16	528	39.04	0.9715568714532444	41.85	0.9719220330619296	34.89463424682617	-86.61671447753906	240.3000030517578	2	12	0.5799999833106995	0.114501953125	0	0	0.0	0.0	0.0	0.0	-0.237798762442173	0.0	0.0	-0.2575366658717984	0.6999006105	-0.4378865358	9.533005238399998	-0.1384736448526382	-0.6676697731018066	-0.128111258149147	0.7201594710350037	6	0.5815772374471029	-1.4436119079589844	0.43788653580000003	9.5042913672	-0.5670989562000001	0.2368894374	0.1363908882	0.215354034	-0.007330382832	0.047647488408	0.042760566519999994	-1.005484178456	-2.4666738229679996	-2.795319319936	0.03538	0.77256	-0.06728	-0.1334	-0.20184	-0.38106	0.3373879866	4.8203411277	-0.17587246110000004	-0.506407280644	-1.20951316728	-1.376279376708	-0.04901	0.28536	-0.22417	-2.3536	-0.47072	15.533760000000001	0.9717394522575871	40.445
57551	0	6070391	61	1330	-80	-7	40	36	65	1338	-111	35	17	36	-823	-2019	-2288	-216	-354	-645	-160	128	496	39.04	0.9714483098939056	41.84	0.9720700715519368	34.89463424682617	-86.61671447753906	240.3000030517578	2	12	0.5799999833106995	0.114501953125	0	0	0.0	0.0	0.0	0.0	-0.2045182332318071	0.0	0.0	-0.2225038652087581	0.6855436748999999	-0.4522434714	9.5760760452	-0.1386540085077285	-0.6675839424133301	-0.1282767355442047	0.7201749086380005	6	0.5815772374471029	-1.4436119079589844	0.43788653580000003	9.547362174	-0.574277424	0.251246373	0.12203395260000001	0.2584248408	-0.008552113303999999	0.048869218879999995	0.043982296992	-1.005484178456	-2.4666738229679996	-2.795319319936	0.0377	0.77604	-0.06438	-0.12528	-0.20532	-0.3741	0.3445664544	4.8346980633	-0.15792629160000002	-0.50701814588	-1.2089023020439997	-1.375668511472	-0.04379	0.28535999999999995	-0.21924	-4.7072	3.76576	14.59232	0.9717591907229213	40.44
57552	0	6070497	68	1321	-80	-5	46	35	63	1340	-114	35	22	35	-804	-2049	-2263	-216	-354	-645	-96	96	576	39.05	0.97146804835924	41.86	0.9719911176905996	34.89463424682617	-86.61671447753906	240.3000030517578	2	12	0.5799999833106995	0.114501953125	0	0	0.0	0.0	0.0	0.0	-0.169682096725908	0.0	0.0	-0.1884937837177674	0.6963113766	-0.4701896409	9.5509514079	-0.2160523980855941	-0.6465164422988892	-0.1982705742120742	0.7042916417121887	6	0.5815772374471029	-1.4436119079589844	0.48813581040000004	9.4827559638	-0.574277424	0.251246373	0.15792629160000002	0.251246373	-0.0061086523599999994	0.056199601711999995	0.042760566519999994	-0.982271299488	-2.5033257371279998	-2.764776058136	0.03654	0.7772	-0.06612	-0.12528	-0.20532	-0.3741	0.36969109170000003	4.820341127700001	-0.1615155255	-0.494189975924	-1.2235630677079998	-1.3610077458079999	-0.04437	0.28593999999999997	-0.22011	-2.82432	2.82432	16.94592	0.9717295830249199	40.455
57553	0	6070602	63	1325	-85	-4	45	32	62	1330	-112	37	20	30	-804	-2049	-2263	-197	-349	-660	-96	32	608	39.05	0.971349617567234	41.85	0.9719220330619296	34.89463424682617	-86.61671447753906	240.3000030517578	2	12	0.5799999833106995	0.114501953125	0	0	0.0	0.0	0.0	0.0	-0.0125234474230827	0.0	0.0	-0.0310475100607552	0.7070790782999999	-0.4486542375	9.5294160045	-0.2160405069589615	-0.6465223431587219	-0.198146179318428	0.7043248414993286	6	0.5815772374471029	-1.4436119079589844	0.45224347140000004	9.511469835	-0.610169763	0.26560330860000003	0.143569356	0.215354034	-0.004886921888	0.05497787124	0.039095375104	-0.982271299488	-2.5033257371279998	-2.764776058136	0.03596	0.7714	-0.06496	-0.11426	-0.20242	-0.38280000000000003	0.35892339000000006	4.8275195955	-0.19740786450000003	-0.493579110688	-1.2241739329439998	-1.362840341516	-0.039150000000000004	0.28449	-0.22388000000000002	-2.82432	0.94144	17.88736	0.9716358253145818	40.45
57554	0	6070707	61	1324	-83	-7	43	33	67	1340	-116	33	25	31	-834	-2007	-2264	-197	-349	-660	-128	48	528	39.06	0.9714779175919072	41.86	0.9721588946459412	34.89463424682617	-86.61671447753906	240.3000030517578	2	12	0.5799999833106995	0.114501953125	0	0	0.0	0.0	0.0	0.0	-0.0159265386197584	0.0	0.0	-0.0608694363659979	0.7142575461	-0.4594219391999999	9.561719109599998	-0.215957298874855	-0.6466293334960938	-0.197944089770317	0.7043089866638184	6	0.5815772374471029	-1.4436119079589844	0.43788653580000003	9.5042913672	-0.5958128274000001	0.2368894374	0.179461695	0.2225325018	-0.008552113303999999	0.052534410296	0.040317105576	-1.018923213648	-2.4520130573039998	-2.765997788608	0.03886	0.7772	-0.06728	-0.11426	-0.20242	-0.38280000000000003	0.3373879866	4.8418765311000005	-0.18664016280000004	-0.513737663476	-1.199739323504	-1.362840341516	-0.0377	0.28739000000000003	-0.22504000000000002	-3.76576	1.41216	15.533760000000001	0.9718184061189241	40.46
57555	0	6070813	61	1328	-82	-4	37	33	62	1339	-109	23	17	41	-834	-2007	-2264	-215	-347	-674	-64	64	608	39.04	0.9715470022205772	41.85	0.9720305946212682	34.89463424682617	-86.61671447753906	240.3000030517578	2	12	0.5799999833106995	0.081787109375	0	0	0.0	0.0	0.0	0.0	-0.0248370000719866	0.0	0.0	-0.0913399329951378	0.6855436748999999	-0.4414757696999999	9.5724868113	-0.2160765528678894	-0.6466289162635803	-0.198026567697525	0.7042496204376221	6	0.5815772374471029	-1.4436119079589844	0.43788653580000003	9.533005238400001	-0.5886343596	0.1651047594	0.12203395260000001	0.2943171798	-0.004886921888	0.045204027464	0.040317105576	-1.018923213648	-2.4520130573039998	-2.765997788608	0.03596	0.77662	-0.06322	-0.1247	-0.20126	-0.39092	0.3014956476	4.827519595500001	-0.1471585899	-0.511905067768	-1.20340451492	-1.362840341516	-0.04437000000000001	0.28768	-0.22707	-1.88288	1.88288	17.88736	0.9717887984209227	40.445
57556	0	6070918	62	1325	-83	-6	45	35	68	1335	-113	15	22	40	-825	-2025	-2244	-215	-347	-674	-144	128	512	39.07	0.9715470022205772	41.86	0.9720503330866024	34.89463424682617	-86.61671447753906	240.3000030517578	2	12	0.5799999833106995	0.114501953125	0	0	0.0	0.0	0.0	0.0	-0.1619949836080577	0.0	0.0	-0.2475376825905174	0.7034898444	-0.4666004069999999	9.547362174	-0.2161039263010025	-0.646536111831665	-0.1980926245450973	0.7043077945709229	6	0.5815772374471029	-1.4436119079589844	0.4450650036	9.511469835	-0.5958128274000001	0.107677017	0.15792629160000002	0.287138712	-0.007330382832	0.05497787124	0.042760566519999994	-1.0079276393999999	-2.4740042058	-2.7415631791679997	0.03944	0.7743	-0.06554	-0.1247	-0.20126	-0.39092	0.2763710103	4.8346980633	-0.15433705770000003	-0.5076290111159999	-1.20951316728	-1.3494013063239998	-0.04263	0.28652	-0.22823	-4.23648	3.76576	15.06304	0.9717986676535898	40.465
57557	0	6071024	62	1323	-84	-5	48	32	61	1338	-112	5	26	37	-825	-2025	-2244	-207	-351	-671	-96	48	560	39.06	0.9714877868245744	41.85	0.9721885023439428	34.89463424682617	-86.61671447753906	240.3000030517578	2	12	0.5799999833106995	0.114501953125	0	0	0.0	0.0	0.0	0.0	-0.1924682778722152	0.0	0.0	-0.2767747387209174	0.7034898444	-0.4414757696999999	9.5509514079	-0.2158360928297042	-0.6465712785720825	-0.1978520005941391	0.7044253349304199	6	0.5815772374471029	-1.4436119079589844	0.4450650036	9.497112899400001	-0.6029912952	0.035892339	0.1866401628	0.26560330860000003	-0.0061086523599999994	0.058643062656	0.039095375104	-1.0079276393999999	-2.4740042058	-2.7415631791679997	0.03538	0.77604	-0.06496	-0.12006	-0.20358	-0.38918	0.2404786713	4.8418765311000005	-0.1686939933	-0.5070181458799999	-1.207680571572	-1.351233902032	-0.04234	0.28623	-0.22707000000000002	-2.82432	1.41216	16.4752	0.9718381445842585	40.455
57558	0	6071129	50	1332	-72	-7	42	37	48	1340	-119	26	16	32	-824	-2012	-2281	-207	-351	-671	-128	128	544	39.05	0.971458179126573	41.87	0.9722279792746114	34.89463424682617	-86.61671447753906	240.3000030517578	2	12	0.5799999833106995	0.114501953125	0	0	0.0	0.0	0.0	0.0	-0.2615033662642757	0.0	0.0	-0.3438280503228789	0.6855436748999999	-0.3517449222	9.5904329808	-0.2158069163560867	-0.6465363502502441	-0.1978501379489898	0.7044668197631836	6	0.5815772374471029	-1.4436119079589844	0.35892339	9.5617191096	-0.5168496816	0.1866401628	0.1148554848	0.2297109696	-0.008552113303999999	0.051312679824	0.045204027464	-1.006705908928	-2.458121709664	-2.7867672066319997	0.02784	0.7772	-0.06902	-0.12006	-0.20358	-0.38918	0.2727817764	4.8382872972	-0.14356935599999998	-0.507629011116	-1.20340451492	-1.3707815895839999	-0.04611	0.28681	-0.22910000000000003	-3.76576	3.76576	16.00448	0.9718430792005921	40.459999999999994
57559	0	6071235	60	1328	-83	-6	44	33	64	1338	-104	7	18	35	-824	-2012	-2281	-221	-334	-699	-144	96	640	39.05	0.97139896373057	41.86	0.9719911176905996	34.89463424682617	-86.61671447753906	240.3000030517578	2	12	0.5799999833106995	0.114501953125	0	0	0.0	0.0	0.0	0.0	-0.1324539771223724	0.0	0.0	-0.1963115395738305	0.6711867393	-0.4450650035999999	9.5688975774	-0.2158808708190918	-0.6464402079582214	-0.1979237049818039	0.7045117020606995	6	0.5815772374471029	-1.4436119079589844	0.430708068	9.533005238400001	-0.5958128274000001	0.050249274600000005	0.1292124204	0.251246373	-0.007330382832	0.053756140768	0.040317105576	-1.006705908928	-2.458121709664	-2.7867672066319997	0.03712	0.77604	-0.06032	-0.12818	-0.19372	-0.40542	0.2404786713	4.831108829400001	-0.17228322720000003	-0.5070181458799999	-1.202182784448	-1.373225050528	-0.045529999999999994	0.29116	-0.23287	-4.23648	2.82432	18.8288	0.9716950407105849	40.455
57560	0	6071340	61	1319	-86	-6	39	35	65	1333	-113	8	21	38	-800	-1992	-2299	-221	-334	-699	-96	112	432	39.06	0.971527263755243	41.87	0.9721687638786084	34.89463424682617	-86.61672973632812	240.1999969482422	2	12	0.5799999833106995	0.114501953125	0	0	0.0	0.0	0.0	0.0	-0.2151720181689469	0.0	0.0	-0.2873161320474669	0.7142575460999999	-0.4522434714	9.5186483028	-0.2159612327814102	-0.6464595198631287	-0.1978995651006698	0.7044761180877686	6	0.5815772374471029	-1.4436121622721354	0.43788653580000003	9.4683990282	-0.6173482308	0.0574277424	0.1507478238	0.2727817764	-0.007330382832	0.047647488408	0.042760566519999994	-0.9773843776	-2.4336871002239997	-2.808758355128	0.0377	0.77314	-0.06554	-0.12818	-0.19372	-0.40542	0.2476571391	4.809573426	-0.1722832272	-0.492357380216	-1.193019805908	-1.382998894304	-0.045239999999999995	0.28971	-0.23548	-2.82432	3.29504	12.70944	0.9718480138169256	40.465
57561	0	6071446	55	1326	-80	-8	45	34	62	1341	-115	35	21	37	-796	-2020	-2213	-195	-323	-666	-160	-16	496	39.05	0.971517394522576	41.85	0.9719713792252652	34.89463424682617	-86.61672973632812	240.1999969482422	2	12	0.5799999833106995	0.114501953125	0	0	0.0	0.0	0.0	0.0	-0.0728577758724392	0.0	0.0	-0.1365730761655651	0.6999006104999999	-0.4199403663	9.5724868113	-0.2116563320159912	-0.6480565667152405	-0.1944479197263717	0.7052761316299438	6	0.5815772374471029	-1.4436121622721354	0.394815729	9.5186483028	-0.574277424	0.251246373	0.1507478238	0.26560330860000003	-0.009773843776	0.05497787124	0.041538836047999995	-0.972497455712	-2.46789555344	-2.7036895345359997	0.03596	0.77778	-0.0667	-0.1131	-0.18734	-0.38628	0.323031051	4.8346980633	-0.1543370577	-0.491135649744	-1.2064588411	-1.331075349244	-0.03857000000000001	0.29522000000000004	-0.22649	-4.7072	-0.47072	14.59232	0.9717443868739206	40.45
57562	0	6071551	64	1321	-88	-7	44	35	67	1338	-116	29	21	35	-796	-2020	-2213	-195	-323	-666	-144	96	496	39.05	0.9716358253145818	41.86	0.9719417715272638	34.89463424682617	-86.61672973632812	240.1999969482422	2	12	0.5799999833106995	0.114501953125	0	0	0.0	0.0	0.0	0.0	-0.0669232755223169	0.0	0.0	-0.1429159520325451	0.7322037156	-0.4701896408999999	9.543772940099998	-0.2115930020809173	-0.6481156349182129	-0.194324254989624	0.7052748799324036	6	0.5815772374471029	-1.4436121622721354	0.4594219392	9.4827559638	-0.6317051664000001	0.2081755662	0.1507478238	0.251246373	-0.008552113303999999	0.053756140768	0.042760566519999994	-0.972497455712	-2.46789555344	-2.7036895345359997	0.03886	0.77604	-0.06728	-0.1131	-0.18734	-0.38628	0.33379875270000003	4.8167518938	-0.19022939670000003	-0.49052478450799997	-1.207069706336	-1.3304644840079998	-0.03712	0.29435	-0.22678	-4.23648	2.82432	14.59232	0.9717887984209228	40.455
57563	0	6071656	62	1322	-87	-13	39	35	62	1337	-110	0	17	33	-819	-2015	-2254	-233	-348	-652	-144	96	528	39.06	0.971527263755243	41.85	0.9719220330619296	34.89463424682617	-86.61672973632812	240.1999969482422	2	12	0.5799999833106995	0.114501953125	0	0	0.0	0.0	0.0	0.0	-0.0833806073055487	0.0	0.0	-0.1715898439025717	0.7070790782999999	-0.4450650035999999	9.543772940099998	-0.2117121070623397	-0.6480167508125305	-0.1944236159324646	0.7053026556968689	6	0.5815772374471029	-1.4436121622721354	0.4450650036	9.4899344316	-0.6245266986	0.0	0.12203395260000001	0.2368894374	-0.015882496136	0.047647488408	0.042760566519999994	-1.000597256568	-2.46178690108	-2.753780483888	0.03596	0.77546	-0.0638	-0.13514	-0.20184	-0.37816	0.2225325018	4.8059841921	-0.19381863059999999	-0.508239876352	-1.207069706336	-1.3555099586839998	-0.04959000000000001	0.28681	-0.22098	-4.23648	2.82432	15.533760000000001	0.9717246484085863	40.455
57564	0	6071762	61	1321	-79	-5	43	34	68	1336	-116	5	27	38	-819	-2015	-2254	-233	-348	-652	-144	128	544	39.05	0.97146804835924	41.87	0.9722279792746114	34.89463424682617	-86.61672973632812	240.1999969482422	2	12	0.5799999833106995	0.114501953125	0	0	0.0	0.0	0.0	0.0	-0.1022148991220155	0.0	0.0	-0.199510812808817	0.6999006105	-0.4630111730999999	9.5365944723	-0.211736723780632	-0.6480538845062256	-0.194470077753067	0.7052482962608337	6	0.5815772374471029	-1.4436121622721354	0.43788653580000003	9.4827559638	-0.5670989562000001	0.035892339	0.1938186306	0.2727817764	-0.0061086523599999994	0.052534410296	0.041538836047999995	-1.000597256568	-2.46178690108	-2.753780483888	0.03944	0.77488	-0.06728	-0.13514	-0.20184	-0.37816	0.2368894374	4.8382872972	-0.14715858990000003	-0.503352954464	-1.204626245392	-1.35612082392	-0.047850000000000004	0.28652	-0.22272	-4.23648	3.76576	16.00448	0.9718480138169256	40.459999999999994
57565	0	6071867	62	1320	-90	-7	44	31	60	1336	-117	36	23	32	-814	-2007	-2286	-224	-353	-662	-96	48	640	39.06	0.9714187021959044	41.86	0.9721588946459412	34.89463424682617	-86.61672973632812	240.1999969482422	2	12	0.5799999833106995	0.114501953125	0	0	0.0	0.0	0.0	0.0	-0.0661761383807813	0.0	0.0	-0.1678401019796132	0.7429714172999999	-0.4378865357999999	9.5330052384	-0.2115026414394378	-0.6479743123054504	-0.1943635940551757	0.7054210305213928	6	0.5815772374471029	-1.4436121622721354	0.4450650036	9.475577496	-0.646062102	0.2584248408	0.1651047594	0.2297109696	-0.008552113303999999	0.053756140768	0.037873644632	-0.9944886042079999	-2.4520130573039998	-2.7928758589919997	0.0348	0.77488	-0.06786	-0.12992	-0.20474	-0.38396	0.3517449222	4.8203411277	-0.2081755662	-0.501520358756	-1.199128458268	-1.3775011071799999	-0.047560000000000005	0.28507	-0.22591	-2.82432	1.41216	18.8288	0.9717887984209228	40.46
57566	0	6071973	65	1319	-89	-6	41	37	65	1339	-111	38	18	31	-814	-2007	-2286	-224	-353	-662	-128	64	624	39.05	0.971458179126573	41.87	0.9721687638786084	34.89463424682617	-86.61672973632812	240.1999969482422	2	12	0.5799999833106995	0.114501953125	0	0	0.0	0.0	0.0	0.0	-0.2061160613394367	0.0	0.0	-0.3184597634024619	0.7178467799999999	-0.4666004069999999	9.5401837062	-0.2114693820476532	-0.6480372548103333	-0.19446662068367	0.7053447365760803	6	0.5815772374471029	-1.4436121622721354	0.466600407	9.4683990282	-0.6388836342	0.2727817764	0.1292124204	0.2225325018	-0.007330382832	0.050090949351999994	0.045204027464	-0.9944886042079999	-2.4520130573039998	-2.7928758589919997	0.0377	0.77662	-0.06438	-0.12992	-0.20474	-0.38396	0.36969109170000003	4.7988057243	-0.20817556620000002	-0.5009094935199999	-1.2009610539759998	-1.3738359157639999	-0.046110000000000005	0.28593999999999997	-0.22417	-3.76576	1.88288	18.35808	0.9718134715025907	40.459999999999994
57567	0	6072078	66	1322	-86	-3	40	34	64	1337	-111	8	21	39	-796	-2006	-2282	-199	-338	-649	-32	160	528	39.06	0.9714285714285714	41.87	0.9720602023192696	34.89463424682617	-86.61672973632812	240.1999969482422	2	12	0.5799999833106995	0.114501953125	0	0	0.0	0.0	0.0	0.0	-0.2039500948679189	0.0	0.0	-0.307343245762749	0.7070790782999999	-0.4666004069999999	9.543772940099998	-0.2114784866571426	-0.6479049324989319	-0.1945882588624954	0.7054300904273987	6	0.5815772374471029	-1.4436121622721354	0.4737788748	9.4899344316	-0.6173482308	0.0574277424	0.1507478238	0.2799602442	-0.003665191416	0.048869218879999995	0.041538836047999995	-0.972497455712	-2.450791326832	-2.7879889371039996	0.03712	0.77546	-0.06438	-0.11542	-0.19604	-0.37642	0.26560330860000003	4.8203411277	-0.1686939933	-0.48808132356399997	-1.2009610539759998	-1.373225050528	-0.03915	0.28971	-0.22039999999999998	-0.94144	4.7072	15.533760000000001	0.9717443868739205	40.465
57568	0	6072184	63	1323	-85	-9	44	35	64	1337	-107	7	23	41	-796	-2006	-2282	-199	-338	-649	-240	96	576	39.06	0.9718628176659264	41.85	0.972149025413274	34.89463424682617	-86.61672973632812	240.1999969482422	2	12	0.5799999833106995	0.114501953125	0	0	0.0	0.0	0.0	0.0	-0.3134810526878894	0.0	0.0	-0.4199213132029363	0.6891329088	-0.4558327053	9.547362174	-0.2114799171686172	-0.6478933095932007	-0.1946599036455154	0.7054205536842346	6	0.5815772374471029	-1.4436121622721354	0.45224347140000004	9.497112899400001	-0.610169763	0.050249274600000005	0.1651047594	0.2943171798	-0.010995574248	0.053756140768	0.042760566519999994	-0.972497455712	-2.450791326832	-2.7879889371039996	0.03712	0.77546	-0.06206	-0.11542	-0.19604	-0.37642	0.251246373	4.831108829400001	-0.15792629160000002	-0.49174651498	-1.198517593032	-1.3726141852919997	-0.03915	0.28971	-0.21924	-7.0608	2.82432	16.94592	0.9720059215396002	40.455
57569	0	6072289	66	1317	-87	-6	48	35	62	1333	-115	9	21	34	-831	-2013	-2287	-220	-327	-657	-144	48	512	39.04	0.9716654330125832	41.87	0.9720207253886012	34.89463424682617	-86.61672973632812	240.1999969482422	2	12	0.5799999833106995	0.114501953125	0	0	0.0	0.0	0.0	0.0	-0.3431406627088195	0.0	0.0	-0.4307177687585256	0.7250252477999999	-0.4594219391999999	9.511469835	-0.2113229781389236	-0.6479419469833374	-0.1945473551750183	0.7054538726806641	6	0.5815772374471029	-1.4436121622721354	0.4737788748	9.4540420926	-0.6245266986	0.0646062102	0.1507478238	0.24406790520000002	-0.007330382832	0.058643062656	0.042760566519999994	-1.015258022232	-2.4593434401359997	-2.7940975894639997	0.03596	0.77314	-0.0667	-0.1276	-0.18966	-0.38106	0.2691925425	4.8023949582	-0.1902293967	-0.511294202532	-1.2003501887399999	-1.3756685114719998	-0.04582	0.29174	-0.22388	-4.23648	1.41216	15.06304	0.9718430792005922	40.455
57570	0	6072395	60	1317	-85	-8	40	36	62	1337	-112	14	22	41	-831	-2013	-2287	-220	-327	-657	-64	96	608	39.06	0.9716456945472488	41.86	0.972149025413274	34.89463424682617	-86.61672973632812	240.1999969482422	2	12	0.5799999833106995	0.081787109375	0	0	0.0	0.0	0.0	0.0	-0.3414215222929579	0.0	0.0	-0.4089788921728474	0.7070790782999999	-0.4378865357999999	9.525826770599998	-0.2112831026315689	-0.647944986820221	-0.194573312997818	0.7054558396339417	6	0.5815772374471029	-1.4436121622721354	0.430708068	9.4540420926	-0.610169763	0.10049854920000001	0.15792629160000002	0.2943171798	-0.009773843776	0.048869218879999995	0.043982296992	-1.015258022232	-2.4593434401359997	-2.7940975894639997	0.03596	0.77546	-0.06496	-0.1276	-0.18966	-0.38106	0.26560330860000003	4.8059841921	-0.15792629160000002	-0.512515933004	-1.2052371106279998	-1.3750576462359998	-0.04582	0.29290000000000005	-0.22301	-1.88288	2.82432	17.88736	0.9718973599802614	40.46
57571	0	6072500	61	1329	-77	-4	40	35	66	1341	-111	10	18	38	-835	-2003	-2229	-222	-342	-656	-48	16	512	39.05	0.971458179126573	41.87	0.9719516407599308	34.89463424682617	-86.61672973632812	240.1999969482422	2	12	0.5799999833106995	0.081787109375	0	0	0.0	0.0	0.0	0.0	-0.2920678121345967	0.0	0.0	-0.3438533418325202	0.6747759732	-0.4558327053	9.583254513	-0.1552954465150833	-0.6653056144714355	-0.1443438231945037	0.7158327698707581	6	0.5815772374471029	-1.4436121622721354	0.43788653580000003	9.5401837062	-0.5527420206	0.071784678	0.1292124204	0.2727817764	-0.004886921888	0.048869218879999995	0.042760566519999994	-1.02014494412	-2.4471261354159997	-2.7232372220879997	0.03828	0.77778	-0.06438	-0.12876	-0.19836	-0.38048	0.2548356069	4.8346980633	-0.1399801221	-0.512515933004	-1.1991284582679997	-1.3402383277839998	-0.04524	0.28971	-0.22243	-1.41216	0.47072	15.06304	0.9717049099432519	40.459999999999994
57572	0	6072605	61	1318	-82	-5	45	36	64	1340	-114	34	23	31	-835	-2003	-2229	-222	-342	-656	-160	192	592	39.06	0.971527263755243	41.87	0.9721292869479398	34.89463424682617	-86.61672973632812	240.1999969482422	2	12	0.5799999833106995	0.114501953125	0	0	0.0	0.0	0.0	0.0	-0.328891699737781	0.0	0.0	-0.3697176918339719	0.7034898444	-0.4486542375	9.5401837062	-0.1550946086645126	-0.6651666760444641	-0.1443000733852386	0.7160142660140991	6	0.5815772374471029	-1.4436121622721354	0.43788653580000003	9.461220560400001	-0.5886343596	0.24406790520000002	0.1651047594	0.2225325018	-0.0061086523599999994	0.05497787124	0.043982296992	-1.02014494412	-2.4471261354159997	-2.7232372220879997	0.03712	0.7772	-0.06612	-0.12876	-0.19836	-0.38048	0.3409772205	4.813162659900001	-0.1830509289	-0.51312679824	-1.1960741320879997	-1.3396274625479998	-0.04582000000000001	0.28942	-0.2233	-4.7072	5.64864	17.41664	0.9718282753515914	40.465
57573	0	6072711	63	1326	-86	-5	44	37	65	1330	-120	37	21	35	-817	-2005	-2309	-212	-324	-639	-208	128	528	39.05	0.971349617567234	41.88	0.9722477177399456	34.89463424682617	-86.61672973632812	240.1999969482422	2	12	0.5799999833106995	0.114501953125	0	0	0.0	0.0	0.0	0.0	-0.2878069000981718	0.0	0.0	-0.3146640597449052	0.7393821833999998	-0.4594219391999999	9.5330052384	-0.1548184752464294	-0.6650676131248474	-0.1442321091890335	0.7161797881126404	6	0.5815772374471029	-1.4436121622721354	0.45224347140000004	9.5186483028	-0.6173482308	0.26560330860000003	0.1507478238	0.251246373	-0.0061086523599999994	0.053756140768	0.045204027464	-0.998153795624	-2.44956959636	-2.820975659848	0.0377	0.7714	-0.0696	-0.12296	-0.18792	-0.37062	0.35892339000000006	4.8346980633	-0.1830509289	-0.5021312239919999	-1.197906727796	-1.387885816192	-0.04263	0.29174	-0.22011	-6.11936	3.76576	15.533760000000001	0.9717986676535898	40.465
57574	0	6072816	65	1326	-80	-3	42	33	64	1337	-109	40	19	33	-817	-2005	-2309	-212	-324	-639	-80	48	512	39.06	0.9714877868245744	41.84	0.9719121638292624	34.89463424682617	-86.61672973632812	240.1999969482422	2	12	0.5799999833106995	0.114501953125	0	0	0.0	0.0	0.0	0.0	-0.2707803021714439	0.0	0.0	-0.2875452898364549	0.6783652070999999	-0.4630111730999999	9.5581298757	-0.1548227369785308	-0.6650357246398926	-0.1442044377326965	0.7162140607833862	6	0.5815772374471029	-1.4436121622721354	0.466600407	9.5186483028	-0.574277424	0.287138712	0.1363908882	0.2368894374	-0.003665191416	0.051312679824	0.040317105576	-0.998153795624	-2.44956959636	-2.820975659848	0.03712	0.77546	-0.06322	-0.12296	-0.18792	-0.37062	0.3768695595	4.8275195955	-0.1686939933	-0.50090949352	-1.199128458268	-1.390329277136	-0.04292	0.29377000000000003	-0.21692	-2.3536	1.41216	15.06304	0.9716999753269184	40.45
57575	0	6072922	59	1327	-87	-7	36	34	66	1338	-109	24	20	33	-815	-2012	-2269	-214	-338	-671	-144	64	640	39.06	0.971586479151246	41.85	0.9720305946212682	34.89463424682617	-86.61672973632812	240.1999969482422	2	12	0.5799999833106995	0.114501953125	0	0	0.0	0.0	0.0	0.0	-0.3086740133786684	0.0	0.0	-0.3212039037257063	0.7034898444	-0.4486542375	9.5653083435	-0.1548355519771576	-0.664975106716156	-0.1442136466503143	0.7162657380104065	6	0.5815772374471029	-1.4436121622721354	0.4235296002	9.5258267706	-0.6245266986	0.1722832272	0.143569356	0.2368894374	-0.008552113303999999	0.043982296992	0.041538836047999995	-0.9957103346799999	-2.458121709664	-2.772106440968	0.03828	0.77604	-0.06322	-0.12412	-0.19604	-0.38918	0.29790641370000004	4.8346980633	-0.19381863059999999	-0.5021312239919999	-1.2070697063359999	-1.36528380246	-0.04292	0.29	-0.2262	-4.23648	1.88288	18.8288	0.971808536886257	40.455
57576	0	6073027	61	1325	-81	-2	44	35	66	1336	-115	37	21	31	-815	-2012	-2269	-226	-351	-675	-112	128	560	39.06	0.9716456945472488	41.86	0.9720503330866024	34.89463424682617	-86.61672973632812	240.3000030517578	2	12	0.5799999833106995	0.081787109375	0	0	0.0	0.0	0.0	0.0	-0.2586737057953023	0.0	0.0	-0.2630631406032536	0.7034898444	-0.4558327053	9.5509514079	-0.1548268347978592	-0.6649364233016968	-0.1442328989505767	0.7162996530532837	6	0.5815772374471029	-1.4436121622721354	0.43788653580000003	9.511469835	-0.5814558918	0.26560330860000003	0.1507478238	0.2225325018	-0.002443460944	0.053756140768	0.042760566519999994	-0.9957103346799999	-2.458121709664	-2.772106440968	0.03828	0.77488	-0.0667	-0.13108	-0.20358	-0.3915	0.35174492220000003	4.8311088294	-0.179461695	-0.499076897812	-1.202182784448	-1.3646729372239998	-0.0464	0.28565	-0.2291	-3.29504	3.76576	16.4752	0.9718480138169256	40.46
57577	0	6073133	65	1321	-82	-8	45	36	59	1339	-110	2	23	38	-824	-1993	-2277	-226	-351	-675	-208	128	464	39.06	0.971527263755243	41.85	0.9719713792252652	34.89463424682617	-86.61672973632812	240.3000030517578	2	12	0.5799999833106995	0.114501953125	0	0	0.0	0.0	0.0	0.0	-0.2346018107012978	0.0	0.0	-0.2362543872611794	0.6891329088	-0.4450650035999999	9.547362174	-0.154569074511528	-0.6649385690689087	-0.1440860331058502	0.7163828611373901	6	0.5815772374471029	-1.4436121622721354	0.466600407	9.4827559638	-0.5886343596	0.0143569356	0.1651047594	0.2727817764	-0.009773843776	0.05497787124	0.043982296992	-1.006705908928	-2.434908830696	-2.7818802847439996	0.03422	0.77662	-0.0638	-0.13108	-0.20358	-0.3915	0.2404786713	4.8239303616	-0.1579262916	-0.508239876352	-1.189965479728	-1.3689489938759998	-0.04843	0.28652	-0.22765000000000002	-6.11936	3.76576	13.65088	0.9717493214902542	40.455
57578	0	6073238	70	1326	-87	-13	45	32	17	1339	-107	-6	14	39	-815	-2004	-2267	-216	-357	-661	-16	48	576	39.06	0.9714285714285714	41.87	0.9721292869479398	34.89463424682617	-86.61672973632812	240.3000030517578	2	12	0.5799999833106995	0.114501953125	0	0	0.0	0.0	0.0	0.0	-0.14218899998564	0.0	0.0	-0.1439006295581255	0.6963113766	-0.3122633493	9.5653083435	-0.1545222401618957	-0.6648662686347961	-0.1440673768520355	0.7164637446403503	6	0.5815772374471029	-1.4436121622721354	0.502492746	9.5186483028	-0.6245266986	-0.0430708068	0.10049854920000001	0.2799602442	-0.015882496136	0.05497787124	0.039095375104	-0.9957103346799999	-2.448347865888	-2.769662980024	0.00986	0.77662	-0.06206	-0.12528	-0.20706	-0.38338	0.22971096960000004	4.809573426	-0.1722832272	-0.5057964154079999	-1.196684997324	-1.36528380246	-0.05771	0.28478	-0.22272	-0.47072	1.41216	16.94592	0.9717789291882556	40.465
57579	0	6073344	66	1321	-79	-5	40	34	67	1341	-107	36	17	33	-815	-2004	-2267	-216	-357	-661	-32	128	576	39.05	0.971458179126573	41.85	0.9719220330619296	34.89463424682617	-86.61672973632812	240.3000030517578	2	12	0.5799999833106995	0.114501953125	0	0	0.0	0.0	0.0	0.0	-0.0363609981615068	0.0	0.0	-0.0432537132083542	0.6675975054	-0.4773681086999999	9.5545406418	-0.1546432971954345	-0.664883017539978	-0.1441509127616882	0.7164052724838257	6	0.5815772374471029	-1.4436121622721354	0.4737788748	9.4827559638	-0.5670989562000001	0.2584248408	0.12203395260000001	0.2368894374	-0.0061086523599999994	0.048869218879999995	0.041538836047999995	-0.9957103346799999	-2.448347865888	-2.769662980024	0.03886	0.77778	-0.06206	-0.12528	-0.20706	-0.38338	0.36610185780000004	4.802394958200001	-0.16510475940000002	-0.5009094935199999	-1.199739323504	-1.3640620719880001	-0.04321	0.28536	-0.22272	-0.94144	3.76576	16.94592	0.9716901060942513	40.45
57580	0	6073449	64	1326	-91	-9	49	37	58	1335	-113	12	24	39	-814	-2002	-2287	-209	-326	-680	-144	48	640	39.07	0.9715075252899088	41.85	0.9720305946212682	34.89463424682617	-86.61672973632812	240.3000030517578	2	12	0.5799999833106995	0.114501953125	0	0	0.0	0.0	0.0	0.0	-0.0704494013913369	0.0	0.0	-0.0981289048983707	0.7322037155999999	-0.4378865358	9.5509514079	-0.1544445157051086	-0.6649383306503296	-0.1440458744764328	0.7164180278778076	6	0.5815772374471029	-1.4436121622721354	0.4594219392	9.5186483028	-0.6532405698	0.0861416136	0.1722832272	0.2799602442	-0.010995574248	0.059864793128	0.045204027464	-0.9944886042079999	-2.4459044049439997	-2.7940975894639997	0.03364	0.7743	-0.06554	-0.12122	-0.18908	-0.39440000000000003	0.2727817764	4.845465765	-0.1866401628	-0.5027420892279999	-1.193019805908	-1.3744467809999998	-0.043789999999999996	0.29261	-0.22997	-4.23648	1.41216	18.8288	0.9717690599555885	40.46
57581	0	6073555	59	1323	-82	-3	42	36	57	1337	-107	13	17	33	-814	-2002	-2287	-209	-326	-680	-96	48	560	39.05	0.9715667406859116	41.85	0.9719220330619296	34.89463424682617	-86.61672973632812	240.3000030517578	2	12	0.5799999833106995	0.114501953125	0	0	0.0	0.0	0.0	0.0	0.0016872810168924	0.0	0.0	-0.0377372931442994	0.6783652070999999	-0.4163511324	9.547362174	-0.1963205486536026	-0.6503273844718933	-0.179736703634262	0.7114965915679932	6	0.5815772374471029	-1.4436121622721354	0.4235296002	9.497112899400001	-0.5886343596	0.0933200814	0.12203395260000001	0.2368894374	-0.003665191416	0.051312679824	0.043982296992	-0.9944886042079999	-2.4459044049439997	-2.7940975894639997	0.03306	0.77546	-0.06206	-0.12122	-0.18908	-0.39440000000000003	0.2584248408	4.809573426000001	-0.1758724611	-0.49907689781199993	-1.1972958625599999	-1.3750576462359998	-0.044079999999999994	0.29319	-0.22823000000000002	-2.82432	1.41216	16.4752	0.9717443868739206	40.45
57582	0	6073660	60	1320	-84	-2	44	32	63	1337	-115	19	19	38	-830	-2003	-2242	-212	-361	-671	-144	112	576	39.07	0.9716062176165804	41.85	0.9719812484579324	34.89463424682617	-86.61672973632812	240.3000030517578	2	12	0.5899999737739563	0.114501953125	0	0	0.0	0.0	0.0	0.0	-0.0272987285448327	0.0	0.0	-0.0897381268641582	0.7142575460999999	-0.4414757696999999	9.5365944723	-0.1964026242494583	-0.6503378748893738	-0.1797568649053573	0.711459219455719	6	0.5815772374471029	-1.4436121622721354	0.430708068	9.475577496	-0.6029912952	0.1363908882	0.1363908882	0.2727817764	-0.002443460944	0.053756140768	0.039095375104	-1.0140362917599999	-2.4471261354159997	-2.739119718224	0.03654	0.77546	-0.0667	-0.12296	-0.20938	-0.38918	0.2835494781	4.8059841920999995	-0.16510475940000002	-0.508239876352	-1.196684997324	-1.35001217156	-0.04321	0.28304	-0.22794	-4.23648	3.29504	16.94592	0.9717937330372564	40.46
57583	0	6073765	63	1322	-80	-6	45	36	62	1337	-107	8	18	33	-830	-2003	-2242	-212	-361	-671	-192	96	560	39.05	0.971517394522576	41.85	0.9719812484579324	34.89463424682617	-86.61672973632812	240.3000030517578	2	12	0.5899999737739563	0.114501953125	0	0	0.0	0.0	0.0	0.0	-0.0376790376283485	0.0	0.0	-0.1196028163158559	0.6711867393	-0.4486542375	9.543772940099998	-0.196468710899353	-0.6502418518066406	-0.1798272430896759	0.7115110158920288	6	0.5815772374471029	-1.4436121622721354	0.45224347140000004	9.4899344316	-0.574277424	0.0574277424	0.1292124204	0.2368894374	-0.007330382832	0.05497787124	0.043982296992	-1.0140362917599999	-2.4471261354159997	-2.739119718224	0.03596	0.77546	-0.06206	-0.12296	-0.20938	-0.38918	0.2548356069	4.809573426	-0.1686939933	-0.5106833372959999	-1.1960741320879997	-1.347568710616	-0.0435	0.28304	-0.22562000000000001	-5.64864	2.82432	16.4752	0.9717493214902542	40.45
57584	0	6073871	58	1325	-83	-7	45	37	65	1339	-110	5	21	41	-828	-1992	-2233	-232	-341	-643	-64	48	640	39.08	0.9716851714779176	41.86	0.9721095484826054	34.89463424682617	-86.61672973632812	240.3000030517578	2	12	0.5899999737739563	0.114501953125	0	0	0.0	0.0	0.0	0.0	-0.110546244632974	0.0	0.0	-0.2093896137634844	0.6927221426999999	-0.4414757696999999	9.561719109599998	-0.1964371353387832	-0.6502197980880737	-0.1798211485147476	0.7115412950515747	6	0.5815772374471029	-1.4436121622721354	0.4163511324	9.511469835	-0.5958128274000001	0.035892339	0.1507478238	0.2943171798	-0.008552113303999999	0.05497787124	0.045204027464	-1.011592830816	-2.4336871002239997	-2.728124143976	0.0377	0.77662	-0.0638	-0.13456	-0.19778	-0.37294	0.2261217357	4.8311088294	-0.15074782380000004	-0.5100724720600001	-1.1893546144919998	-1.341460058256	-0.04843000000000001	0.28942	-0.21837	-1.88288	1.41216	18.8288	0.9718973599802615	40.47
57585	0	6073976	59	1326	-85	-7	49	33	60	1339	-112	8	22	38	-828	-1992	-2233	-232	-341	-643	-144	16	576	39.08	0.9716259560819146	41.87	0.9721786331112756	34.89463424682617	-86.61672973632812	240.3999938964844	2	12	0.5799999833106995	0.114501953125	0	0	0.0	0.0	0.0	0.0	-0.1636637644357887	0.0	0.0	-0.2682389931104452	0.7070790782999999	-0.4271188340999999	9.5653083435	-0.1962615847587585	-0.6501367688179016	-0.1797237992286682	0.7116901874542236	6	0.5815772374471029	-1.4436121622721354	0.4235296002	9.5186483028	-0.610169763	0.0574277424	0.15792629160000002	0.2727817764	-0.008552113303999999	0.059864793128	0.040317105576	-1.011592830816	-2.4336871002239997	-2.728124143976	0.0348	0.77662	-0.06496	-0.13456	-0.19778	-0.37294	0.2404786713	4.838287297200001	-0.1686939933	-0.5100724720600001	-1.186911153548	-1.3439035192	-0.04988000000000001	0.28942	-0.21895	-4.23648	0.47072	16.94592	0.9719022945965952	40.474999999999994
57586	0	6074082	58	1331	-82	-8	41	35	58	1339	-114	14	18	36	-832	-2010	-2275	-217	-352	-663	-48	48	608	39.07	0.9716062176165804	41.85	0.9720305946212682	34.89463424682617	-86.61672973632812	240.3999938964844	2	12	0.5799999833106995	0.114501953125	0	0	0.0	0.0	0.0	0.0	-0.2396867984565908	0.0	0.0	-0.3430785266807052	0.7034898444	-0.4163511324	9.583254513	-0.1963271498680114	-0.6501253843307495	-0.1798078715801239	0.7116612792015076	6	0.5815772374471029	-1.4436121622721354	0.4163511324	9.554540641800001	-0.5886343596	0.10049854920000001	0.1292124204	0.2584248408	-0.009773843776	0.050090949351999994	0.042760566519999994	-1.016479752704	-2.45567824872	-2.7794368238	0.03364	0.77662	-0.06612	-0.12586	-0.20416	-0.38454	0.2584248408	4.8418765311000005	-0.1651047594	-0.51312679824	-1.202793649684	-1.3683381286399998	-0.04611	0.28623	-0.22533	-1.41216	1.41216	17.88736	0.9718184061189243	40.46
57587	0	6074187	61	1329	-82	-8	44	37	67	1337	-111	23	20	33	-832	-2010	-2275	-217	-352	-663	-96	-16	640	39.07	0.9715568714532444	41.86	0.9718825561312608	34.89463424682617	-86.61672973632812	240.3999938964844	2	12	0.5799999833106995	0.081787109375	0	0	0.0	0.0	0.0	0.0	-0.2598231717693487	0.0	0.0	-0.349552711924545	0.6927221427	-0.4594219391999999	9.568897577399998	-0.1964353322982788	-0.650158703327179	-0.1799043715000152	0.7115766406059265	6	0.5815772374471029	-1.4436121622721354	0.43788653580000003	9.5401837062	-0.5886343596	0.1651047594	0.143569356	0.2368894374	-0.009773843776	0.053756140768	0.045204027464	-1.016479752704	-2.45567824872	-2.7794368238	0.03886	0.77546	-0.06438	-0.12586	-0.20416	-0.38454	0.3014956476	4.8418765311000005	-0.1758724611	-0.51312679824	-1.200961053976	-1.367116398168	-0.0435	0.28565	-0.22446	-2.82432	-0.47072	18.8288	0.9717197137922526	40.465
57588	0	6074293	63	1322	-84	-6	46	36	69	1338	-114	20	22	35	-829	-2013	-2305	-225	-366	-662	-96	64	464	39.06	0.9714779175919072	41.85	0.9719812484579324	34.89463424682617	-86.61672973632812	240.3999938964844	2	12	0.5799999833106995	0.114501953125	0	0	0.0	0.0	0.0	0.0	-0.272428574757147	0.0	0.0	-0.3486201413321086	0.7106683121999999	-0.4737788747999999	9.547362174	-0.1963639557361602	-0.6502019762992859	-0.1798175126314163	0.7115787863731384	6	0.5815772374471029	-1.4436121622721354	0.45224347140000004	9.4899344316	-0.6029912952	0.143569356	0.15792629160000002	0.251246373	-0.007330382832	0.056199601711999995	0.043982296992	-1.012814561288	-2.4593434401359997	-2.81608873796	0.04002	0.77604	-0.06612	-0.1305	-0.21228	-0.38396	0.29790641370000004	4.8239303616	-0.17587246110000002	-0.51007247206	-1.2015719192119998	-1.386053220484	-0.04524	0.28187999999999996	-0.22504000000000002	-2.82432	1.88288	13.65088	0.9717295830249197	40.455
57589	0	6074398	60	1321	-85	-3	42	33	61	1338	-112	14	23	37	-829	-2013	-2305	-225	-366	-662	-80	112	576	39.06	0.9714187021959044	41.87	0.9721194177152728	34.89463424682617	-86.61672973632812	240.3999938964844	2	12	0.5799999833106995	0.081787109375	0	0	0.0	0.0	0.0	0.0	-0.3077982287858325	0.0	0.0	-0.3733748245869041	0.7070790782999999	-0.4342973018999999	9.543772940099998	-0.1963531821966171	-0.6501290798187256	-0.1798279881477356	0.7116457223892212	6	0.5815772374471029	-1.4436121622721354	0.430708068	9.4827559638	-0.610169763	0.10049854920000001	0.1651047594	0.26560330860000003	-0.003665191416	0.051312679824	0.040317105576	-1.012814561288	-2.4593434401359997	-2.81608873796	0.03538	0.77604	-0.06496	-0.1305	-0.21228	-0.38396	0.26560330860000003	4.8239303616	-0.1722832272	-0.508239876352	-1.2040153801559998	-1.387885816192	-0.047560000000000005	0.28187999999999996	-0.22446000000000002	-2.3536	3.29504	16.94592	0.9717690599555886	40.465
57590	0	6074504	62	1325	-83	-9	39	36	65	1340	-115	8	20	36	-816	-2007	-2298	-213	-357	-667	-64	-16	528	39.05	0.9714088329632372	41.86	0.9719911176905996	34.89463424682617	-86.61672973632812	240.3999938964844	2	12	0.5799999833106995	0.114501953125	0	0	0.0	0.0	0.0	0.0	-0.1738098880387052	0.0	0.0	-0.2227231539708462	0.7106683121999999	-0.4558327053	9.5653083435	-0.1922169476747512	-0.6524282693862915	-0.1763681471347808	0.7115365862846375	6	0.5815772374471029	-1.4436121622721354	0.4450650036	9.511469835	-0.5958128274000001	0.0574277424	0.143569356	0.2584248408	-0.010995574248	0.047647488408	0.043982296992	-0.996932065152	-2.4520130573039998	-2.8075366246559996	0.0377	0.7772	-0.0667	-0.12354	-0.20706	-0.38686	0.251246373	4.8275195955	-0.16869399330000004	-0.5039638196999999	-1.202182784448	-1.3817771638319998	-0.04292	0.28507	-0.22677999999999998	-1.88288	-0.47072	15.533760000000001	0.9716999753269184	40.455
57591	0	6074609	62	1326	-84	-6	39	34	59	1336	-112	10	20	39	-816	-2007	-2298	-213	-357	-667	-112	64	496	39.06	0.9716456945472488	41.87	0.972010856155934	34.89463424682617	-86.61672973632812	240.5	2	12	0.5799999833106995	0.114501953125	0	0	0.0	0.0	0.0	0.0	-0.2089695908517641	0.0	0.0	-0.264131206443411	0.7034898444	-0.4342973018999999	9.5545406418	-0.1923036724328994	-0.6524580121040344	-0.1764685660600662	0.7114610075950623	6	0.5815772374471029	-1.4436121622721354	0.4450650036	9.5186483028	-0.6029912952	0.071784678	0.143569356	0.2799602442	-0.007330382832	0.047647488408	0.041538836047999995	-0.996932065152	-2.4520130573039998	-2.8075366246559996	0.03422	0.77488	-0.06496	-0.12354	-0.20706	-0.38686	0.2584248408	4.831108829400001	-0.16151552550000003	-0.5021312239919999	-1.202182784448	-1.382998894304	-0.04466	0.28391	-0.22591	-3.29504	1.88288	14.59232	0.9718282753515914	40.465
57592	0	6074714	68	1321	-86	-9	51	33	66	1336	-114	34	25	32	-839	-2006	-2263	-219	-362	-678	-192	64	576	39.08	0.9715766099185787	41.87	0.9722871946706144	34.89463424682617	-86.61672973632812	240.5	2	12	0.5799999833106995	0.114501953125	0	0	0.0	0.0	0.0	0.0	-0.2617501133678462	0.0	0.0	-0.3168421094334078	0.7178467799999999	-0.4809573426	9.5365944723	-0.1923384219408035	-0.6525556445121765	-0.1763377040624618	0.7113944888114929	6	0.5815772374471029	-1.4436121622721354	0.48813581040000004	9.4827559638	-0.6173482308	0.24406790520000002	0.179461695	0.2297109696	-0.010995574248	0.062308254072	0.040317105576	-1.025031866008	-2.450791326832	-2.764776058136	0.03828	0.77488	-0.06612	-0.12702	-0.20996	-0.39324	0.36610185780000004	4.831108829400001	-0.19381863059999999	-0.518013720128	-1.1942415363799999	-1.36222947628	-0.04436999999999999	0.28246	-0.22968	-5.64864	1.88288	16.94592	0.9719319022945966	40.474999999999994
57593	0	6074820	53	1329	-81	2	39	38	13	1337	-105	49	22	35	-839	-2006	-2263	-219	-362	-678	-128	128	496	39.06	0.9714779175919072	41.87	0.972010856155934	34.89463424682617	-86.61672973632812	240.5	2	12	0.5799999833106995	0.114501953125	0	0	0.0	0.0	0.0	0.0	-0.2418602053097904	0.0	0.0	-0.2852118344467328	0.6675975053999998	-0.2368894373999999	9.568897577399998	-0.1922554969787597	-0.6527195572853088	-0.1761847138404846	0.7113044857978821	6	0.5815772374471029	-1.4436121622721354	0.3804587934	9.5401837062	-0.5814558918	0.35174492220000003	0.15792629160000002	0.251246373	0.002443460944	0.047647488408	0.046425757936	-1.025031866008	-2.450791326832	-2.764776058136	0.00754	0.77546	-0.0609	-0.12702	-0.20996	-0.39324	0.36610185780000004	4.849054998900001	-0.1651047594	-0.511294202532	-1.201571919212	-1.3591751501	-0.059739999999999994	0.28275	-0.22707	-3.76576	3.76576	14.59232	0.9717443868739206	40.465
57594	0	6074925	60	1321	-81	-7	42	35	65	1334	-116	10	16	37	-807	-2010	-2255	-211	-347	-650	-112	128	624	39.07	0.9716753022452504	41.86	0.9720503330866024	34.89463424682617	-86.61672973632812	240.5	2	12	0.5799999833106995	0.114501953125	0	0	0.0	0.0	0.0	0.0	-0.2984081636590099	0.0	0.0	-0.3384600937342902	0.7070790782999999	-0.4486542374999999	9.5294160045	-0.1923904418945312	-0.6527954339981079	-0.1762718707323074	0.7111767530441284	6	0.5815772374471029	-1.4436121622721354	0.430708068	9.4827559638	-0.5814558918	0.071784678	0.1148554848	0.26560330860000003	-0.008552113303999999	0.051312679824	0.042760566519999994	-0.9859364909039999	-2.45567824872	-2.7550022143599997	0.0377	0.77372	-0.06728	-0.12238	-0.20126	-0.377	0.251246373	4.7988057243	-0.1579262916	-0.49724430210399995	-1.202182784448	-1.3561208239199998	-0.04234	0.28623	-0.22214	-3.29504	3.76576	18.35808	0.9718628176659264	40.465
57595	0	6075031	63	1330	-84	-4	44	35	63	1332	-108	32	22	30	-851	-2019	-2257	-211	-347	-650	-128	96	480	39.07	0.9714384406612386	41.85	0.9719220330619296	34.89463424682617	-86.61671447753906	240.5	2	12	0.5799999833106995	0.114501953125	0	0	0.0	0.0	0.0	0.0	-0.1159707949859019	0.0	0.0	-0.1416156576517083	0.6891329088	-0.4522434714	9.5545406418	-0.1925157904624939	-0.6529058218002319	-0.1762319654226303	0.711051344871521	6	0.5815772374471029	-1.4436119079589844	0.45224347140000004	9.547362174	-0.6029912952	0.2297109696	0.15792629160000002	0.215354034	-0.004886921888	0.053756140768	0.042760566519999994	-1.0396926316719999	-2.4666738229679996	-2.757445675304	0.03654	0.77256	-0.06264	-0.12238	-0.20126	-0.377	0.3409772205	4.8526442328	-0.19381863060000004	-0.52228977678	-1.2064588411	-1.357342554392	-0.04292	0.28565	-0.21982000000000002	-3.76576	2.82432	14.1216	0.9716802368615841	40.46
57596	0	6075136	65	1320	-78	-6	45	32	59	1338	-107	36	21	34	-851	-2019	-2257	-197	-374	-673	-144	112	592	39.06	0.9714285714285714	41.87	0.9719022945965952	34.89463424682617	-86.61671447753906	240.5	2	12	0.5799999833106995	0.114501953125	0	0	0.0	0.0	0.0	0.0	-0.1171598546148924	0.0	0.0	-0.1507841268049667	0.6640082715	-0.4450650035999999	9.5401837062	-0.1924524754285812	-0.6529155373573303	-0.1761426478624344	0.7110817432403564	6	0.5815772374471029	-1.4436119079589844	0.466600407	9.475577496	-0.5599204884	0.2584248408	0.1507478238	0.24406790520000002	-0.007330382832	0.05497787124	0.039095375104	-1.0396926316719999	-2.4666738229679996	-2.757445675304	0.03422	0.77604	-0.06206	-0.11426	-0.21692	-0.39034	0.3625126239	4.8131626599	-0.1579262916	-0.5235115072519999	-1.2058479758639997	-1.3591751501	-0.04002	0.27956	-0.2262	-4.23648	3.29504	17.41664	0.9716654330125833	40.465
57597	0	6075242	61	1324	-80	-6	46	36	62	1337	-114	37	22	37	-826	-1998	-2319	-197	-374	-673	-80	64	512	39.05	0.9713594867999014	41.87	0.9720602023192696	34.89463424682617	-86.61671447753906	240.5	2	12	0.5799999833106995	0.114501953125	0	0	0.0	0.0	0.0	0.0	-0.073685865178274	0.0	0.0	-0.1180135552484835	0.6963113766	-0.4414757696999999	9.550951407899998	-0.1923535913228988	-0.6529191136360168	-0.1761248260736465	0.7111095786094666	6	0.5815772374471029	-1.4436119079589844	0.43788653580000003	9.5042913672	-0.574277424	0.26560330860000003	0.15792629160000002	0.26560330860000003	-0.007330382832	0.056199601711999995	0.043982296992	-1.009149369872	-2.441017483056	-2.8331929645679996	0.03596	0.77546	-0.06612	-0.11426	-0.21692	-0.39034	0.35174492220000003	4.831108829400001	-0.1543370577	-0.508239876352	-1.192408940672	-1.3946053337879998	-0.039150000000000004	0.27927	-0.22823000000000002	-2.3536	1.88288	15.06304	0.9717098445595855	40.459999999999994
57598	0	6075347	56	1323	-89	-5	44	34	60	1337	-113	15	17	34	-826	-1998	-2319	-195	-323	-678	-32	16	640	39.07	0.971458179126573	41.85	0.9719220330619296	34.89463424682617	-86.61671447753906	240.6000061035156	2	12	0.5799999833106995	0.114501953125	0	0	0.0	0.0	0.0	0.0	0.0182775061112658	0.0	0.0	-0.035015279856407	0.7250252477999999	-0.4163511324	9.547362174	-0.1924483180046081	-0.6528887748718262	-0.1761446148157119	0.7111068964004517	6	0.5815772374471029	-1.4436119079589844	0.40199419680000004	9.497112899400001	-0.6388836342	0.107677017	0.12203395260000001	0.24406790520000002	-0.0061086523599999994	0.053756140768	0.041538836047999995	-1.009149369872	-2.441017483056	-2.8331929645679996	0.0348	0.77546	-0.06554	-0.1131	-0.18734	-0.39324	0.2548356069	4.809573426000001	-0.19740786450000003	-0.507629011116	-1.1936306711440001	-1.39582706426	-0.039150000000000004	0.29406	-0.22938999999999998	-0.94144	0.47072	18.8288	0.9716901060942513	40.46
57599	0	6075453	61	1322	-90	-6	44	31	69	1337	-110	35	21	31	-827	-2009	-2245	-195	-323	-678	-96	128	560	39.06	0.9716456945472488	41.86	0.9720404638539354	34.89463424682617	-86.61671447753906	240.6000061035156	2	12	0.5799999833106995	0.114501953125	0	0	0.0	0.0	0.0	0.0	-0.0138603346609282	0.0	0.0	-0.0896937733878155	0.7178467799999999	-0.4666004069999999	9.543772940099998	-0.1925360560417175	-0.652870774269104	-0.1761590242385864	0.7110961675643921	6	0.5815772374471029	-1.4436119079589844	0.43788653580000003	9.4899344316	-0.646062102	0.251246373	0.1507478238	0.2225325018	-0.007330382832	0.053756140768	0.037873644632	-1.010371100344	-2.454456518248	-2.7427849096399997	0.04002	0.77546	-0.0638	-0.1131	-0.18734	-0.39324	0.3445664544	4.8203411277	-0.2117648001	-0.5088507415879999	-1.20035018874	-1.3524556325039998	-0.03654	0.29406	-0.22852	-2.82432	3.76576	16.4752	0.9718430792005921	40.46
57600	0	6075558	65	1324	-85	-5	47	35	61	1339	-106	7	24	37	-827	-2009	-2245	-210	-346	-678	-160	80	496	39.06	0.9714779175919072	41.84	0.9719121638292624	34.89463424682617	-86.61671447753906	240.6000061035156	2	12	0.5799999833106995	0.114501953125	0	0	0.0	0.0	0.0	0.0	0.061138824149979	0.0	0.0	-0.0274805077274817	0.6855436748999999	-0.4522434714	9.5581298757	-0.2090032994747162	-0.6477527618408203	-0.1914709657430648	0.7071583271026611	6	0.5815772374471029	-1.4436119079589844	0.466600407	9.5042913672	-0.610169763	0.050249274600000005	0.1722832272	0.26560330860000003	-0.0061086523599999994	0.057421332183999994	0.042760566519999994	-1.010371100344	-2.454456518248	-2.7427849096399997	0.03538	0.77662	-0.06148	-0.1218	-0.20068	-0.39324	0.2584248408	4.8382872972	-0.1722832272	-0.508239876352	-1.198517593032	-1.3500121715599998	-0.04321	0.28797	-0.22735999999999998	-4.7072	2.3536	14.59232	0.9716950407105848	40.45
57601	0	6075663	63	1324	-80	-4	38	35	60	1337	-115	9	18	36	-820	-2027	-2274	-210	-346	-678	-96	48	544	39.05	0.97146804835924	41.86	0.9720503330866024	34.89463424682617	-86.61671447753906	240.6000061035156	2	12	0.5799999833106995	0.114501953125	0	0	0.0	0.0	0.0	0.0	0.0452229262977359	0.0	0.0	-0.0642796781579899	0.6999006104999999	-0.4414757696999999	9.550951407899998	-0.2090093940496444	-0.6475852727890015	-0.1915767937898636	0.707281231880188	6	0.5815772374471029	-1.4436119079589844	0.45224347140000004	9.5042913672	-0.574277424	0.0646062102	0.1292124204	0.2584248408	-0.004886921888	0.046425757936	0.042760566519999994	-1.00181898704	-2.476447666744	-2.778215093328	0.0348	0.77546	-0.0667	-0.1218	-0.20068	-0.39324	0.2584248408	4.8167518938	-0.15792629160000002	-0.5033529544640001	-1.215010954404	-1.3677272634039999	-0.043500000000000004	0.28739000000000003	-0.22996999999999998	-2.82432	1.41216	16.00448	0.9717591907229213	40.455
57602	0	6075769	58	1328	-71	-6	54	33	41	1340	-107	53	19	34	-820	-2027	-2274	-217	-341	-656	-176	64	592	39.06	0.9716456945472488	41.85	0.9719220330619296	34.89463424682617	-86.61671447753906	240.6000061035156	2	12	0.5799999833106995	0.114501953125	0	0	0.0	0.0	0.0	0.0	0.0326070629817719	0.0	0.0	-0.0938210957479691	0.6388836341999999	-0.3553341560999999	9.5760760452	-0.2090677618980407	-0.6476317644119263	-0.1915606558322906	0.7072258591651917	6	0.5815772374471029	-1.4436119079589844	0.4163511324	9.533005238400001	-0.5096712138	0.3804587934	0.1363908882	0.24406790520000002	-0.007330382832	0.065973445488	0.040317105576	-1.00181898704	-2.476447666744	-2.778215093328	0.02378	0.7772	-0.06206	-0.12586	-0.19778	-0.38048	0.3984049629	4.8346980633	-0.13280165430000002	-0.504574684936	-1.205237110628	-1.368948993876	-0.05104	0.28971	-0.22127	-5.17792	1.88288	17.41664	0.9717838638045893	40.455
57603	0	6075874	57	1321	-88	-7	38	34	69	1341	-110	26	19	33	-817	-2024	-2279	-217	-341	-656	-176	128	608	39.06	0.9713200098692326	41.87	0.9721194177152728	34.89463424682617	-86.61671447753906	240.6000061035156	2	12	0.5799999833106995	0.114501953125	0	0	0.0	0.0	0.0	0.0	0.0403572161971037	0.0	0.0	-0.0986932606228144	0.7106683121999999	-0.4522434714	9.5545406418	-0.2090877741575241	-0.6475250124931335	-0.1915862560272216	0.7073107361793518	6	0.5815772374471029	-1.4436119079589844	0.4091726646	9.4827559638	-0.6317051664000001	0.1866401628	0.1363908882	0.2368894374	-0.008552113303999999	0.046425757936	0.041538836047999995	-0.998153795624	-2.4727824753279997	-2.784323745688	0.04002	0.77778	-0.0638	-0.12586	-0.19778	-0.38048	0.29790641370000004	4.809573426	-0.19740786450000003	-0.503352954464	-1.2131783586959999	-1.37139245482	-0.04292	0.29000000000000004	-0.22214	-5.17792	3.76576	17.88736	0.9717197137922526	40.465
57604	0	6075980	66	1324	-87	-5	42	36	65	1336	-122	32	21	31	-817	-2024	-2279	-232	-357	-663	-112	192	496	39.07	0.9715568714532444	41.87	0.9722279792746114	34.89463424682617	-86.61671447753906	240.6000061035156	2	12	0.5799999833106995	0.114501953125	0	0	0.0	0.0	0.0	0.0	-0.0774068952647268	0.0	0.0	-0.2374103028346153	0.7501498850999999	-0.4701896408999999	9.547362174	-0.2091138511896133	-0.6472955346107483	-0.1917028725147247	0.7074815034866333	6	0.5815772374471029	-1.4436119079589844	0.4737788748	9.5042913672	-0.6245266986	0.2297109696	0.1507478238	0.2225325018	-0.0061086523599999994	0.051312679824	0.043982296992	-0.998153795624	-2.4727824753279997	-2.784323745688	0.0377	0.77488	-0.07076	-0.13456	-0.20706	-0.38454	0.35174492220000003	4.8275195955	-0.2009970984	-0.5021312239919999	-1.2107348977519998	-1.370170724348	-0.04843000000000001	0.28391	-0.22765	-3.29504	5.64864	14.59232	0.9718924253639278	40.47
57605	0	6076085	61	1327	-90	-7	44	31	61	1336	-110	26	22	35	-822	-2007	-2263	-232	-357	-663	-112	128	576	39.07	0.9715470022205772	41.85	0.972149025413274	34.89463424682617	-86.61671447753906	240.6000061035156	2	12	0.5799999833106995	0.114501953125	0	0	0.0	0.0	0.0	0.0	-0.0962914634045243	0.0	0.0	-0.2570967028227917	0.7178467799999999	-0.4378865358	9.5581298757	-0.2091085910797119	-0.647298276424408	-0.1915869563817978	0.7075119018554688	6	0.5815772374471029	-1.4436119079589844	0.43788653580000003	9.5258267706	-0.646062102	0.1866401628	0.15792629160000002	0.251246373	-0.008552113303999999	0.053756140768	0.037873644632	-1.0042624479839999	-2.4520130573039998	-2.764776058136	0.03538	0.77488	-0.0638	-0.13456	-0.20706	-0.38454	0.3122633493	4.8418765311000005	-0.1974078645	-0.506407280644	-1.199128458268	-1.363451206752	-0.04959000000000001	0.28391	-0.22416999999999998	-3.29504	3.76576	16.94592	0.9718480138169256	40.46
57606	0	6076191	62	1328	-82	-1	38	33	58	1339	-111	16	17	33	-822	-2007	-2263	-198	-362	-674	-112	128	464	39.07	0.9715075252899088	41.86	0.9721095484826054	34.89463424682617	-86.61671447753906	240.6000061035156	2	12	0.5799999833106995	0.114501953125	0	0	0.0	0.0	0.0	0.0	-0.1623585026342497	0.0	0.0	-0.3237131039978819	0.6927221427	-0.4307080679999999	9.5724868113	-0.2092224806547165	-0.6472151279449463	-0.191685676574707	0.7075275778770447	6	0.5815772374471029	-1.4436119079589844	0.4450650036	9.533005238400001	-0.5886343596	0.1148554848	0.12203395260000001	0.2368894374	-0.001221730472	0.046425757936	0.040317105576	-1.0042624479839999	-2.4520130573039998	-2.764776058136	0.03364	0.77662	-0.06438	-0.11484	-0.20996	-0.39092	0.2799602442	4.827519595500001	-0.1758724611	-0.5027420892279999	-1.202793649684	-1.36222947628	-0.0406	0.28332999999999997	-0.22765	-3.29504	3.76576	13.65088	0.9718085368862571	40.465
57607	0	6076296	65	1322	-78	-5	43	37	60	1337	-114	32	21	34	-821	-2013	-2271	-198	-362	-674	-144	80	544	39.07	0.9714384406612386	41.88	0.9720305946212682	34.89463424682617	-86.61671447753906	240.6000061035156	2	12	0.5799999833106995	0.114501953125	0	0	0.0	0.0	0.0	0.0	-0.1542386431725667	0.0	0.0	-0.3069135911796786	0.6891329088	-0.4486542374999999	9.543772940099998	-0.2093269675970077	-0.6472328305244446	-0.1917621493339538	0.7074598073959351	6	0.5815772374471029	-1.4436119079589844	0.466600407	9.4899344316	-0.5599204884	0.2297109696	0.1507478238	0.24406790520000002	-0.0061086523599999994	0.052534410296	0.045204027464	-1.003040717512	-2.4593434401359997	-2.7745499019119997	0.0348	0.77546	-0.06612	-0.11484	-0.20996	-0.39092	0.3481556883	4.8203411277	-0.1579262916	-0.504574684936	-1.20340451492	-1.3646729372239998	-0.04002	0.28275	-0.22852	-4.23648	2.3536	16.00448	0.9717345176412534	40.475
57608	0	6076402	52	1329	-73	-13	48	34	31	1338	-107	38	23	40	-821	-2013	-2271	-217	-354	-675	-80	80	464	39.07	0.9716160868492476	41.87	0.9721194177152728	34.89463424682617	-86.61671447753906	240.6000061035156	2	12	0.5799999833106995	0.114501953125	0	0	0.0	0.0	0.0	0.0	-0.1522042217055107	0.0	0.0	-0.2966431746024403	0.6460621019999999	-0.2979064137	9.5724868113	-0.2092103660106659	-0.647221565246582	-0.1917417496442794	0.7075099945068359	6	0.5815772374471029	-1.4436119079589844	0.3732803256	9.5401837062	-0.5240281494	0.2727817764	0.1651047594	0.287138712	-0.015882496136	0.058643062656	0.041538836047999995	-1.003040717512	-2.4593434401359997	-2.7745499019119997	0.01798	0.77604	-0.06206	-0.12586	-0.20532	-0.3915	0.323031051	4.8526442328	-0.11844471869999998	-0.509461606824	-1.2003501887399999	-1.366505532932	-0.05394	0.28535999999999995	-0.22678	-2.3536	2.3536	13.65088	0.9718677522822602	40.47
57609	0	6076507	69	1322	-88	-6	42	34	58	1341	-109	12	20	32	-829	-2016	-2325	-217	-354	-675	-208	48	592	39.06	0.9713693560325684	41.86	0.9720503330866024	34.89463424682617	-86.61671447753906	240.6000061035156	2	12	0.5799999833106995	0.114501953125	0	0	0.0	0.0	0.0	0.0	-0.1148964250663363	0.0	0.0	-0.2498335232531323	0.7070790782999999	-0.4558327053	9.5581298757	-0.2145173698663711	-0.6462935209274292	-0.1965318322181701	0.7054518461227417	6	0.5815772374471029	-1.4436119079589844	0.4953142782	9.4899344316	-0.6317051664000001	0.0861416136	0.143569356	0.2297109696	-0.007330382832	0.051312679824	0.041538836047999995	-1.012814561288	-2.463008631552	-2.8405233474	0.03364	0.77778	-0.06322	-0.12586	-0.20532	-0.3915	0.2907279459	4.8167518938	-0.20099709840000002	-0.51007247206	-1.205847975864	-1.399492255676	-0.04611	0.28623	-0.22736	-6.11936	1.41216	17.41664	0.9717098445595853	40.46
57610	0	6076612	62	1321	-85	-4	43	33	63	1339	-114	31	20	37	-829	-2016	-2325	-222	-366	-684	-128	48	432	39.07	0.9715667406859116	41.86	0.9721095484826054	34.89463424682617	-86.61671447753906	240.6000061035156	2	12	0.5799999833106995	0.114501953125	0	0	0.0	0.0	0.0	0.0	-0.2512536181503547	0.0	0.0	-0.3901449497181258	0.7142575460999999	-0.4486542375	9.547362174	-0.214575707912445	-0.6463900804519653	-0.1964356750249862	0.7053723335266113	6	0.5815772374471029	-1.4436119079589844	0.4450650036	9.4827559638	-0.610169763	0.2225325018	0.143569356	0.26560330860000003	-0.004886921888	0.052534410296	0.040317105576	-1.012814561288	-2.463008631552	-2.8405233474	0.03654	0.77662	-0.06612	-0.12876	-0.21228	-0.39672	0.33379875270000003	4.813162659900001	-0.1722832272	-0.508850741588	-1.205237110628	-1.400103120912	-0.046110000000000005	0.28217	-0.23142000000000001	-3.76576	1.41216	12.70944	0.9718381445842585	40.465
57611	0	6076718	64	1325	-81	-6	38	35	62	1340	-106	30	19	36	-821	-2020	-2272	-222	-366	-684	-144	128	544	39.07	0.9716160868492476	41.88	0.972149025413274	34.89463424682617	-86.61671447753906	240.6000061035156	2	12	0.5799999833106995	0.114501953125	0	0	0.0	0.0	0.0	0.0	-0.2269463562635689	0.0	0.0	-0.3516645331797776	0.6711867393	-0.4522434714	9.5653083435	-0.2146979868412017	-0.6464734077453613	-0.196431964635849	0.7052599191665649	6	0.5815772374471029	-1.4436119079589844	0.4594219392	9.511469835	-0.5814558918	0.215354034	0.1363908882	0.2584248408	-0.007330382832	0.046425757936	0.042760566519999994	-1.003040717512	-2.46789555344	-2.775771632384	0.03596	0.7772	-0.06148	-0.12876	-0.21228	-0.39672	0.3373879866	4.8239303615999996	-0.1615155255	-0.505185550172	-1.210734897752	-1.366505532932	-0.04640000000000001	0.28246	-0.2291	-4.23648	3.76576	16.00448	0.9718825561312607	40.475
57612	0	6076823	63	1326	-83	-5	43	34	61	1338	-107	10	22	35	-821	-2029	-2254	-211	-351	-696	-144	160	528	39.08	0.971517394522576	41.88	0.972139156180607	34.89463424682617	-86.61671447753906	240.6000061035156	2	12	0.5799999833106995	0.114501953125	0	0	0.0	0.0	0.0	0.0	-0.3644108879498755	0.0	0.0	-0.4833815583530837	0.681954441	-0.4450650036	9.561719109599998	-0.2147278487682342	-0.6465615630149841	-0.1963603645563125	0.7051898837089539	6	0.5815772374471029	-1.4436119079589844	0.45224347140000004	9.5186483028	-0.5958128274000001	0.071784678	0.15792629160000002	0.251246373	-0.0061086523599999994	0.052534410296	0.041538836047999995	-1.003040717512	-2.4788911276879997	-2.753780483888	0.03538	0.77604	-0.06206	-0.12238	-0.20358	-0.40368	0.26201407470000004	4.838287297200001	-0.17228322720000003	-0.504574684936	-1.2131783586959999	-1.35612082392	-0.0435	0.28623	-0.23287	-4.23648	4.7072	15.533760000000001	0.9718282753515914	40.480000000000004
57613	0	6076929	59	1326	-82	-6	39	34	61	1339	-119	36	20	35	-821	-2029	-2254	-211	-357	-680	-32	128	592	39.08	0.9714187021959044	41.86	0.9720404638539354	34.89463424682617	-86.61671447753906	240.6000061035156	2	12	0.5799999833106995	0.114501953125	0	0	0.0	0.0	0.0	0.0	-0.3306611156092723	0.0	0.0	-0.4210651305626253	0.7214360139	-0.4307080679999999	9.5653083435	-0.2147030979394912	-0.6467189192771912	-0.1962769776582718	0.7050763368606567	6	0.5815772374471029	-1.4436119079589844	0.4235296002	9.5186483028	-0.5886343596	0.2584248408	0.143569356	0.251246373	-0.007330382832	0.047647488408	0.041538836047999995	-1.003040717512	-2.4788911276879997	-2.753780483888	0.03538	0.77662	-0.06902	-0.12238	-0.20706	-0.39440000000000003	0.3409772205	4.831108829400001	-0.16869399329999998	-0.505185550172	-1.21562181964	-1.35612082392	-0.0435	0.28478	-0.23171000000000003	-0.94144	3.76576	17.41664	0.97172958302492	40.47
57614	0	6077034	65	1324	-82	-6	42	33	56	1340	-102	16	18	35	-811	-2012	-2316	-211	-357	-680	-64	-16	512	39.07	0.9716654330125832	41.84	0.9720207253886012	34.89463424682617	-86.61671447753906	240.6000061035156	2	12	0.5799999833106995	0.114501953125	0	0	0.0	0.0	0.0	0.0	-0.3488547290156526	0.0	0.0	-0.4214618100593346	0.6604190376	-0.4342973018999999	9.561719109599998	-0.2148839831352234	-0.6467646360397339	-0.1963260769844055	0.7049655914306641	6	0.5815772374471029	-1.4436119079589844	0.466600407	9.5042913672	-0.5886343596	0.1148554848	0.1292124204	0.251246373	-0.007330382832	0.051312679824	0.040317105576	-0.9908234127919999	-2.458121709664	-2.829527773152	0.03248	0.7772	-0.05916	-0.12238	-0.20706	-0.39440000000000003	0.2907279459	4.8167518938	-0.16869399329999998	-0.499076897812	-1.20340451492	-1.394605333788	-0.044950000000000004	0.28507	-0.22678	-1.88288	-0.47072	15.06304	0.9718430792005922	40.455
57615	0	6077140	65	1323	-87	-5	44	35	65	1332	-114	33	23	37	-811	-2012	-2316	-223	-361	-658	-96	48	544	39.06	0.9713693560325684	41.87	0.972010856155934	34.89463424682617	-86.61671447753906	240.6000061035156	2	12	0.5799999833106995	0.114501953125	0	0	0.0	0.0	0.0	0.0	-0.2868450789090651	0.0	0.0	-0.3382300592256788	0.7214360139	-0.4666004069999999	9.5294160045	-0.2148922532796859	-0.6469572186470032	-0.1962196230888366	0.7048159837722778	6	0.5815772374471029	-1.4436119079589844	0.466600407	9.497112899400001	-0.6245266986	0.2368894374	0.1651047594	0.26560330860000003	-0.0061086523599999994	0.053756140768	0.042760566519999994	-0.9908234127919999	-2.458121709664	-2.829527773152	0.0377	0.77256	-0.06612	-0.12934	-0.20938	-0.38164	0.3517449222	4.831108829400001	-0.17946169499999998	-0.498466032576	-1.202182784448	-1.3933836033159999	-0.04582000000000001	0.28159	-0.22388	-2.82432	1.41216	16.00448	0.9716901060942511	40.465
57616	0	6077245	66	1326	-86	-7	44	34	57	1341	-111	15	23	37	-802	-2006	-2279	-223	-361	-658	-112	96	576	39.07	0.9714384406612386	41.87	0.9719516407599308	34.89463424682617	-86.61671447753906	240.6000061035156	2	12	0.5799999833106995	0.114501953125	0	0	0.0	0.0	0.0	0.0	-0.2987884984262582	0.0	0.0	-0.3369048365191308	0.7070790782999999	-0.4414757696999999	9.5724868113	-0.2149496972560882	-0.6469790935516357	-0.1962219029664993	0.7047777771949768	6	0.5815772374471029	-1.4436119079589844	0.4737788748	9.5186483028	-0.6173482308	0.107677017	0.1651047594	0.26560330860000003	-0.008552113303999999	0.053756140768	0.041538836047999995	-0.9798278385439999	-2.450791326832	-2.784323745688	0.03306	0.77778	-0.06438	-0.12934	-0.20938	-0.38164	0.2907279459	4.8418765311000005	-0.1758724611	-0.49418997592399994	-1.198517593032	-1.37139245482	-0.04814	0.2842	-0.22300999999999999	-3.29504	2.82432	16.94592	0.9716950407105847	40.47
57617	0	6077351	74	1322	-89	-1	42	34	22	1341	-98	30	23	35	-802	-2006	-2279	-209	-357	-676	-176	48	576	39.07	0.9717147791759192	41.85	0.972079940784604	34.89463424682617	-86.61671447753906	240.6000061035156	2	12	0.5799999833106995	0.114501953125	0	0	0.0	0.0	0.0	0.0	-0.3034578999189689	0.0	0.0	-0.3338803033978866	0.6711867393	-0.3445664544	9.5581298757	-0.2149848937988281	-0.6469827890396118	-0.1962223798036575	0.7047634124755859	6	0.5815772374471029	-1.4436119079589844	0.5312066172000001	9.4899344316	-0.6388836342	0.215354034	0.1651047594	0.251246373	-0.001221730472	0.051312679824	0.041538836047999995	-0.9798278385439999	-2.450791326832	-2.784323745688	0.01276	0.77778	-0.05684	-0.12122	-0.20706	-0.39208	0.3732803256	4.8275195955	-0.1938186306	-0.49052478450799997	-1.199739323504	-1.37139245482	-0.05423	0.28536	-0.22446	-5.17792	1.41216	16.94592	0.9718973599802616	40.46
57618	0	6077456	61	1321	-87	-6	43	35	65	1338	-113	3	23	38	-825	-2026	-2313	-209	-357	-676	-48	48	496	39.07	0.9715075252899088	41.87	0.9720700715519368	34.89463424682617	-86.61671447753906	240.6000061035156	2	12	0.5799999833106995	0.114501953125	0	0	0.0	0.0	0.0	0.0	-0.2433654911414982	0.0	0.0	-0.2625369613688012	0.7178467799999999	-0.4522434714	9.543772940099998	-0.2150408774614334	-0.6471127867698669	-0.1961612701416015	0.7046441435813904	6	0.5815772374471029	-1.4436119079589844	0.43788653580000003	9.4827559638	-0.6245266986	0.0215354034	0.1651047594	0.2727817764	-0.007330382832	0.052534410296	0.042760566519999994	-1.0079276393999999	-2.475225936272	-2.8258625817359997	0.0377	0.77604	-0.06554	-0.12122	-0.20706	-0.39208	0.2297109696	4.8239303616	-0.1758724611	-0.5076290111159999	-1.211345762988	-1.3915510076079998	-0.04176	0.28448999999999997	-0.22880999999999999	-1.41216	1.41216	14.59232	0.9717887984209228	40.47
57619	0	6077561	58	1322	-81	-6	42	36	61	1335	-109	9	21	34	-825	-2026	-2313	-209	-355	-680	-64	48	512	39.07	0.9714384406612386	41.88	0.9720404638539354	34.89463424682617	-86.61671447753906	240.6000061035156	2	12	0.5799999833106995	0.114501953125	0	0	0.0	0.0	0.0	0.0	-0.1609201785314161	0.0	0.0	-0.1751592873537859	0.6819544409999999	-0.4271188340999999	9.5365944723	-0.1623928844928741	-0.6608688235282898	-0.1496378183364868	0.7172792553901672	6	0.5815772374471029	-1.4436119079589844	0.4163511324	9.4899344316	-0.5814558918	0.0646062102	0.1507478238	0.24406790520000002	-0.007330382832	0.051312679824	0.043982296992	-1.0079276393999999	-2.475225936272	-2.8258625817359997	0.03538	0.7743	-0.06322	-0.12122	-0.2059	-0.39440000000000003	0.2404786713	4.8203411277	-0.1686939933	-0.5076290111159999	-1.211956628224	-1.3909401423719998	-0.04292	0.2842	-0.22881	-1.88288	1.41216	15.06304	0.9717394522575871	40.475
57620	0	6077667	53	1315	-82	-5	44	33	61	1337	-107	20	24	36	-813	-2027	-2265	-209	-355	-680	-128	-16	560	39.07	0.9713890944979028	41.87	0.9722279792746114	34.89463424682617	-86.61671447753906	240.6999969482422	2	12	0.5799999833106995	0.114501953125	0	0	0.0	0.0	0.0	0.0	-0.1169705072872903	0.0	0.0	-0.1378480863074855	0.6783652070999999	-0.4091726646	9.5186483028	-0.1622812449932098	-0.6608662009239197	-0.1495875865221023	0.7173174619674683	6	0.5815772374471029	-1.4436119079589844	0.3804587934	9.439685157	-0.5886343596	0.143569356	0.1722832272	0.2584248408	-0.0061086523599999994	0.053756140768	0.040317105576	-0.993266873736	-2.476447666744	-2.7672195190799997	0.03538	0.77546	-0.06206	-0.12122	-0.2059	-0.39440000000000003	0.2620140747	4.8059841920999995	-0.1651047594	-0.499687763048	-1.211345762988	-1.363451206752	-0.04292	0.28478000000000003	-0.22823000000000002	-3.76576	-0.47072	16.4752	0.971808536886257	40.47
57621	0	6077772	63	1322	-83	-6	42	32	61	1336	-112	28	18	33	-813	-2027	-2265	-202	-350	-677	-96	128	576	39.07	0.9714384406612386	41.87	0.9721292869479398	34.89463424682617	-86.61671447753906	240.6999969482422	2	12	0.5799999833106995	0.081787109375	0	0	0.0	0.0	0.0	0.0	-0.0315668935087541	0.0	0.0	-0.0644208775158673	0.6999006105	-0.4450650036	9.5401837062	-0.1623020470142364	-0.6608893275260925	-0.1495584100484848	0.7172974944114685	6	0.5815772374471029	-1.4436119079589844	0.45224347140000004	9.4899344316	-0.5958128274000001	0.20099709840000002	0.1292124204	0.2368894374	-0.007330382832	0.051312679824	0.039095375104	-0.993266873736	-2.476447666744	-2.7672195190799997	0.03538	0.77488	-0.06496	-0.11716	-0.203	-0.39266	0.32662028490000006	4.809573426	-0.17946169500000003	-0.500298628284	-1.21256749346	-1.364062071988	-0.040889999999999996	0.28593999999999997	-0.22881	-2.82432	3.76576	16.94592	0.9717838638045893	40.47
57622	0	6077878	63	1321	-80	-6	42	36	69	1339	-112	16	20	34	-806	-2034	-2272	-202	-350	-677	-144	128	544	39.08	0.9715766099185787	41.85	0.9719713792252652	34.89463424682617	-86.61671447753906	240.6999969482422	2	12	0.5799999833106995	0.114501953125	0	0	0.0	0.0	0.0	0.0	-0.0846989939507691	0.0	0.0	-0.1378991312663553	0.6891329088	-0.4737788747999999	9.547362174	-0.1623641699552536	-0.6608084440231323	-0.1496361643075943	0.7173417210578918	6	0.5815772374471029	-1.4436119079589844	0.45224347140000004	9.4827559638	-0.574277424	0.1148554848	0.143569356	0.24406790520000002	-0.007330382832	0.051312679824	0.043982296992	-0.9847147604319999	-2.4849997800479997	-2.775771632384	0.04002	0.77662	-0.06496	-0.11716	-0.203	-0.39266	0.28354947810000003	4.813162659900001	-0.16510475940000002	-0.496022571632	-1.2168435501119998	-1.365894667696	-0.03857	0.28681	-0.22881	-4.23648	3.76576	16.00448	0.9717739945719219	40.465
57623	0	6077983	64	1322	-85	-7	44	37	21	1341	-105	43	22	35	-806	-2034	-2272	-202	-342	-681	-96	48	624	39.09	0.9715371329879102	41.86	0.9720009869232668	34.89463424682617	-86.61671447753906	240.6999969482422	2	12	0.5799999833106995	0.114501953125	0	0	0.0	0.0	0.0	0.0	-0.0903485450683181	0.0	0.0	-0.1571685360798683	0.6819544409999999	-0.3050848814999999	9.5581298757	-0.1623330861330032	-0.6609420776367188	-0.1495314687490463	0.7172474265098572	6	0.5815772374471029	-1.4436119079589844	0.4594219392	9.4899344316	-0.610169763	0.3086741154	0.15792629160000002	0.251246373	-0.008552113303999999	0.053756140768	0.045204027464	-0.9847147604319999	-2.4849997800479997	-2.775771632384	0.01218	0.77778	-0.0609	-0.11716	-0.19836	-0.39498	0.3840480273	4.8239303616	-0.179461695	-0.49663343686799993	-1.21562181964	-1.36528380246	-0.05249	0.28971	-0.22794	-2.82432	1.41216	18.35808	0.9717690599555885	40.475
57624	0	6078089	63	1323	-86	-6	45	36	58	1332	-112	34	21	37	-825	-2012	-2286	-202	-342	-681	-80	48	496	39.08	0.9714187021959044	41.88	0.9720996792499385	34.89463424682617	-86.61671447753906	240.6999969482422	2	12	0.5799999833106995	0.114501953125	0	0	0.0	0.0	0.0	0.0	-0.0291449619895718	0.0	0.0	-0.1030365615125424	0.7106683121999999	-0.4342973019	9.5294160045	-0.1623194962739944	-0.6609529852867126	-0.1495396196842193	0.7172388434410095	6	0.5815772374471029	-1.4436119079589844	0.45224347140000004	9.497112899400001	-0.6173482308	0.24406790520000002	0.1507478238	0.26560330860000003	-0.007330382832	0.05497787124	0.043982296992	-1.0079276393999999	-2.458121709664	-2.7928758589919997	0.03364	0.77256	-0.06496	-0.11716	-0.19836	-0.39498	0.34815568830000004	4.8239303616	-0.1758724611	-0.5076290111159999	-1.2015719192119998	-1.3744467809999998	-0.04176	0.2871	-0.22997	-2.3536	1.41216	14.59232	0.9717591907229215	40.480000000000004
57625	0	6078194	63	1322	-89	-9	44	36	61	1334	-117	7	20	37	-825	-2012	-2286	-226	-355	-689	-64	80	560	39.09	0.9715371329879102	41.86	0.971892425363928	34.89463424682617	-86.61671447753906	240.6999969482422	2	12	0.5799999833106995	0.114501953125	0	0	0.0	0.0	0.0	0.0	-0.0635760974903263	0.0	0.0	-0.1520224713606283	0.7393821834	-0.4450650036	9.5330052384	-0.1623371839523315	-0.6609224081039429	-0.1495599299669265	0.7172586917877197	6	0.5815772374471029	-1.4436119079589844	0.45224347140000004	9.4899344316	-0.6388836342	0.050249274600000005	0.143569356	0.26560330860000003	-0.010995574248	0.053756140768	0.043982296992	-1.0079276393999999	-2.458121709664	-2.7928758589919997	0.03538	0.77372	-0.06786	-0.13108	-0.2059	-0.39962	0.251246373	4.8167518938	-0.1866401628	-0.5094616068239999	-1.202182784448	-1.3744467809999998	-0.047850000000000004	0.28391	-0.23374	-1.88288	2.3536	16.4752	0.9717147791759191	40.475
57626	0	6078300	69	1321	-93	-11	43	35	45	1337	-120	20	18	34	-810	-2015	-2283	-226	-355	-689	-64	64	608	39.08	0.971527263755243	41.85	0.9719812484579324	34.89463424682617	-86.61671447753906	240.6999969482422	2	12	0.5799999833106995	0.114501953125	0	0	0.0	0.0	0.0	0.0	0.0228099388660291	0.0	0.0	-0.0720020852381297	0.7645068206999999	-0.4091726645999999	9.5401837062	-0.1624409556388855	-0.6610063314437866	-0.149533063173294	0.7171635627746582	6	0.5815772374471029	-1.4436119079589844	0.4953142782	9.4827559638	-0.6675975054000001	0.143569356	0.1292124204	0.24406790520000002	-0.013439035192	0.052534410296	0.042760566519999994	-0.9896016823199999	-2.46178690108	-2.789210667576	0.0261	0.77546	-0.0696	-0.13108	-0.2059	-0.39962	0.3194418171	4.8059841921	-0.21176480010000004	-0.501520358756	-1.204626245392	-1.373225050528	-0.05249	0.28478000000000003	-0.23460999999999999	-1.88288	1.88288	17.88736	0.9717542561065877	40.465
57627	0	6078405	67	1322	-82	-7	42	34	68	1333	-113	14	24	39	-810	-2015	-2283	-222	-368	-643	-48	48	528	39.08	0.97146804835924	41.85	0.9719713792252652	34.89463424682617	-86.61671447753906	240.6999969482422	2	12	0.5799999833106995	0.114501953125	0	0	0.0	0.0	0.0	0.0	0.0690584353063067	0.0	0.0	-0.0423926026671084	0.6999006105	-0.4845465765	9.5294160045	-0.1624141782522201	-0.6609950065612793	-0.1494961529970169	0.7171876430511475	6	0.5815772374471029	-1.4436119079589844	0.4809573426	9.4899344316	-0.5886343596	0.10049854920000001	0.1722832272	0.2799602442	-0.008552113303999999	0.051312679824	0.041538836047999995	-0.9896016823199999	-2.46178690108	-2.789210667576	0.03944	0.77314	-0.06554	-0.12876	-0.21344	-0.37294	0.2907279459	4.8311088294	-0.1543370577	-0.49907689781199993	-1.205237110628	-1.373835915764	-0.044660000000000005	0.27985000000000004	-0.21924	-1.41216	1.41216	15.533760000000001	0.9717197137922526	40.465
57628	0	6078511	62	1323	-81	-5	41	34	58	1339	-109	5	19	37	-807	-2035	-2271	-222	-368	-643	-32	80	464	39.08	0.971517394522576	41.87	0.9719022945965952	34.89463424682617	-86.61671447753906	240.6999969482422	2	12	0.5799999833106995	0.114501953125	0	0	0.0	0.0	0.0	0.0	0.0366803929186328	0.0	0.0	-0.0970834108288054	0.6819544409999999	-0.4307080679999999	9.5545406418	-0.2121509760618209	-0.6453006863594055	-0.1934376358985901	0.7079271674156189	6	0.5815772374471029	-1.4436119079589844	0.4450650036	9.497112899400001	-0.5814558918	0.035892339	0.1363908882	0.26560330860000003	-0.0061086523599999994	0.050090949351999994	0.041538836047999995	-0.9859364909039999	-2.48622151052	-2.7745499019119997	0.03364	0.77662	-0.06322	-0.12876	-0.21344	-0.37294	0.2404786713	4.8167518938	-0.1579262916	-0.496022571632	-1.218065280584	-1.366505532932	-0.047560000000000005	0.28159	-0.21808	-0.94144	2.3536	13.65088	0.9717098445595855	40.474999999999994
57629	0	6078616	60	1324	-82	-6	44	33	59	1339	-111	12	26	38	-821	-2017	-2272	-210	-365	-664	-144	96	528	39.07	0.9715075252899088	41.87	0.9721292869479398	34.89463424682617	-86.61671447753906	240.6999969482422	2	12	0.5799999833106995	0.114501953125	0	0	0.0	0.0	0.0	0.0	-0.0852651736210743	0.0	0.0	-0.2393925287962514	0.6927221427	-0.4271188340999999	9.5581298757	-0.212137684226036	-0.645241916179657	-0.1934405714273452	0.7079840302467346	6	0.5815772374471029	-1.4436119079589844	0.430708068	9.5042913672	-0.5886343596	0.0861416136	0.1866401628	0.2727817764	-0.007330382832	0.053756140768	0.040317105576	-1.003040717512	-2.464230362024	-2.775771632384	0.03422	0.77662	-0.06438	-0.1218	-0.2117	-0.38512	0.2584248408	4.845465765	-0.1579262916	-0.505185550172	-1.205237110628	-1.367727263404	-0.04379	0.28246	-0.22475	-4.23648	2.82432	15.533760000000001	0.9718184061189243	40.47
57630	0	6078721	60	1323	-85	-7	46	37	64	1334	-117	39	19	35	-821	-2017	-2272	-210	-365	-664	-64	112	624	39.08	0.9716358253145818	41.87	0.9720602023192696	34.89463424682617	-86.61671447753906	240.6999969482422	2	12	0.5799999833106995	0.114501953125	0	0	0.0	0.0	0.0	0.0	-0.1148081498857487	0.0	0.0	-0.2715305859354558	0.7250252477999999	-0.4450650035999999	9.5365944723	-0.2121086716651916	-0.6451954245567322	-0.1934671700000763	0.7080277800559998	6	0.5815772374471029	-1.4436119079589844	0.430708068	9.497112899400001	-0.610169763	0.2799602442	0.1363908882	0.251246373	-0.008552113303999999	0.056199601711999995	0.045204027464	-1.003040717512	-2.464230362024	-2.775771632384	0.03712	0.77372	-0.06786	-0.1218	-0.2117	-0.38512	0.35533415609999996	4.8167518938	-0.179461695	-0.505796415408	-1.2040153801559998	-1.36528380246	-0.04234	0.28101	-0.22649000000000002	-1.88288	3.29504	18.35808	0.9718480138169256	40.474999999999994
57631	0	6078827	61	1319	-82	-5	39	35	64	1334	-110	9	20	38	-825	-2010	-2277	-235	-366	-660	-144	96	544	39.07	0.9714483098939056	41.85	0.9719220330619296	34.89463424682617	-86.61671447753906	240.6999969482422	2	12	0.5799999833106995	0.114501953125	0	0	0.0	0.0	0.0	0.0	-0.0656702201395075	0.0	0.0	-0.2176813363259524	0.6891329088	-0.4486542375	9.5222375367	-0.2121793776750564	-0.6450703740119934	-0.1935146003961563	0.7081075310707092	6	0.5815772374471029	-1.4436119079589844	0.43788653580000003	9.4683990282	-0.5886343596	0.0646062102	0.143569356	0.2727817764	-0.0061086523599999994	0.047647488408	0.042760566519999994	-1.0079276393999999	-2.45567824872	-2.7818802847439996	0.03712	0.77372	-0.0638	-0.1363	-0.21228	-0.38280000000000003	0.251246373	4.8059841921	-0.1579262916	-0.5070181458799999	-1.204015380156	-1.3695598591119997	-0.04959	0.28071999999999997	-0.2233	-4.23648	2.82432	16.00448	0.9716851714779176	40.46
57632	0	6078932	66	1325	-83	1	53	36	41	1336	-115	9	25	40	-825	-2010	-2277	-235	-366	-660	-128	64	496	39.08	0.971517394522576	41.87	0.9722378485072786	34.89463424682617	-86.61671447753906	240.6999969482422	2	12	0.5799999833106995	0.114501953125	0	0	0.0	0.0	0.0	0.0	-0.0914954465248463	0.0	0.0	-0.2487688518570093	0.7106683121999999	-0.3840480273	9.5509514079	-0.2120544463396072	-0.644952654838562	-0.1935096383094787	0.7082535624504089	6	0.5815772374471029	-1.4436119079589844	0.4737788748	9.511469835	-0.5958128274000001	0.0646062102	0.179461695	0.287138712	0.001221730472	0.064751715016	0.043982296992	-1.0079276393999999	-2.45567824872	-2.7818802847439996	0.02378	0.77488	-0.0667	-0.1363	-0.21228	-0.38280000000000003	0.2691925425	4.845465765	-0.15433705770000003	-0.503352954464	-1.195463266852	-1.3689489938759998	-0.056260000000000004	0.2813	-0.22475	-3.76576	1.88288	14.59232	0.9718776215149273	40.474999999999994
57633	0	6079038	61	1323	-87	-6	43	34	60	1334	-114	32	20	37	-797	-2007	-2266	-225	-379	-659	-160	96	608	39.07	0.971458179126573	41.86	0.9719319022945966	34.89463424682617	-86.61671447753906	240.6999969482422	2	12	0.5799999833106995	0.114501953125	0	0	0.0	0.0	0.0	0.0	-0.0940693766364832	0.0	0.0	-0.2502408167342758	0.7214360139	-0.4342973018999999	9.5365944723	-0.211981788277626	-0.6450892090797424	-0.1934212446212768	0.7081750631332397	6	0.5815772374471029	-1.4436119079589844	0.43788653580000003	9.497112899400001	-0.6245266986	0.2297109696	0.143569356	0.26560330860000003	-0.007330382832	0.052534410296	0.041538836047999995	-0.973719186184	-2.4520130573039998	-2.7684412495519997	0.0348	0.77372	-0.06612	-0.1305	-0.21982	-0.38222	0.33379875270000003	4.820341127700001	-0.17946169499999998	-0.490524784508	-1.199739323504	-1.363451206752	-0.047850000000000004	0.27695	-0.22417	-4.7072	2.82432	17.88736	0.9716950407105848	40.465
57634	0	6079143	60	1329	-84	-7	38	31	62	1335	-110	12	21	37	-797	-2007	-2266	-225	-379	-659	-64	48	576	39.08	0.9715766099185787	41.84	0.9718529484332592	34.89463424682617	-86.61671447753906	240.6999969482422	2	12	0.5799999833106995	0.114501953125	0	0	0.0	0.0	0.0	0.0	-0.024024206806563	0.0	0.0	-0.1763677171603923	0.6963113766	-0.4378865357999999	9.561719109599998	-0.2120701223611831	-0.6449450254440308	-0.1936122924089431	0.7082277536392212	6	0.5815772374471029	-1.4436119079589844	0.430708068	9.5401837062	-0.6029912952	0.0861416136	0.1507478238	0.26560330860000003	-0.008552113303999999	0.046425757936	0.037873644632	-0.973719186184	-2.4520130573039998	-2.7684412495519997	0.03596	0.7743	-0.0638	-0.1305	-0.21982	-0.38222	0.2584248408	4.845465765	-0.1686939933	-0.491135649744	-1.202793649684	-1.3652838024599998	-0.047270000000000006	0.27724	-0.22300999999999999	-1.88288	1.41216	16.94592	0.971714779175919	40.46
57635	0	6079249	60	1323	-88	-5	43	36	64	1337	-114	4	22	36	-798	-2006	-2269	-203	-364	-693	-208	80	464	39.09	0.9714285714285714	41.85	0.9720305946212682	34.89463424682617	-86.61671447753906	240.6999969482422	2	12	0.5799999833106995	0.114501953125	0	0	0.0	0.0	0.0	0.0	0.0245578014176062	0.0	0.0	-0.1327260990828065	0.7250252477999999	-0.4450650035999999	9.547362174	-0.2121096551418304	-0.6449412107467651	-0.1936158984899521	0.7082184553146362	6	0.5815772374471029	-1.4436119079589844	0.430708068	9.497112899400001	-0.6317051664000001	0.0287138712	0.15792629160000002	0.2584248408	-0.0061086523599999994	0.052534410296	0.043982296992	-0.9749409166559999	-2.450791326832	-2.772106440968	0.03712	0.77546	-0.06612	-0.11774	-0.21112	-0.40194	0.2297109696	4.827519595500001	-0.18664016280000004	-0.49052478450799997	-1.199128458268	-1.364062071988	-0.04031	0.28217000000000003	-0.23403000000000002	-6.11936	2.3536	13.65088	0.9717295830249197	40.47
57636	0	6079354	60	1328	-84	-4	45	35	67	1336	-110	31	22	30	-798	-2006	-2269	-203	-364	-693	-144	48	576	39.07	0.971458179126573	41.85	0.9719812484579324	34.89463424682617	-86.61671447753906	240.6999969482422	2	12	0.5799999833106995	0.114501953125	0	0	0.0	0.0	0.0	0.0	0.0442849832413198	0.0	0.0	-0.1228816012583618	0.6963113766	-0.4558327053	9.561719109599998	-0.2121392041444778	-0.6450195908546448	-0.1935457438230514	0.7081573605537415	6	0.5815772374471029	-1.4436119079589844	0.430708068	9.533005238400001	-0.6029912952	0.2225325018	0.15792629160000002	0.215354034	-0.004886921888	0.05497787124	0.042760566519999994	-0.9749409166559999	-2.450791326832	-2.772106440968	0.03886	0.77488	-0.0638	-0.11774	-0.21112	-0.40194	0.3266202849	4.845465765000001	-0.19381863060000004	-0.48991391927199995	-1.1979067277959998	-1.3646729372239998	-0.03944	0.28188	-0.23287000000000002	-4.23648	1.41216	16.94592	0.9717197137922526	40.46
57637	0	6079460	60	1329	-84	-7	45	36	63	1346	-113	19	23	34	-811	-2035	-2263	-188	-332	-686	-144	128	640	39.07	0.9713890944979028	41.87	0.972010856155934	34.89463424682617	-86.61671447753906	240.6999969482422	2	12	0.5799999833106995	0.114501953125	0	0	0.0	0.0	0.0	0.0	-0.0634595133492103	0.0	0.0	-0.2473606636989044	0.7070790782999999	-0.4414757696999999	9.6012006825	-0.2120223492383957	-0.6450413465499878	-0.1934276819229126	0.7082048058509827	6	0.5815772374471029	-1.4436119079589844	0.430708068	9.5401837062	-0.6029912952	0.1363908882	0.1651047594	0.24406790520000002	-0.008552113303999999	0.05497787124	0.043982296992	-0.9908234127919999	-2.48622151052	-2.764776058136	0.03654	0.78068	-0.06554	-0.10904	-0.19256	-0.39788	0.2835494781	4.8526442328	-0.17946169500000003	-0.49968776304799994	-1.21562181964	-1.360396880572	-0.03625	0.29406	-0.23171	-4.23648	3.76576	18.8288	0.9716999753269184	40.47
57638	0	6079565	67	1325	-88	-3	40	33	33	1337	-107	6	18	38	-811	-2035	-2263	-188	-332	-686	-32	112	512	39.08	0.9715766099185787	41.86	0.9719911176905996	34.89463424682617	-86.61671447753906	240.6999969482422	2	12	0.5799999833106995	0.114501953125	0	0	0.0	0.0	0.0	0.0	-0.0315016237990819	0.0	0.0	-0.2111781960709911	0.6999006105	-0.3589233899999999	9.5545406418	-0.2029392719268798	-0.648678183555603	-0.1854512989521026	0.7096760869026184	6	0.5815772374471029	-1.4436119079589844	0.4809573426	9.511469835	-0.6317051664000001	0.0430708068	0.1292124204	0.2727817764	-0.003665191416	0.048869218879999995	0.040317105576	-0.9908234127919999	-2.48622151052	-2.764776058136	0.01914	0.77546	-0.06206	-0.10904	-0.19256	-0.39788	0.2620140747	4.8203411277	-0.17946169500000003	-0.49724430210399995	-1.21867614582	-1.36222947628	-0.04495	0.29145	-0.22997	-0.94144	3.29504	15.06304	0.9717838638045893	40.47
57639	0	6079670	70	1329	-83	-6	42	37	64	1333	-105	16	22	38	-808	-2016	-2248	-195	-341	-668	-96	-48	528	39.08	0.971527263755243	41.88	0.972208240809277	34.89463424682617	-86.61671447753906	240.6999969482422	2	12	0.5899999737739563	0.114501953125	0	0	0.0	0.0	0.0	0.0	-0.0537894027291681	0.0	0.0	-0.2389689792380724	0.6747759731999999	-0.4809573425999999	9.5545406418	-0.2031266093254089	-0.6486973762512207	-0.1856204718351364	0.709560751914978	6	0.5815772374471029	-1.4436119079589844	0.502492746	9.5401837062	-0.5958128274000001	0.1148554848	0.15792629160000002	0.2727817764	-0.007330382832	0.051312679824	0.045204027464	-0.987158221376	-2.463008631552	-2.746450101056	0.03712	0.77314	-0.0609	-0.1131	-0.19778	-0.38744	0.3086741154	4.849054998900001	-0.16151552550000003	-0.497244302104	-1.205847975864	-1.350623036796	-0.03799	0.28768000000000005	-0.22417	-2.82432	-1.41216	15.533760000000001	0.9718677522822601	40.480000000000004
57640	0	6079776	63	1323	-84	-9	45	36	62	1335	-107	18	23	36	-808	-2016	-2248	-195	-341	-668	-208	96	496	39.08	0.97146804835924	41.88	0.972149025413274	34.89463424682617	-86.61671447753906	240.6999969482422	2	12	0.5899999737739563	0.114501953125	0	0	0.0	0.0	0.0	0.0	-0.146772501806373	0.0	0.0	-0.3337860554505599	0.6855436748999999	-0.4486542375	9.5401837062	-0.2029201835393905	-0.6487088799476624	-0.1855022460222244	0.7096401453018188	6	0.5815772374471029	-1.4436119079589844	0.45224347140000004	9.497112899400001	-0.6029912952	0.1292124204	0.1651047594	0.2584248408	-0.010995574248	0.05497787124	0.043982296992	-0.987158221376	-2.463008631552	-2.746450101056	0.03596	0.7743	-0.06206	-0.1131	-0.19778	-0.38744	0.2907279459	4.831108829400001	-0.17228322720000003	-0.499076897812	-1.2040153801559998	-1.351233902032	-0.03857000000000001	0.28825999999999996	-0.22475	-6.11936	2.82432	14.59232	0.971808536886257	40.480000000000004
57641	0	6079881	53	1330	-79	9	35	38	18	1342	-111	35	18	33	-825	-2037	-2285	-228	-359	-676	-112	128	576	39.07	0.9716160868492476	41.87	0.9721885023439428	34.89463424682617	-86.61671447753906	240.6999969482422	2	12	0.5899999737739563	0.081787109375	0	0	0.0	0.0	0.0	0.0	-0.2393820096568994	0.0	0.0	-0.4216030178064947	0.681954441	-0.2548356069	9.5904329808	-0.2028547525405883	-0.6488222479820251	-0.1854386925697326	0.7095718383789062	6	0.5815772374471029	-1.4436119079589844	0.3804587934	9.547362174	-0.5670989562000001	0.251246373	0.1292124204	0.2368894374	0.010995574248	0.042760566519999994	0.046425757936	-1.0079276393999999	-2.488664971464	-2.79165412852	0.01044	0.77836	-0.06438	-0.13224	-0.20822	-0.39208	0.3158525832	4.8382872972	-0.16510475940000002	-0.4984660325759999	-1.2229522024719999	-1.372614185292	-0.060899999999999996	0.28507000000000005	-0.22823	-3.29504	3.76576	16.94592	0.9719022945965952	40.47
57642	0	6079987	65	1324	-83	-6	40	36	65	1334	-107	7	21	36	-825	-2037	-2285	-228	-359	-676	-144	80	640	39.1	0.9715075252899088	41.87	0.972010856155934	34.89463424682617	-86.61671447753906	240.6999969482422	2	12	0.5799999833106995	0.114501953125	0	0	0.0	0.0	0.0	0.0	-0.1881714756880068	0.0	0.0	-0.3505724175619753	0.681954441	-0.4666004069999999	9.5401837062	-0.2028844654560089	-0.6487449407577515	-0.185440793633461	0.7096334099769592	6	0.5815772374471029	-1.4436119079589844	0.466600407	9.5042913672	-0.5958128274000001	0.050249274600000005	0.1507478238	0.2584248408	-0.007330382832	0.048869218879999995	0.043982296992	-1.0079276393999999	-2.488664971464	-2.79165412852	0.0377	0.77372	-0.06206	-0.13224	-0.20822	-0.39208	0.2584248408	4.8275195955	-0.16869399330000004	-0.5076290111159999	-1.2198978762919999	-1.3738359157639999	-0.04727	0.28275	-0.22707	-4.23648	2.3536	18.8288	0.9717591907229214	40.485
57643	0	6080092	58	1324	-86	-5	40	37	70	1339	-109	24	17	33	-804	-2015	-2298	-218	-361	-679	-176	64	576	39.08	0.9714088329632372	41.87	0.9721687638786084	34.89463424682617	-86.61671447753906	240.6999969482422	2	12	0.5799999833106995	0.114501953125	0	0	0.0	0.0	0.0	0.0	-0.1375974565890603	0.0	0.0	-0.285426411051814	0.6999006104999999	-0.4594219391999999	9.5581298757	-0.203055202960968	-0.6488403081893921	-0.1855171918869018	0.7094774842262268	6	0.5815772374471029	-1.4436119079589844	0.4163511324	9.5042913672	-0.6173482308	0.1722832272	0.12203395260000001	0.2368894374	-0.0061086523599999994	0.048869218879999995	0.045204027464	-0.982271299488	-2.46178690108	-2.8075366246559996	0.0406	0.77662	-0.06322	-0.12644	-0.20938	-0.39382	0.2943171798	4.813162659900001	-0.1902293967	-0.494189975924	-1.2064588411	-1.3811662985959998	-0.04292	0.28362	-0.22852	-5.17792	1.88288	16.94592	0.9717887984209228	40.474999999999994
57644	0	6080198	59	1322	-79	-8	47	34	69	1345	-107	18	21	32	-804	-2015	-2298	-218	-361	-679	-112	32	560	39.08	0.971517394522576	41.87	0.972079940784604	34.89463424682617	-86.61671447753906	240.6999969482422	2	12	0.5799999833106995	0.114501953125	0	0	0.0	0.0	0.0	0.0	-0.1826372387090416	0.0	0.0	-0.3280847054567387	0.6675975054	-0.4594219391999999	9.5724868113	-0.2030616551637649	-0.6487213373184204	-0.1855577677488327	0.7095737457275391	6	0.5815772374471029	-1.4436119079589844	0.4235296002	9.4899344316	-0.5670989562000001	0.1292124204	0.1507478238	0.2297109696	-0.009773843776	0.057421332183999994	0.041538836047999995	-0.982271299488	-2.46178690108	-2.8075366246559996	0.04002	0.7801	-0.06206	-0.12644	-0.20938	-0.39382	0.2763710103	4.8203411277	-0.1686939933	-0.496022571632	-1.202182784448	-1.382998894304	-0.04321	0.28536	-0.22794	-3.29504	0.94144	16.4752	0.97179866765359	40.474999999999994
57645	0	6080303	60	1320	-84	-6	47	36	61	1336	-114	31	25	35	-831	-2009	-2283	-213	-343	-649	-64	48	528	39.07	0.9715667406859116	41.87	0.9720700715519368	34.89463424682617	-86.61671447753906	240.6999969482422	2	12	0.5799999833106995	0.114501953125	0	0	0.0	0.0	0.0	0.0	-0.1674472245732693	0.0	0.0	-0.3021986830098191	0.7106683121999999	-0.4342973018999999	9.5330052384	-0.2028615176677703	-0.6488078832626343	-0.1854196339845657	0.7095880508422852	6	0.5815772374471029	-1.4436119079589844	0.430708068	9.475577496	-0.6029912952	0.2225325018	0.179461695	0.251246373	-0.007330382832	0.057421332183999994	0.043982296992	-1.015258022232	-2.454456518248	-2.789210667576	0.03538	0.77488	-0.06612	-0.12354	-0.19894	-0.37642	0.3266202849	4.8275195955	-0.17587246110000002	-0.511294202532	-1.198517593032	-1.372614185292	-0.044079999999999994	0.28797	-0.22127	-1.88288	1.41216	15.533760000000001	0.9718184061189242	40.47
57646	0	6080409	62	1322	-84	-7	40	33	61	1337	-115	29	18	36	-828	-2003	-2313	-213	-343	-649	-96	96	576	39.08	0.97146804835924	41.87	0.9721292869479398	34.89463424682617	-86.61671447753906	240.6999969482422	2	12	0.5799999833106995	0.114501953125	0	0	0.0	0.0	0.0	0.0	-0.2041068084104984	0.0	0.0	-0.3359193867962833	0.7142575460999999	-0.4414757696999999	9.543772940099998	-0.2029739171266555	-0.648891031742096	-0.185468316078186	0.7094670534133911	6	0.5815772374471029	-1.4436119079589844	0.4450650036	9.4899344316	-0.6029912952	0.2081755662	0.1292124204	0.2584248408	-0.008552113303999999	0.048869218879999995	0.040317105576	-1.011592830816	-2.4471261354159997	-2.8258625817359997	0.03538	0.77546	-0.0667	-0.12354	-0.19894	-0.37642	0.3266202849	4.809573426	-0.17228322720000003	-0.5100724720600001	-1.1991284582679997	-1.39277273808	-0.044079999999999994	0.28826	-0.22155999999999998	-2.82432	2.82432	16.94592	0.9717986676535899	40.474999999999994
57647	0	6080514	55	1324	-83	-5	44	34	13	1341	-107	13	23	37	-828	-2003	-2313	-229	-349	-677	-80	96	576	39.08	0.9715766099185787	41.87	0.9719022945965952	34.89463424682617	-86.61671447753906	240.6999969482422	2	12	0.5799999833106995	0.114501953125	0	0	0.0	0.0	0.0	0.0	-0.2326381814243782	0.0	0.0	-0.354626567586517	0.681954441	-0.2440679051999999	9.5653083435	-0.2030859291553497	-0.6487652659416199	-0.1855892688035965	0.7095184326171875	6	0.5815772374471029	-1.4436119079589844	0.394815729	9.5042913672	-0.5958128274000001	0.0933200814	0.1651047594	0.26560330860000003	-0.0061086523599999994	0.053756140768	0.041538836047999995	-1.011592830816	-2.4471261354159997	-2.8258625817359997	0.00754	0.77778	-0.06206	-0.13282	-0.20242	-0.39266	0.2440679052	4.8346980633	-0.16510475940000002	-0.508850741588	-1.196684997324	-1.392161872844	-0.06264	0.28768000000000005	-0.22736	-2.3536	2.82432	16.94592	0.971739452257587	40.474999999999994
57648	0	6080619	56	1326	-86	-5	45	35	64	1333	-108	34	23	30	-827	-2017	-2278	-229	-349	-677	-160	128	480	39.08	0.9716259560819146	41.87	0.9718036022699236	34.89463424682617	-86.61671447753906	240.6999969482422	2	12	0.5699999928474426	0.081787109375	0	0	0.0	0.0	0.0	0.0	-0.212637453050061	0.0	0.0	-0.319244708951484	0.6963113766	-0.4307080679999999	9.543772940099998	-0.1253301054239273	-0.6698576807975769	-0.1161914095282554	0.7225528955459595	6	0.5815772374471029	-1.4436119079589844	0.40199419680000004	9.5186483028	-0.6173482308	0.24406790520000002	0.1651047594	0.215354034	-0.0061086523599999994	0.05497787124	0.042760566519999994	-1.010371100344	-2.464230362024	-2.783102015216	0.03712	0.77314	-0.06264	-0.13282	-0.20242	-0.39266	0.323031051	4.8418765311000005	-0.20099709840000002	-0.508239876352	-1.2046262453919998	-1.370170724348	-0.04785	0.28536000000000006	-0.22765000000000002	-4.7072	3.76576	14.1216	0.9717147791759191	40.474999999999994
57649	0	6080725	60	1326	-92	-6	44	36	58	1335	-117	26	20	37	-827	-2017	-2278	-198	-367	-690	-96	128	432	39.07	0.9714877868245744	41.87	0.9721885023439428	34.89463424682617	-86.61671447753906	240.6999969482422	2	12	0.5699999928474426	0.114501953125	0	0	0.0	0.0	0.0	0.0	-0.2662162359777218	0.0	0.0	-0.3635182779857278	0.7501498850999999	-0.4235296001999999	9.5509514079	-0.1252741664648056	-0.6699397563934326	-0.1161753162741661	0.722489058971405	6	0.5815772374471029	-1.4436119079589844	0.430708068	9.5186483028	-0.6604190376	0.1866401628	0.143569356	0.26560330860000003	-0.007330382832	0.053756140768	0.043982296992	-1.010371100344	-2.464230362024	-2.783102015216	0.03364	0.7743	-0.06786	-0.11484	-0.21286	-0.4002	0.3086741154	4.831108829400001	-0.19740786449999997	-0.5088507415879999	-1.205237110628	-1.369559859112	-0.0406	0.28071999999999997	-0.23403000000000002	-2.82432	3.76576	12.70944	0.9718381445842585	40.47
57650	0	6080830	59	1323	-91	-6	43	37	60	1337	-114	23	19	37	-809	-2000	-2275	-206	-347	-690	-64	-48	576	39.08	0.971349617567234	41.87	0.9719516407599308	34.89463424682617	-86.61671447753906	240.6999969482422	2	12	0.5699999928474426	0.114501953125	0	0	0.0	0.0	0.0	0.0	-0.215568473453126	0.0	0.0	-0.2969088913561369	0.7357929495	-0.4271188340999999	9.547362174	-0.1253410577774047	-0.670008659362793	-0.1162524819374084	0.7224011421203613	6	0.5815772374471029	-1.4436119079589844	0.4235296002	9.497112899400001	-0.6532405698	0.1651047594	0.1363908882	0.26560330860000003	-0.007330382832	0.052534410296	0.045204027464	-0.988379951848	-2.443460944	-2.7794368238	0.0348	0.77546	-0.06612	-0.11948	-0.20126	-0.4002	0.2943171798	4.8167518938	-0.19381863059999999	-0.49785516734	-1.195463266852	-1.367116398168	-0.04234	0.2871	-0.23316	-1.88288	-1.41216	16.94592	0.9716506291635825	40.474999999999994
57651	0	6080936	58	1318	-86	-4	42	34	64	1338	-109	13	20	37	-809	-2000	-2275	-206	-347	-690	-144	48	464	39.1	0.9715568714532444	41.86	0.9721095484826054	34.89463424682617	-86.61671447753906	240.6999969482422	2	12	0.5699999928474426	0.081787109375	0	0	0.0	0.0	0.0	0.0	-0.2428922491585611	0.0	0.0	-0.3198738831896603	0.6999006104999999	-0.4378865358	9.5330052384	-0.1255269944667816	-0.6700099110603333	-0.1163872331380844	0.7223460674285889	6	0.5815772374471029	-1.4436119079589844	0.4163511324	9.461220560400001	-0.6173482308	0.0933200814	0.143569356	0.26560330860000003	-0.004886921888	0.051312679824	0.041538836047999995	-0.988379951848	-2.443460944	-2.7794368238	0.03712	0.77604	-0.06322	-0.11948	-0.20126	-0.4002	0.2548356069	4.802394958200001	-0.1758724611	-0.496633436868	-1.196074132088	-1.368948993876	-0.04118	0.28739	-0.23171	-4.23648	1.41216	13.65088	0.971833209967925	40.480000000000004
57652	0	6081041	64	1326	-81	-4	43	34	61	1335	-112	15	25	34	-829	-2008	-2283	-213	-368	-661	-96	48	544	39.08	0.97146804835924	41.86	0.9719417715272638	34.89463424682617	-86.61671447753906	240.6999969482422	2	12	0.5699999928474426	0.114501953125	0	0	0.0	0.0	0.0	0.0	-0.1692972792537991	0.0	0.0	-0.2345367118527408	0.6927221426999999	-0.4486542375	9.5509514079	-0.1255679726600647	-0.6700347661972046	-0.1164060607552528	0.7223128080368042	6	0.5815772374471029	-1.4436119079589844	0.4594219392	9.5186483028	-0.5814558918	0.107677017	0.179461695	0.24406790520000002	-0.004886921888	0.052534410296	0.041538836047999995	-1.012814561288	-2.4532347877759997	-2.789210667576	0.03538	0.7743	-0.06496	-0.12354	-0.21344	-0.38338	0.28354947810000003	4.849054998900001	-0.1686939933	-0.508850741588	-1.2003501887399999	-1.373835915764	-0.044079999999999994	0.28043	-0.22417	-2.82432	1.41216	16.00448	0.971704909943252	40.47
57653	0	6081147	61	1325	-80	-9	42	33	58	1344	-104	8	22	42	-829	-2008	-2283	-213	-368	-661	-128	80	576	39.09	0.9713101406365656	41.87	0.9719713792252652	34.89463424682617	-86.61671447753906	240.6999969482422	2	12	0.5699999928474426	0.114501953125	0	0	0.0	0.0	0.0	0.0	-0.0951049345047405	0.0	0.0	-0.1562510515430807	0.6604190375999999	-0.4271188340999999	9.5796652791	-0.1254714280366897	-0.6700006127357483	-0.1163475885987281	0.7223707437515259	6	0.5815772374471029	-1.4436119079589844	0.43788653580000003	9.511469835	-0.574277424	0.0574277424	0.15792629160000002	0.3014956476	-0.010995574248	0.051312679824	0.040317105576	-1.012814561288	-2.4532347877759997	-2.789210667576	0.03364	0.77952	-0.06032	-0.12354	-0.21344	-0.38338	0.2476571391	4.8346980633	-0.1363908882	-0.5119050677679999	-1.2009610539759998	-1.374446781	-0.04495	0.28304	-0.22185	-3.76576	2.3536	16.94592	0.9716407599309154	40.480000000000004
57654	0	6081252	62	1325	-82	-7	37	31	60	1343	-114	12	19	34	-842	-2020	-2263	-214	-366	-690	-128	80	528	39.08	0.9715766099185787	41.87	0.9719022945965952	34.89463424682617	-86.61671447753906	240.6999969482422	2	12	0.5699999928474426	0.114501953125	0	0	0.0	0.0	0.0	0.0	-0.0420495959864766	0.0	0.0	-0.1098284010774403	0.7034898444	-0.4378865357999999	9.5760760452	-0.1256104409694671	-0.6699275374412537	-0.1164399310946464	0.7223994135856628	6	0.5815772374471029	-1.4436119079589844	0.4450650036	9.511469835	-0.5886343596	0.0861416136	0.1363908882	0.24406790520000002	-0.008552113303999999	0.045204027464	0.037873644632	-1.028697057424	-2.46789555344	-2.764776058136	0.0348	0.77894	-0.06612	-0.12412	-0.21228	-0.4002	0.26560330860000003	4.8239303615999996	-0.1722832272	-0.518624585364	-1.211345762988	-1.363451206752	-0.04466	0.28332999999999997	-0.23316	-3.76576	2.3536	15.533760000000001	0.971739452257587	40.474999999999994
57655	0	6081358	60	1322	-86	-7	41	31	64	1338	-109	31	23	36	-842	-2020	-2263	-214	-366	-690	-64	-16	576	39.07	0.9716160868492476	41.86	0.9720503330866024	34.89463424682617	-86.61671447753906	240.8000030517578	2	12	0.5799999833106995	0.114501953125	0	0	0.0	0.0	0.0	0.0	-0.16068410327433	0.0	0.0	-0.247273769650145	0.6999006104999999	-0.4450650035999999	9.547362174	-0.1257620155811309	-0.6699308156967163	-0.1165254339575767	0.7223562598228455	6	0.5815772374471029	-1.4436119079589844	0.430708068	9.4899344316	-0.6173482308	0.2225325018	0.1651047594	0.2584248408	-0.008552113303999999	0.050090949351999994	0.037873644632	-1.028697057424	-2.46789555344	-2.764776058136	0.03712	0.77604	-0.06322	-0.12412	-0.21228	-0.4002	0.3266202849	4.8275195955	-0.179461695	-0.518624585364	-1.208902302044	-1.363451206752	-0.0435	0.28187999999999996	-0.23171	-1.88288	-0.47072	16.94592	0.971833209967925	40.465
57656	0	6081463	66	1326	-93	-5	39	37	15	1336	-105	47	22	37	-820	-2014	-2282	-208	-361	-660	-80	64	400	39.09	0.971586479151246	41.88	0.9720898100172712	34.89463424682617	-86.61671447753906	240.8000030517578	2	12	0.5799999833106995	0.114501953125	0	0	0.0	0.0	0.0	0.0	-0.1730674693143808	0.0	0.0	-0.2600398573182143	0.7106683121999999	-0.2907279458999999	9.5545406418	-0.1256193816661834	-0.6699728965759277	-0.1164767742156982	0.7223499417304993	6	0.5815772374471029	-1.4436119079589844	0.4737788748	9.5186483028	-0.6675975054000001	0.3373879866	0.15792629160000002	0.26560330860000003	-0.0061086523599999994	0.047647488408	0.045204027464	-1.00181898704	-2.460565170608	-2.7879889371039996	0.0087	0.77488	-0.0609	-0.12064	-0.20938	-0.38280000000000003	0.4055834307	4.838287297200001	-0.20099709840000002	-0.5039638197	-1.2064588411000001	-1.3713924548199998	-0.05597	0.28275	-0.22185000000000002	-2.3536	1.88288	11.768	0.9718381445842585	40.485
57657	0	6081568	64	1322	-86	-2	40	37	58	1342	-106	32	17	34	-820	-2014	-2282	-208	-361	-660	-96	128	560	39.09	0.9714779175919072	41.88	0.9719911176905996	34.89463424682617	-86.61671447753906	240.8000030517578	2	12	0.5799999833106995	0.114501953125	0	0	0.0	0.0	0.0	0.0	-0.1734902051773916	0.0	0.0	-0.2585607173010961	0.6891329088	-0.4378865358	9.561719109599998	-0.2011600881814956	-0.6493709683418274	-0.1838898360729217	0.7099553346633911	6	0.5815772374471029	-1.4436119079589844	0.4594219392	9.4899344316	-0.6173482308	0.2297109696	0.12203395260000001	0.24406790520000002	-0.002443460944	0.048869218879999995	0.045204027464	-1.00181898704	-2.460565170608	-2.7879889371039996	0.03364	0.77836	-0.06148	-0.12064	-0.20938	-0.38280000000000003	0.3445664544	4.8059841921	-0.1866401628	-0.502131223992	-1.205847975864	-1.3713924548199998	-0.0435	0.28449	-0.22214	-2.82432	3.76576	16.4752	0.9717345176412534	40.485
