packetType,timestamp_ms,imu1_accel_x,imu1_accel_y,imu1_accel_z,imu1_gyro_x,imu1_gyro_y,imu1_gyro_z,imu1_mag_x,imu1_mag_y,imu1_mag_z,high_g_accel_x,high_g_accel_y,high_g_accel_z,baro1_temp,baro1_pres,baro1_alt,gps_lat,gps_long,gps_alt,gps_fix_quality,gps_sats_tracked,gps_hdop,battery_voltage_1,battery_voltage_2,pyro_cont,dynamixel_degrees,dynamixel_degrees_1,dynamixel_length,dynamixel_length_1,trigger_status,heading,vtg,pos_x,pos_y,pos_z,vel_x,vel_y,vel_z,acc_x,acc_y,acc_z,q_x,q_y,q_z,q_w,state,gps_lat_mod,gps_long_mod,imu1_accel_x_real,imu1_accel_y_real,imu1_accel_z_real,imu1_gyro_x_real,imu1_gyro_y_real,imu1_gyro_z_real,imu1_mag_x_real,imu1_mag_y_real,imu1_mag_z_real,imu_accel_x_avg,imu_accel_y_avg,imu_accel_z_avg,imu_gyro_x_avg,imu_gyro_y_avg,imu_gyro_z_avg,imu_mag_x_avg,imu_mag_y_avg,imu_mag_z_avg,high_g_accel_x_real,high_g_accel_y_real,high_g_accel_z_real,baro_pres_avg,baro_temp_avg
0,484197,-4,-2046,89,11,24,3,-386,-369,3703,7,4,6,25.96,1.0137083641746854,0.4686742598751006,0.0,0.0,0.0,0,0,0.0,11.87484359741211,12.01200008392334,7,447.0,292.0,0.0,0.0,0,0.0,0.0,0.0,0.0,0.5652323499677404,0.0,0.0,0.1423003035322667,0.4261679053306579,-0.0191536135971546,9.797073364257812,-0.02405471727252,-0.6912388205528259,-0.0229607634246349,0.7218608856201172,6,0.0,0.0,-0.0287138712,-14.6871451188,0.6388836342,0.013439035192,0.029321531328,0.003665191416,-0.22388,-0.21402,2.14774,-0.0287138712,-14.6871451188,0.6388836342,0.013439035192,0.029321531328,0.003665191416,-0.22388,-0.21402,2.14774,0.20594,0.11768,0.17652,1.0137083641746854,25.96
0,484302,0,-2048,89,11,23,3,-363,-435,3692,7,4,6,25.96,1.0137083641746854,0.4311815681630501,0.0,0.0,0.0,0,0,0.0,11.76295280456543,12.06974983215332,7,447.0,292.0,0.0,0.0,0,0.0,0.0,0.0,0.0,0.4748259715130503,0.0,0.0,0.0319999057516434,0.4261679053306579,0.0,9.806650161743164,3.0110738862276776e-06,-0.6910231113433838,8.400045771850273e-06,0.7228327393531799,6,0.0,0.0,0.0,-14.7015020544,0.6388836342,0.013439035192,0.028099800855999998,0.003665191416,-0.21054,-0.2523,2.14136,0.0,-14.7015020544,0.6388836342,0.013439035192,0.028099800855999998,0.003665191416,-0.21054,-0.2523,2.14136,0.20594,0.11768,0.17652,1.0137083641746854,25.96
0,484407,-10,-2044,91,10,23,3,-391,-398,3668,7,4,5,25.95,1.013747841105354,0.1312271039162025,0.0,0.0,0.0,0,0,0.0,11.914546966552734,11.773781776428224,7,447.0,292.0,0.0,0.0,0,0.0,0.0,0.0,0.0,0.4893157565385239,0.0,0.0,0.0445537544373738,0.4357447028160095,-0.0478840321302413,9.78749656677246,-2.6134512154385448e-06,-0.6910531520843506,-1.574837187945377e-05,0.7228040099143982,6,0.0,0.0,-0.071784678,-14.6727881832,0.6532405698,0.012217304719999999,0.028099800855999998,0.003665191416,-0.22678,-0.23084,2.12744,-0.071784678,-14.6727881832,0.6532405698,0.012217304719999999,0.028099800855999998,0.003665191416,-0.22678,-0.23084,2.12744,0.20594,0.11768,0.1471,1.013747841105354,25.95
0,484512,-5,-2052,93,9,24,4,-395,-378,3712,8,4,6,25.95,1.013747841105354,0.1312271039162025,0.0,0.0,0.0,0,0,0.0,11.380359649658203,12.113062858581545,7,447.0,292.0,0.0,0.0,0,0.0,0.0,0.0,0.0,0.4982939568358296,0.0,0.0,0.0490141382372003,0.4453215301036834,-0.0239420160651206,9.825803756713867,2.060951192106586e-05,-0.6910658478736877,-1.2318487279117107e-05,0.7227917909622192,6,0.0,0.0,-0.035892339,-14.730215925600001,0.6675975054000001,0.010995574248,0.029321531328,0.004886921888,-0.2291,-0.21924,2.15296,-0.035892339,-14.730215925600001,0.6675975054000001,0.010995574248,0.029321531328,0.004886921888,-0.2291,-0.21924,2.15296,0.23536,0.11768,0.17652,1.013747841105354,25.95
0,484617,-4,-2045,90,12,24,5,-372,-389,3748,9,4,6,25.95,1.0139057488280283,-1.0684961779013833,0.0,0.0,0.0,0,0,0.0,11.89650058746338,11.56082820892334,7,447.0,292.0,0.0,0.0,0,0.0,0.0,0.0,0.0,0.450780937392191,0.0,0.0,-0.0065131071349546,0.4309563040733337,-0.0191536135971546,9.792284965515137,3.701576815728913e-06,-0.6910670399665833,-3.621365613071248e-05,0.7227907180786133,6,0.0,0.0,-0.0287138712,-14.679966651,0.646062102,0.014660765664,0.029321531328,0.0061086523599999994,-0.21576,-0.22562000000000001,2.17384,-0.0287138712,-14.679966651,0.646062102,0.014660765664,0.029321531328,0.0061086523599999994,-0.21576,-0.22562000000000001,2.17384,0.26478,0.11768,0.17652,1.0139057488280283,25.95
0,484722,-9,-2048,92,12,22,5,-315,-358,3695,8,4,5,25.96,1.0137083641746854,0.4311815681630501,0.0,0.0,0.0,0,0,0.0,12.030047416687012,11.972296714782717,7,447.0,292.0,0.0,0.0,0,0.0,0.0,0.0,0.0,0.427988745300492,0.0,0.0,-0.0308520971450035,0.4405331015586853,-0.0430956296622753,9.806650161743164,-1.1630010021690396e-06,-0.6910854578018188,-2.6507168513489887e-05,0.7227730751037598,6,0.0,0.0,-0.0646062102,-14.7015020544,0.6604190376,0.014660765664,0.026878070384,0.0061086523599999994,-0.1827,-0.20764,2.1431,-0.0646062102,-14.7015020544,0.6604190376,0.014660765664,0.026878070384,0.0061086523599999994,-0.1827,-0.20764,2.1431,0.23536,0.11768,0.1471,1.0137083641746854,25.96
0,484827,-9,-2049,89,11,25,4,-376,-406,3674,9,4,5,25.95,1.013747841105354,0.1312271039162025,0.0,0.0,0.0,0,0,0.0,12.058921813964844,12.06253147125244,7,447.0,292.0,0.0,0.0,0,0.0,0.0,0.0,0.0,0.4912225196262851,0.0,0.0,0.0351749198925648,0.4261679053306579,-0.0430956296622753,9.81143856048584,-6.279331046243897e-06,-0.6911039352416992,-2.8086216843803413e-05,0.7227553725242615,6,0.0,0.0,-0.0646062102,-14.7086805222,0.6388836342,0.013439035192,0.0305432618,0.004886921888,-0.21808,-0.23548,2.13092,-0.0646062102,-14.7086805222,0.6388836342,0.013439035192,0.0305432618,0.004886921888,-0.21808,-0.23548,2.13092,0.26478,0.11768,0.1471,1.013747841105354,25.95
0,484932,-6,-2047,89,11,24,4,-405,-403,3673,8,3,6,25.95,1.0136984949420182,0.5061716621445979,0.0,0.0,0.0,0,0,0.0,11.990344047546388,11.712422370910645,7,447.0,292.0,0.0,0.0,0,0.0,0.0,0.0,0.0,0.5301791036048381,0.0,0.0,0.0698483695219797,0.4261679053306579,-0.0287304203957319,9.801861763000488,5.129959390615113e-05,-0.6911628842353821,-2.8431659302441403e-06,0.7226990461349487,6,0.0,0.0,-0.0430708068,-14.694323586600001,0.6388836342,0.013439035192,0.029321531328,0.004886921888,-0.2349,-0.23374,2.13034,-0.0430708068,-14.694323586600001,0.6388836342,0.013439035192,0.029321531328,0.004886921888,-0.2349,-0.23374,2.13034,0.23536,0.08826,0.17652,1.0136984949420182,25.95
0,485037,-4,-2047,87,11,25,4,-418,-411,3673,8,4,5,25.95,1.013747841105354,0.1312271039162025,0.0,0.0,0.0,0,0,0.0,11.89650058746338,11.8351411819458,7,447.0,292.0,0.0,0.0,0,0.0,0.0,0.0,0.0,0.5055980762614392,0.0,0.0,0.0374402207441189,0.4165911078453064,-0.0191536135971546,9.801861763000488,4.517591878538951e-05,-0.6911987066268921,-4.956538759870455e-05,0.7226648330688477,6,0.0,0.0,-0.0287138712,-14.694323586600001,0.6245266986,0.013439035192,0.0305432618,0.004886921888,-0.24244,-0.23838,2.13034,-0.0287138712,-14.694323586600001,0.6245266986,0.013439035192,0.0305432618,0.004886921888,-0.24244,-0.23838,2.13034,0.23536,0.11768,0.1471,1.013747841105354,25.95
0,485142,-3,-2047,94,11,24,3,-422,-365,3707,8,5,4,25.96,1.0136491487786825,0.8811310000904891,0.0,0.0,0.0,0,0,0.0,11.766562461853027,12.084187507629396,7,447.0,292.0,0.0,0.0,0,0.0,0.0,0.0,0.0,0.5209827213979775,0.0,0.0,0.0502908533882994,0.4501099288463592,-0.0143652101978659,9.801861763000488,6.312975892797112e-05,-0.6912344694137573,-2.907927773776464e-05,0.7226305603981018,6,0.0,0.0,-0.0215354034,-14.694323586600001,0.6747759732,0.013439035192,0.029321531328,0.003665191416,-0.24476,-0.2117,2.15006,-0.0215354034,-14.694323586600001,0.6747759732,0.013439035192,0.029321531328,0.003665191416,-0.24476,-0.2117,2.15006,0.23536,0.1471,0.11768,1.0136491487786825,25.96
0,485247,-6,-2047,88,12,22,4,-459,-368,3650,8,4,5,25.96,1.013807056501357,-0.3186868585734222,0.0,0.0,0.0,0,0,0.0,12.015609741210938,11.665499687194824,7,447.0,292.0,0.0,0.0,0,0.0,0.0,0.0,0.0,0.3461626634644819,0.0,0.0,-0.133948281341972,0.4213795065879822,-0.0287304203957319,9.801861763000488,-0.0268589332699775,-0.690132200717926,-0.0256501156836748,0.7227297425270081,6,0.0,0.0,-0.0430708068,-14.694323586600001,0.6317051664000001,0.014660765664,0.026878070384,0.004886921888,-0.26622,-0.21344,2.117,-0.0430708068,-14.694323586600001,0.6317051664000001,0.014660765664,0.026878070384,0.004886921888,-0.26622,-0.21344,2.117,0.23536,0.11768,0.1471,1.013807056501357,25.96
0,485352,-3,-2050,90,11,24,3,-390,-368,3651,10,4,5,25.97,1.013560325684678,1.5560950574299668,0.0,0.0,0.0,0,0,0.0,12.113062858581545,12.001172065734863,7,447.0,292.0,0.0,0.0,0,0.0,0.0,0.0,0.0,0.3453032285472471,0.0,0.0,-0.1193950815095959,0.4309563040733337,-0.0143652101978659,9.816226959228516,-0.0268270839005708,-0.6901536583900452,-0.0256557557731866,0.7227102518081665,6,0.0,0.0,-0.0215354034,-14.715858990000001,0.646062102,0.013439035192,0.029321531328,0.003665191416,-0.2262,-0.21344,2.11758,-0.0215354034,-14.715858990000001,0.646062102,0.013439035192,0.029321531328,0.003665191416,-0.2262,-0.21344,2.11758,0.2942,0.11768,0.1471,1.013560325684678,25.97
0,485457,-5,-2048,96,15,24,2,-378,-379,3659,7,5,6,25.97,1.013718233407353,0.3561920653597745,0.0,0.0,0.0,0,0,0.0,12.080577850341797,12.030047416687012,7,447.0,292.0,0.0,0.0,0,0.0,0.0,0.0,0.0,0.3801429980527278,0.0,0.0,-0.071022864746992,0.4596867263317108,-0.0239420160651206,9.806650161743164,-0.0268450789153575,-0.6901443600654602,-0.0256669353693723,0.7227180600166321,6,0.0,0.0,-0.035892339,-14.7015020544,0.6891329088,0.01832595708,0.029321531328,0.002443460944,-0.21924,-0.21982,2.12222,-0.035892339,-14.7015020544,0.6891329088,0.01832595708,0.029321531328,0.002443460944,-0.21924,-0.21982,2.12222,0.20594,0.1471,0.17652,1.013718233407353,25.97
0,485562,-7,-2045,89,10,24,6,-423,-416,3647,7,5,5,25.96,1.0136491487786825,0.8811310000904891,0.0,0.0,0.0,0,0,0.0,11.52834415435791,11.589703559875488,7,447.0,292.0,0.0,0.0,0,0.0,0.0,0.0,0.0,0.4126504578199756,0.0,0.0,-0.0299397974178557,0.4261679053306579,-0.0335188247263431,9.792284965515137,-0.0268479380756616,-0.6901819109916687,-0.0256824437528848,0.7226815223693848,6,0.0,0.0,-0.050249274600000005,-14.679966651,0.6388836342,0.012217304719999999,0.029321531328,0.007330382832,-0.24534,-0.24128,2.11526,-0.050249274600000005,-14.679966651,0.6388836342,0.012217304719999999,0.029321531328,0.007330382832,-0.24534,-0.24128,2.11526,0.20594,0.1471,0.1471,1.0136491487786825,25.96
0,485669,-8,-2049,93,10,23,2,-392,-395,3628,8,4,5,25.96,1.0136590180113496,0.8061379500602662,0.0,0.0,0.0,0,0,0.0,11.993953704833984,11.604140281677246,7,447.0,292.0,0.0,0.0,0,0.0,0.0,0.0,0.0,0.4533475131955606,0.0,0.0,0.0124406954658925,0.4453215301036834,-0.0383072271943092,9.81143856048584,-0.0268277674913406,-0.6902145147323608,-0.0256874002516269,0.7226510047912598,6,0.0,0.0,-0.0574277424,-14.7086805222,0.6675975054000001,0.012217304719999999,0.028099800855999998,0.002443460944,-0.22736,-0.2291,2.10424,-0.0574277424,-14.7086805222,0.6675975054000001,0.012217304719999999,0.028099800855999998,0.002443460944,-0.22736,-0.2291,2.10424,0.23536,0.11768,0.1471,1.0136590180113496,25.96
0,485772,-9,-2046,90,11,24,3,-361,-376,3659,8,3,7,25.96,1.0136590180113496,0.8061379500602662,0.0,0.0,0.0,0,0,0.0,11.87484359741211,12.06614112854004,7,447.0,292.0,0.0,0.0,0,0.0,0.0,0.0,0.0,0.4846955386858507,0.0,0.0,0.0422703849456169,0.4309563040733337,-0.0430956296622753,9.797073364257812,-0.026785297319293,-0.6902478933334351,-0.0257041398435831,0.7226200699806213,6,0.0,0.0,-0.0646062102,-14.6871451188,0.646062102,0.013439035192,0.029321531328,0.003665191416,-0.20938,-0.21808,2.12222,-0.0646062102,-14.6871451188,0.646062102,0.013439035192,0.029321531328,0.003665191416,-0.20938,-0.21808,2.12222,0.23536,0.08826,0.20594,1.0136590180113496,25.96
0,485877,-3,-2044,92,10,24,5,-415,-371,3700,8,4,5,25.96,1.0137083641746854,0.4311815681630501,0.0,0.0,0.0,0,0,0.0,12.087797164916992,11.961468696594238,7,447.0,292.0,0.0,0.0,0,0.0,0.0,0.0,0.0,0.4769257445724325,0.0,0.0,0.0294187596341491,0.4405331015586853,-0.0143652101978659,9.78749656677246,-0.0267827436327934,-0.6902740597724915,-0.0257483888417482,0.7225936055183411,6,0.0,0.0,-0.0215354034,-14.6727881832,0.6604190376,0.012217304719999999,0.029321531328,0.0061086523599999994,-0.2407,-0.21518,2.146,-0.0215354034,-14.6727881832,0.6604190376,0.012217304719999999,0.029321531328,0.0061086523599999994,-0.2407,-0.21518,2.146,0.23536,0.11768,0.1471,1.0137083641746854,25.96
0,485982,-5,-2047,88,11,26,4,-449,-359,3702,7,5,6,25.96,1.0136491487786825,0.8811310000904891,0.0,0.0,0.0,0,0,0.0,12.055312156677246,12.048093795776367,7,447.0,292.0,0.0,0.0,0,0.0,0.0,0.0,0.0,0.4894432055223734,0.0,0.0,0.0387366691670153,0.4213795065879822,-0.0239420160651206,9.801861763000488,-0.026745218783617,-0.6903129816055298,-0.0257253255695104,0.7225586175918579,6,0.0,0.0,-0.035892339,-14.694323586600001,0.6317051664000001,0.013439035192,0.031764992272,0.004886921888,-0.26042,-0.20822,2.14716,-0.035892339,-14.694323586600001,0.6317051664000001,0.013439035192,0.031764992272,0.004886921888,-0.26042,-0.20822,2.14716,0.20594,0.1471,0.17652,1.0136491487786825,25.96
0,486087,-1,-2048,91,11,24,4,-346,-389,3698,7,5,5,25.96,1.0136590180113496,0.8061379500602662,0.0,0.0,0.0,0,0,0.0,11.477812767028809,12.09140682220459,7,447.0,292.0,0.0,0.0,0,0.0,0.0,0.0,0.0,0.5138741965866606,0.0,0.0,0.0595784843381072,0.4357447028160095,-0.0047884033992886,9.806650161743164,-0.0267758164554834,-0.6903263330459595,-0.0257579497992992,0.7225435972213745,6,0.0,0.0,-0.0071784678,-14.7015020544,0.6532405698,0.013439035192,0.029321531328,0.004886921888,-0.20068,-0.22562000000000001,2.14484,-0.0071784678,-14.7015020544,0.6532405698,0.013439035192,0.029321531328,0.004886921888,-0.20068,-0.22562000000000001,2.14484,0.20594,0.1471,0.1471,1.0136590180113496,25.96
0,486192,-6,-2044,92,12,26,3,-414,-368,3709,9,5,6,25.96,1.0136590180113496,0.8061379500602662,0.0,0.0,0.0,0,0,0.0,11.975906372070312,11.622187614440918,7,447.0,292.0,0.0,0.0,0,0.0,0.0,0.0,0.0,0.4981321251378798,0.0,0.0,0.0369383622223293,0.4405331015586853,-0.0287304203957319,9.78749656677246,-0.026732275262475,-0.6903366446495056,-0.0257642734795808,0.7225351333618164,6,0.0,0.0,-0.0430708068,-14.6727881832,0.6604190376,0.014660765664,0.031764992272,0.003665191416,-0.24012,-0.21344,2.15122,-0.0430708068,-14.6727881832,0.6604190376,0.014660765664,0.031764992272,0.003665191416,-0.24012,-0.21344,2.15122,0.26478,0.1471,0.17652,1.0136590180113496,25.96
0,486297,-8,-2046,87,10,23,4,-465,-359,3730,8,4,6,25.97,1.0136688872440167,0.7311454912622519,0.0,0.0,0.0,0,0,0.0,11.871234893798828,11.589703559875488,7,447.0,292.0,0.0,0.0,0,0.0,0.0,0.0,0.0,0.4459199237421646,0.0,0.0,-0.020360661376972,0.4165911078453064,-0.0383072271943092,9.797073364257812,-0.0265967790037393,-0.6900595426559448,-0.0254021901637315,0.722817599773407,6,0.0,0.0,-0.0574277424,-14.6871451188,0.6245266986,0.012217304719999999,0.028099800855999998,0.004886921888,-0.2697,-0.20822,2.1634,-0.0574277424,-14.6871451188,0.6245266986,0.012217304719999999,0.028099800855999998,0.004886921888,-0.2697,-0.20822,2.1634,0.23536,0.11768,0.17652,1.0136688872440167,25.97
0,486402,-7,-2052,89,11,23,4,-422,-396,3774,8,4,4,25.96,1.0135998026153468,1.2561051190528432,0.0,0.0,0.0,0,0,0.0,11.474203109741213,12.087797164916992,7,447.0,292.0,0.0,0.0,0,0.0,0.0,0.0,0.0,0.4358578429712815,0.0,0.0,-0.0268333799592157,0.4261679053306579,-0.0335188247263431,9.825803756713867,-0.0265509504824876,-0.6900236010551453,-0.0254062935709953,0.7228533625602722,6,0.0,0.0,-0.050249274600000005,-14.730215925600001,0.6388836342,0.013439035192,0.028099800855999998,0.004886921888,-0.24476,-0.22968,2.18892,-0.050249274600000005,-14.730215925600001,0.6388836342,0.013439035192,0.028099800855999998,0.004886921888,-0.24476,-0.22968,2.18892,0.23536,0.11768,0.11768,1.0135998026153468,25.96
0,486507,-6,-2045,91,5,32,3,-389,-358,3718,8,5,4,25.96,1.013757710338021,0.0562399657181428,0.0,0.0,0.0,0,0,0.0,11.986734390258787,11.838749885559082,7,447.0,292.0,0.0,0.0,0,0.0,0.0,0.0,0.0,0.4814606375755892,0.0,0.0,0.021404980756998,0.4357447028160095,-0.0287304203957319,9.792284965515137,-0.0265277661383152,-0.6901313662528992,-0.0254329089075326,0.7227504253387451,6,0.0,0.0,-0.0430708068,-14.679966651,0.6532405698,0.0061086523599999994,0.039095375104,0.003665191416,-0.22562000000000001,-0.20764,2.15644,-0.0430708068,-14.679966651,0.6532405698,0.0061086523599999994,0.039095375104,0.003665191416,-0.22562000000000001,-0.20764,2.15644,0.23536,0.1471,0.11768,1.013757710338021,25.96
0,486612,-3,-2047,94,8,25,3,-360,-348,3676,8,4,5,25.97,1.0136688872440167,0.7311454912622519,0.0,0.0,0.0,0,0,0.0,11.564437866210938,11.633015632629396,7,447.0,292.0,0.0,0.0,0,0.0,0.0,0.0,0.0,0.4832136964183098,0.0,0.0,0.0210347493938671,0.4501099288463592,-0.0143652101978659,9.801861763000488,-0.0264629200100898,-0.6901598572731018,-0.0254915878176689,0.7227236032485962,6,0.0,0.0,-0.0215354034,-14.694323586600001,0.6747759732,0.009773843776,0.0305432618,0.003665191416,-0.2088,-0.20184,2.13208,-0.0215354034,-14.694323586600001,0.6747759732,0.009773843776,0.0305432618,0.003665191416,-0.2088,-0.20184,2.13208,0.23536,0.11768,0.1471,1.0136688872440167,25.97
0,486717,-6,-2050,84,12,22,4,-402,-377,3684,8,5,5,25.96,1.0136590180113496,0.8061379500602662,0.0,0.0,0.0,0,0,0.0,11.347874641418455,12.131109237670898,7,447.0,292.0,0.0,0.0,0,0.0,0.0,0.0,0.0,0.5159379651231703,0.0,0.0,0.0513584214120538,0.4022258818149566,-0.0287304203957319,9.816226959228516,-0.0263724196702241,-0.6901602745056152,-0.025461621582508,0.7227275371551514,6,0.0,0.0,-0.0430708068,-14.715858990000001,0.6029912952,0.014660765664,0.026878070384,0.004886921888,-0.23316,-0.21866,2.13672,-0.0430708068,-14.715858990000001,0.6029912952,0.014660765664,0.026878070384,0.004886921888,-0.23316,-0.21866,2.13672,0.23536,0.1471,0.1471,1.0136590180113496,25.96
0,486822,-2,-2044,90,10,26,5,-412,-366,3689,8,3,4,25.96,1.0135998026153468,1.2561051190528432,0.0,0.0,0.0,0,0,0.0,11.882062911987305,11.44893741607666,7,447.0,292.0,0.0,0.0,0,0.0,0.0,0.0,0.0,0.4732126763421657,0.0,0.0,0.0012919343655737,0.4309563040733337,-0.0095768067985773,9.78749656677246,-0.0263232104480266,-0.6901996731758118,-0.0254461895674467,0.7226922512054443,6,0.0,0.0,-0.0143569356,-14.6727881832,0.646062102,0.012217304719999999,0.031764992272,0.0061086523599999994,-0.23896,-0.21228,2.13962,-0.0143569356,-14.6727881832,0.646062102,0.012217304719999999,0.031764992272,0.0061086523599999994,-0.23896,-0.21228,2.13962,0.23536,0.08826,0.11768,1.0135998026153468,25.96
0,486927,-11,-2048,89,11,26,5,-401,-381,3757,7,5,6,25.96,1.0136590180113496,0.8061379500602662,0.0,0.0,0.0,0,0,0.0,11.885671615600586,11.84957790374756,7,447.0,292.0,0.0,0.0,0,0.0,0.0,0.0,0.0,0.4698819811766875,0.0,0.0,-0.0018880723127717,0.4261679053306579,-0.0526724383234977,9.806650161743164,-0.0262532476335763,-0.6902687549591064,-0.0254640635102987,0.7226282358169556,6,0.0,0.0,-0.07896314580000001,-14.7015020544,0.6388836342,0.013439035192,0.031764992272,0.0061086523599999994,-0.23258,-0.22098,2.17906,-0.07896314580000001,-14.7015020544,0.6388836342,0.013439035192,0.031764992272,0.0061086523599999994,-0.23258,-0.22098,2.17906,0.20594,0.1471,0.17652,1.0136590180113496,25.96
0,487032,-7,-2049,89,12,23,4,-378,-343,3679,8,4,5,25.96,1.0137675795706884,-0.0187465813510863,0.0,0.0,0.0,0,0,0.0,11.261250495910645,12.04448413848877,7,447.0,292.0,0.0,0.0,0,0.0,0.0,0.0,0.0,0.4744615211809745,0.0,0.0,0.0007805698801676,0.4261679053306579,-0.0335188247263431,9.81143856048584,-0.0261968467384576,-0.6902678608894348,-0.0254445783793926,0.7226316928863525,6,0.0,0.0,-0.050249274600000005,-14.7086805222,0.6388836342,0.014660765664,0.028099800855999998,0.004886921888,-0.21924,-0.19894,2.13382,-0.050249274600000005,-14.7086805222,0.6388836342,0.014660765664,0.028099800855999998,0.004886921888,-0.21924,-0.19894,2.13382,0.23536,0.11768,0.1471,1.0137675795706884,25.96
0,487137,-4,-2044,91,11,25,3,-463,-379,3692,8,3,6,25.97,1.013718233407353,0.3561920653597745,0.0,0.0,0.0,0,0,0.0,12.105843544006348,11.97951602935791,7,447.0,292.0,0.0,0.0,0,0.0,0.0,0.0,0.0,0.5348555038287158,0.0,0.0,0.0601360340947798,0.4357447028160095,-0.0191536135971546,9.78749656677246,-0.0261470787227153,-0.6902841329574585,-0.0254412591457366,0.7226181626319885,6,0.0,0.0,-0.0287138712,-14.6727881832,0.6532405698,0.013439035192,0.0305432618,0.003665191416,-0.26854,-0.21982,2.14136,-0.0287138712,-14.6727881832,0.6532405698,0.013439035192,0.0305432618,0.003665191416,-0.26854,-0.21982,2.14136,0.23536,0.08826,0.17652,1.013718233407353,25.97
0,487242,-8,-2048,90,11,25,3,-419,-350,3691,9,5,6,25.96,1.0137083641746854,0.4311815681630501,0.0,0.0,0.0,0,0,0.0,12.095015525817873,11.89289093017578,7,447.0,292.0,0.0,0.0,0,0.0,0.0,0.0,0.0,0.5375461946602146,0.0,0.0,0.0543411555372679,0.4309563040733337,-0.0383072271943092,9.806650161743164,-0.0261044409126043,-0.6903463006019592,-0.025430504232645,0.722560703754425,6,0.0,0.0,-0.0574277424,-14.7015020544,0.646062102,0.013439035192,0.0305432618,0.003665191416,-0.24302,-0.203,2.14078,-0.0574277424,-14.7015020544,0.646062102,0.013439035192,0.0305432618,0.003665191416,-0.24302,-0.203,2.14078,0.26478,0.1471,0.17652,1.0137083641746854,25.96
0,487347,-5,-2050,88,11,24,4,-395,-386,3631,8,4,6,25.97,1.013718233407353,0.3561920653597745,0.0,0.0,0.0,0,0,0.0,11.921765327453612,12.084187507629396,7,447.0,292.0,0.0,0.0,0,0.0,0.0,0.0,0.0,0.5420159222234713,0.0,0.0,0.0514565852010233,0.4213795065879822,-0.0239420160651206,9.816226959228516,-0.0319805145263671,-0.6906620264053345,-0.0306422598659992,0.7218201756477356,6,0.0,0.0,-0.035892339,-14.715858990000001,0.6317051664000001,0.013439035192,0.029321531328,0.004886921888,-0.2291,-0.22388,2.10598,-0.035892339,-14.715858990000001,0.6317051664000001,0.013439035192,0.029321531328,0.004886921888,-0.2291,-0.22388,2.10598,0.23536,0.11768,0.17652,1.013718233407353,25.97
0,487452,-11,-2048,92,12,25,5,-382,-396,3632,9,5,4,25.96,1.0137083641746854,0.4311815681630501,0.0,0.0,0.0,0,0,0.0,11.578875541687012,11.734078407287598,7,447.0,292.0,0.0,0.0,0,0.0,0.0,0.0,0.0,0.5896424937905196,0.0,0.0,0.0940719870426844,0.4405331015586853,-0.0526724383234977,9.806650161743164,-0.0319167636334896,-0.6906967163085938,-0.0306304562836885,0.7217903137207031,6,0.0,0.0,-0.07896314580000001,-14.7015020544,0.6604190376,0.014660765664,0.0305432618,0.0061086523599999994,-0.22156,-0.22968,2.10656,-0.07896314580000001,-14.7015020544,0.6604190376,0.014660765664,0.0305432618,0.0061086523599999994,-0.22156,-0.22968,2.10656,0.26478,0.1471,0.11768,1.0137083641746854,25.96
0,487557,-9,-2052,87,10,25,4,-383,-342,3664,7,5,7,25.95,1.0136392795460154,0.956124641357415,0.0,0.0,0.0,0,0,0.0,11.795437812805176,11.748516082763672,7,447.0,292.0,0.0,0.0,0,0.0,0.0,0.0,0.0,0.5342699501498551,0.0,0.0,0.0288769448929379,0.4165911078453064,-0.0430956296622753,9.825803756713867,-0.0318986028432846,-0.6907293796539307,-0.0306401960551738,0.7217593789100647,6,0.0,0.0,-0.0646062102,-14.730215925600001,0.6245266986,0.012217304719999999,0.0305432618,0.004886921888,-0.22214,-0.19836,2.12512,-0.0646062102,-14.730215925600001,0.6245266986,0.012217304719999999,0.0305432618,0.004886921888,-0.22214,-0.19836,2.12512,0.20594,0.1471,0.20594,1.0136392795460154,25.95
0,487662,-4,-2044,90,12,26,4,-401,-369,3708,8,4,5,25.96,1.0138169257340242,-0.3936704501692973,0.0,0.0,0.0,0,0,0.0,11.864015579223633,12.196078300476074,7,447.0,292.0,0.0,0.0,0,0.0,0.0,0.0,0.0,0.5094613468526358,0.0,0.0,-0.002316849173302,0.4309563040733337,-0.0191536135971546,9.78749656677246,-0.0319132730364799,-0.6907546520233154,-0.0306156277656555,0.7217355966567993,6,0.0,0.0,-0.0287138712,-14.6727881832,0.646062102,0.014660765664,0.031764992272,0.004886921888,-0.23258,-0.21402,2.15064,-0.0287138712,-14.6727881832,0.646062102,0.014660765664,0.031764992272,0.004886921888,-0.23258,-0.21402,2.15064,0.23536,0.11768,0.1471,1.0138169257340242,25.96
0,487767,-12,-2048,88,10,24,3,-358,-371,3663,8,5,6,25.97,1.0138761411300272,-0.8435595877605758,0.0,0.0,0.0,0,0,0.0,11.64023494720459,11.734078407287598,7,447.0,292.0,0.0,0.0,0,0.0,0.0,0.0,0.0,0.4206712800128915,0.0,0.0,-0.0958858719171625,0.4213795065879822,-0.0574608407914638,9.806650161743164,-0.0319006368517875,-0.6907755136489868,-0.0306426677852869,0.7217150926589966,6,0.0,0.0,-0.0861416136,-14.7015020544,0.6317051664000001,0.012217304719999999,0.029321531328,0.003665191416,-0.20764,-0.21518,2.12454,-0.0861416136,-14.7015020544,0.6317051664000001,0.012217304719999999,0.029321531328,0.003665191416,-0.20764,-0.21518,2.12454,0.23536,0.1471,0.17652,1.0138761411300272,25.97
0,487872,-8,-2047,88,10,25,4,-322,-408,3686,7,5,6,25.97,1.0136688872440167,0.7311454912622519,0.0,0.0,0.0,0,0,0.0,12.076969146728516,11.889281272888184,7,447.0,292.0,0.0,0.0,0,0.0,0.0,0.0,0.0,0.4782543020869648,0.0,0.0,-0.0255627829977878,0.4213795065879822,-0.0383072271943092,9.801861763000488,-0.0318431444466114,-0.6908099055290222,-0.0306589137762784,0.7216839790344238,6,0.0,0.0,-0.0574277424,-14.694323586600001,0.6317051664000001,0.012217304719999999,0.0305432618,0.004886921888,-0.18676,-0.23664,2.13788,-0.0574277424,-14.694323586600001,0.6317051664000001,0.012217304719999999,0.0305432618,0.004886921888,-0.18676,-0.23664,2.13788,0.20594,0.1471,0.17652,1.0136688872440167,25.97
0,487977,-8,-2044,95,10,23,3,-391,-389,3657,9,4,5,25.97,1.0136688872440167,0.7311454912622519,0.0,0.0,0.0,0,0,0.0,11.921765327453612,11.824312210083008,7,447.0,292.0,0.0,0.0,0,0.0,0.0,0.0,0.0,0.5547985733396505,0.0,0.0,0.0549096327215513,0.454898327589035,-0.0383072271943092,9.78749656677246,-0.031812984496355,-0.6908431053161621,-0.030635081231594,0.7216545939445496,6,0.0,0.0,-0.0574277424,-14.6727881832,0.681954441,0.012217304719999999,0.028099800855999998,0.003665191416,-0.22678,-0.22562000000000001,2.12106,-0.0574277424,-14.6727881832,0.681954441,0.012217304719999999,0.028099800855999998,0.003665191416,-0.22678,-0.22562000000000001,2.12106,0.26478,0.11768,0.1471,1.0136688872440167,25.97
0,488082,-5,-2048,95,12,22,4,-407,-372,3674,8,5,8,25.97,1.0136688872440167,0.7311454912622519,0.0,0.0,0.0,0,0,0.0,11.925374984741213,11.7846097946167,7,447.0,292.0,0.0,0.0,0,0.0,0.0,0.0,0.0,0.6421361815698976,0.0,0.0,0.1360184359770825,0.454898327589035,-0.0239420160651206,9.806650161743164,-0.0317588038742542,-0.6908426284790039,-0.0306132547557353,0.7216582894325256,6,0.0,0.0,-0.035892339,-14.7015020544,0.681954441,0.014660765664,0.026878070384,0.004886921888,-0.23606,-0.21576,2.13092,-0.035892339,-14.7015020544,0.681954441,0.014660765664,0.026878070384,0.004886921888,-0.23606,-0.21576,2.13092,0.23536,0.1471,0.23536,1.0136688872440167,25.97
0,488187,-2,-2052,93,12,24,6,-400,-388,3644,6,5,6,25.96,1.0137083641746854,0.4311815681630501,0.0,0.0,0.0,0,0,0.0,11.795437812805176,11.781000137329102,7,447.0,292.0,0.0,0.0,0,0.0,0.0,0.0,0.0,0.6400289098770527,0.0,0.0,0.1219431411638937,0.4453215301036834,-0.0095768067985773,9.825803756713867,-0.0317456685006618,-0.6908864974975586,-0.0305716320872306,0.72161865234375,6,0.0,0.0,-0.0143569356,-14.730215925600001,0.6675975054000001,0.014660765664,0.029321531328,0.007330382832,-0.232,-0.22504,2.11352,-0.0143569356,-14.730215925600001,0.6675975054000001,0.014660765664,0.029321531328,0.007330382832,-0.232,-0.22504,2.11352,0.17652,0.1471,0.17652,1.0137083641746854,25.96
0,488292,-4,-2045,88,12,26,6,-388,-420,3668,8,4,5,25.97,1.013678756476684,0.656153623682962,0.0,0.0,0.0,0,0,0.0,11.365921974182127,12.138328552246094,7,447.0,292.0,0.0,0.0,0,0.0,0.0,0.0,0.0,0.6214225318509247,0.0,0.0,0.0897798632946497,0.4213795065879822,-0.0191536135971546,9.792284965515137,-0.0158825032413005,-0.6910905241966248,-0.0151811214163899,0.7224342823028564,6,0.0,0.0,-0.0287138712,-14.679966651,0.6317051664000001,0.014660765664,0.031764992272,0.007330382832,-0.22504,-0.2436,2.12744,-0.0287138712,-14.679966651,0.6317051664000001,0.014660765664,0.031764992272,0.007330382832,-0.22504,-0.2436,2.12744,0.23536,0.11768,0.1471,1.013678756476684,25.97
0,488397,-4,-2048,86,12,22,5,-413,-393,3720,8,4,4,25.97,1.0137281026400198,0.2812031537257816,0.0,0.0,0.0,0,0,0.0,11.41645336151123,11.781000137329102,7,447.0,292.0,0.0,0.0,0,0.0,0.0,0.0,0.0,0.5588016816401519,0.0,0.0,0.0136821112002555,0.4118026793003082,-0.0191536135971546,9.806650161743164,-0.015854237601161,-0.6911337971687317,-0.015163330361247,0.722393810749054,6,0.0,0.0,-0.0287138712,-14.7015020544,0.6173482308,0.014660765664,0.026878070384,0.0061086523599999994,-0.23954,-0.22794,2.1576,-0.0287138712,-14.7015020544,0.6173482308,0.014660765664,0.026878070384,0.0061086523599999994,-0.23954,-0.22794,2.1576,0.23536,0.11768,0.11768,1.0137281026400198,25.97
0,488502,-9,-2048,96,9,27,5,-428,-402,3735,7,4,6,25.96,1.0137675795706884,-0.0187465813510863,0.0,0.0,0.0,0,0,0.0,11.156578063964844,11.990344047546388,7,447.0,292.0,0.0,0.0,0,0.0,0.0,0.0,0.0,0.5563698449423473,0.0,0.0,0.0074351695230913,0.4596867263317108,-0.0430956296622753,9.806650161743164,-0.0158836264163255,-0.6911875009536743,-0.0151891699060797,0.7223412394523621,6,0.0,0.0,-0.0646062102,-14.7015020544,0.6891329088,0.010995574248,0.032986722744,0.0061086523599999994,-0.24824,-0.23316,2.1663,-0.0646062102,-14.7015020544,0.6891329088,0.010995574248,0.032986722744,0.0061086523599999994,-0.24824,-0.23316,2.1663,0.20594,0.11768,0.17652,1.0137675795706884,25.96
0,488607,-4,-2045,91,12,25,6,-410,-388,3710,8,3,6,25.97,1.013718233407353,0.3561920653597745,0.0,0.0,0.0,0,0,0.0,12.06253147125244,12.138328552246094,7,447.0,292.0,0.0,0.0,0,0.0,0.0,0.0,0.0,0.5222078731449304,0.0,0.0,-0.0285241409010694,0.4357447028160095,-0.0191536135971546,9.792284965515137,-0.0158876348286867,-0.6911551356315613,-0.0151722757145762,0.7223725318908691,6,0.0,0.0,-0.0287138712,-14.679966651,0.6532405698,0.014660765664,0.0305432618,0.007330382832,-0.2378,-0.22504,2.1518,-0.0287138712,-14.679966651,0.6532405698,0.014660765664,0.0305432618,0.007330382832,-0.2378,-0.22504,2.1518,0.23536,0.08826,0.17652,1.013718233407353,25.97
0,488712,-5,-2044,90,10,26,4,-407,-374,3706,7,4,7,25.96,1.0137083641746854,0.4311815681630501,0.0,0.0,0.0,0,0,0.0,11.856797218322754,11.936203002929688,7,447.0,292.0,0.0,0.0,0,0.0,0.0,0.0,0.0,0.5059910443126036,0.0,0.0,-0.0462999665896591,0.4309563040733337,-0.0239420160651206,9.78749656677246,-0.0158922560513019,-0.6911400556564331,-0.0151662826538085,0.7223869562149048,6,0.0,0.0,-0.035892339,-14.6727881832,0.646062102,0.012217304719999999,0.031764992272,0.004886921888,-0.23606,-0.21692,2.14948,-0.035892339,-14.6727881832,0.646062102,0.012217304719999999,0.031764992272,0.004886921888,-0.23606,-0.21692,2.14948,0.20594,0.11768,0.20594,1.0137083641746854,25.96
0,488817,-3,-2047,88,11,24,5,-507,-390,3678,8,4,5,25.97,1.013718233407353,0.3561920653597745,0.0,0.0,0.0,0,0,0.0,11.430891036987305,11.647453308105469,7,447.0,292.0,0.0,0.0,0,0.0,0.0,0.0,0.0,0.5144977394466408,0.0,0.0,-0.0334132192016677,0.4213795065879822,-0.0143652101978659,9.801861763000488,-0.0158810447901487,-0.6911715269088745,-0.0151652945205569,0.7223571538925171,6,0.0,0.0,-0.0215354034,-14.694323586600001,0.6317051664000001,0.013439035192,0.029321531328,0.0061086523599999994,-0.29406,-0.2262,2.13324,-0.0215354034,-14.694323586600001,0.6317051664000001,0.013439035192,0.029321531328,0.0061086523599999994,-0.29406,-0.2262,2.13324,0.23536,0.11768,0.1471,1.013718233407353,25.97
0,488922,-1,-2043,88,12,24,3,-399,-344,3678,7,5,5,25.97,1.0137281026400198,0.2812031537257816,0.0,0.0,0.0,0,0,0.0,11.781000137329102,11.535562515258787,7,447.0,292.0,0.0,0.0,0,0.0,0.0,0.0,0.0,0.4441361120463118,0.0,0.0,-0.1044565725595827,0.4213795065879822,-0.0047884033992886,9.782708168029783,-0.0158752594143152,-0.691150963306427,-0.0152048068121075,0.7223761081695557,6,0.0,0.0,-0.0071784678,-14.6656097154,0.6317051664000001,0.014660765664,0.029321531328,0.003665191416,-0.23142000000000001,-0.19952,2.13324,-0.0071784678,-14.6656097154,0.6317051664000001,0.014660765664,0.029321531328,0.003665191416,-0.23142000000000001,-0.19952,2.13324,0.20594,0.1471,0.1471,1.0137281026400198,25.97
0,489027,-5,-2049,87,10,24,5,-416,-373,3662,7,4,6,25.97,1.0136688872440167,0.7311454912622519,0.0,0.0,0.0,0,0,0.0,11.965078353881836,11.802656173706056,7,447.0,292.0,0.0,0.0,0,0.0,0.0,0.0,0.0,0.4604751035789629,0.0,0.0,-0.0779366789963913,0.4165911078453064,-0.0239420160651206,9.81143856048584,-0.0158467553555965,-0.6911711692810059,-0.0151988007128238,0.722357451915741,6,0.0,0.0,-0.035892339,-14.7086805222,0.6245266986,0.012217304719999999,0.029321531328,0.0061086523599999994,-0.24128,-0.21634,2.12396,-0.035892339,-14.7086805222,0.6245266986,0.012217304719999999,0.029321531328,0.0061086523599999994,-0.24128,-0.21634,2.12396,0.20594,0.11768,0.17652,1.0136688872440167,25.97
0,489132,-3,-2045,89,11,24,4,-425,-349,3659,8,4,5,25.97,1.0137774488033555,-0.0937325373004744,0.0,0.0,0.0,0,0,0.0,11.178234100341797,12.15637493133545,7,447.0,292.0,0.0,0.0,0,0.0,0.0,0.0,0.0,0.4060161902128104,0.0,0.0,-0.1228185340550131,0.4261679053306579,-0.0143652101978659,9.792284965515137,-0.0158581230789423,-0.6911790370941162,-0.0152203859761357,0.722349226474762,6,0.0,0.0,-0.0215354034,-14.679966651,0.6388836342,0.013439035192,0.029321531328,0.004886921888,-0.2465,-0.20242,2.12222,-0.0215354034,-14.679966651,0.6388836342,0.013439035192,0.029321531328,0.004886921888,-0.2465,-0.20242,2.12222,0.23536,0.11768,0.1471,1.0137774488033555,25.97
0,489237,-6,-2050,93,10,23,6,-311,-381,3697,9,3,7,25.97,1.0137281026400198,0.2812031537257816,0.0,0.0,0.0,0,0,0.0,11.661890983581545,11.882062911987305,7,447.0,292.0,0.0,0.0,0,0.0,0.0,0.0,0.0,0.432794769063573,0.0,0.0,-0.0815217858238454,0.4453215301036834,-0.0287304203957319,9.816226959228516,-0.0158634670078754,-0.6912100911140442,-0.0152021013200283,0.7223198413848877,6,0.0,0.0,-0.0430708068,-14.715858990000001,0.6675975054000001,0.012217304719999999,0.028099800855999998,0.007330382832,-0.18038,-0.22098,2.14426,-0.0430708068,-14.715858990000001,0.6675975054000001,0.012217304719999999,0.028099800855999998,0.007330382832,-0.18038,-0.22098,2.14426,0.26478,0.08826,0.20594,1.0137281026400198,25.97
0,489342,-5,-2049,89,11,24,3,-431,-385,3672,7,4,5,25.97,1.013629410313348,1.0311188738790231,0.0,0.0,0.0,0,0,0.0,11.679937362670898,11.914546966552734,7,447.0,292.0,0.0,0.0,0,0.0,0.0,0.0,0.0,0.3692035828520595,0.0,0.0,-0.1360076930919412,0.4261679053306579,-0.0239420160651206,9.81143856048584,-0.0237772688269615,-0.690800666809082,-0.0227604955434799,0.7222957015037537,6,0.0,0.0,-0.035892339,-14.7086805222,0.6388836342,0.013439035192,0.029321531328,0.003665191416,-0.24998,-0.2233,2.12976,-0.035892339,-14.7086805222,0.6388836342,0.013439035192,0.029321531328,0.003665191416,-0.24998,-0.2233,2.12976,0.20594,0.11768,0.1471,1.013629410313348,25.97
0,489447,1,-2045,90,9,23,4,-399,-403,3682,8,4,6,25.97,1.0137281026400198,0.2812031537257816,0.0,0.0,0.0,0,0,0.0,11.690765380859377,12.087797164916992,7,447.0,292.0,0.0,0.0,0,0.0,0.0,0.0,0.0,0.3471055172781821,0.0,0.0,-0.1439885060485929,0.4309563040733337,0.0047884033992886,9.792284965515137,-0.0237821508198976,-0.6908559799194336,-0.0228234846144914,0.7222407460212708,6,0.0,0.0,0.0071784678,-14.679966651,0.646062102,0.010995574248,0.028099800855999998,0.004886921888,-0.23142000000000001,-0.23374,2.13556,0.0071784678,-14.679966651,0.646062102,0.010995574248,0.028099800855999998,0.004886921888,-0.23142000000000001,-0.23374,2.13556,0.23536,0.11768,0.17652,1.0137281026400198,25.97
0,489552,-6,-2043,92,10,26,5,-473,-384,3670,9,4,7,25.97,1.0137774488033555,-0.0937325373004744,0.0,0.0,0.0,0,0,0.0,11.89650058746338,11.679937362670898,7,447.0,292.0,0.0,0.0,0,0.0,0.0,0.0,0.0,0.3350553477460991,0.0,0.0,-0.1420747255366286,0.4405331015586853,-0.0287304203957319,9.782708168029783,-0.0237612761557102,-0.6908428072929382,-0.0228441376239061,0.7222533226013184,6,0.0,0.0,-0.0430708068,-14.6656097154,0.6604190376,0.012217304719999999,0.031764992272,0.0061086523599999994,-0.27434000000000003,-0.22272,2.1286,-0.0430708068,-14.6656097154,0.6604190376,0.012217304719999999,0.031764992272,0.0061086523599999994,-0.27434000000000003,-0.22272,2.1286,0.26478,0.11768,0.20594,1.0137774488033555,25.97
0,489657,-5,-2044,92,11,23,6,-376,-387,3701,8,4,5,25.97,1.0137379718726869,0.2062148332475874,0.0,0.0,0.0,0,0,0.0,11.7846097946167,11.986734390258787,7,447.0,292.0,0.0,0.0,0,0.0,0.0,0.0,0.0,0.3669404613349369,0.0,0.0,-0.0954433152332044,0.4405331015586853,-0.0239420160651206,9.78749656677246,-0.0237793568521738,-0.6908397674560547,-0.0228240545839071,0.7222562432289124,6,0.0,0.0,-0.035892339,-14.6727881832,0.6604190376,0.013439035192,0.028099800855999998,0.007330382832,-0.21808,-0.22446,2.14658,-0.035892339,-14.6727881832,0.6604190376,0.013439035192,0.028099800855999998,0.007330382832,-0.21808,-0.22446,2.14658,0.23536,0.11768,0.1471,1.0137379718726869,25.97
0,489762,-5,-2052,99,11,23,5,-349,-380,3647,8,4,6,25.97,1.013619541080681,1.1061136976643025,0.0,0.0,0.0,0,0,0.0,11.676328659057615,12.055312156677246,7,447.0,292.0,0.0,0.0,0,0.0,0.0,0.0,0.0,0.3909892345792295,0.0,0.0,-0.0603909508502783,0.4740519225597381,-0.0239420160651206,9.825803756713867,-0.0238133668899536,-0.6908246278762817,-0.0227757804095745,0.722271203994751,6,0.0,0.0,-0.035892339,-14.730215925600001,0.7106683122,0.013439035192,0.028099800855999998,0.0061086523599999994,-0.20242,-0.2204,2.11526,-0.035892339,-14.730215925600001,0.7106683122,0.013439035192,0.028099800855999998,0.0061086523599999994,-0.20242,-0.2204,2.11526,0.23536,0.11768,0.17652,1.013619541080681,25.97
0,489867,-5,-2046,91,10,27,4,-423,-385,3714,9,4,5,25.96,1.0137675795706884,-0.0187465813510863,0.0,0.0,0.0,0,0,0.0,12.06974983215332,12.033656120300291,7,447.0,292.0,0.0,0.0,0,0.0,0.0,0.0,0.0,0.4259968246313921,0.0,0.0,-0.0210939492383218,0.4357447028160095,-0.0239420160651206,9.797073364257812,-0.0238017439842224,-0.6907705664634705,-0.0227636769413948,0.7223235368728638,6,0.0,0.0,-0.035892339,-14.6871451188,0.6532405698,0.012217304719999999,0.032986722744,0.004886921888,-0.24534,-0.2233,2.15412,-0.035892339,-14.6871451188,0.6532405698,0.012217304719999999,0.032986722744,0.004886921888,-0.24534,-0.2233,2.15412,0.26478,0.11768,0.1471,1.0137675795706884,25.96
0,489972,-8,-2048,92,10,25,4,-432,-372,3649,8,4,5,25.97,1.013718233407353,0.3561920653597745,0.0,0.0,0.0,0,0,0.0,11.633015632629396,11.752124786376951,7,447.0,292.0,0.0,0.0,0,0.0,0.0,0.0,0.0,0.4684841836219406,0.0,0.0,0.0233448741525547,0.4405331015586853,-0.0383072271943092,9.806650161743164,-0.0238146446645259,-0.6907619833946228,-0.0227721128612756,0.722331166267395,6,0.0,0.0,-0.0574277424,-14.7015020544,0.6604190376,0.012217304719999999,0.0305432618,0.004886921888,-0.25056,-0.21576,2.11642,-0.0574277424,-14.7015020544,0.6604190376,0.012217304719999999,0.0305432618,0.004886921888,-0.25056,-0.21576,2.11642,0.23536,0.11768,0.1471,1.013718233407353,25.97
0,490077,-7,-2050,90,11,23,3,-373,-390,3675,8,4,6,25.97,1.0137281026400198,0.2812031537257816,0.0,0.0,0.0,0,0,0.0,10.875046730041504,12.17442226409912,7,447.0,292.0,0.0,0.0,0,0.0,0.0,0.0,0.0,0.4700923224642694,0.0,0.0,0.020587980823378,0.4309563040733337,-0.0335188247263431,9.816226959228516,-0.0237985309213399,-0.6907485127449036,-0.0227531660348176,0.7223451137542725,6,0.0,0.0,-0.050249274600000005,-14.715858990000001,0.646062102,0.013439035192,0.028099800855999998,0.003665191416,-0.21634,-0.2262,2.1315,-0.050249274600000005,-14.715858990000001,0.646062102,0.013439035192,0.028099800855999998,0.003665191416,-0.21634,-0.2262,2.1315,0.23536,0.11768,0.17652,1.0137281026400198,25.97
0,490184,-6,-2045,85,12,24,4,-442,-351,3678,8,6,5,25.97,1.013678756476684,0.656153623682962,0.0,0.0,0.0,0,0,0.0,11.665499687194824,12.008390426635742,7,447.0,292.0,0.0,0.0,0,0.0,0.0,0.0,0.0,0.4953183985460203,0.0,0.0,0.0447614580323346,0.4070142805576324,-0.0287304203957319,9.792284965515137,-0.0237939525395631,-0.6907347440719604,-0.0227452479302883,0.7223587036132812,6,0.0,0.0,-0.0430708068,-14.679966651,0.610169763,0.014660765664,0.029321531328,0.004886921888,-0.25636,-0.20358,2.13324,-0.0430708068,-14.679966651,0.610169763,0.014660765664,0.029321531328,0.004886921888,-0.25636,-0.20358,2.13324,0.23536,0.17652,0.1471,1.013678756476684,25.97
0,490287,-4,-2047,87,15,20,6,-360,-397,3703,9,4,5,25.97,1.0137774488033555,-0.0937325373004744,0.0,0.0,0.0,0,0,0.0,11.524734497070312,12.167202949523926,7,447.0,292.0,0.0,0.0,0,0.0,0.0,0.0,0.0,0.4805742927708552,0.0,0.0,0.0216886850859001,0.4165911078453064,-0.0191536135971546,9.801861763000488,-0.0078462688252329,-0.6909782290458679,-0.0074755442328751,0.7227943539619446,6,0.0,0.0,-0.0287138712,-14.694323586600001,0.6245266986,0.01832595708,0.024434609439999998,0.007330382832,-0.2088,-0.23026,2.14774,-0.0287138712,-14.694323586600001,0.6245266986,0.01832595708,0.024434609439999998,0.007330382832,-0.2088,-0.23026,2.14774,0.26478,0.11768,0.1471,1.0137774488033555,25.97
0,490392,-5,-2049,83,11,24,5,-410,-384,3711,9,3,5,25.97,1.013678756476684,0.656153623682962,0.0,0.0,0.0,0,0,0.0,12.051703453063965,12.178030967712402,7,447.0,292.0,0.0,0.0,0,0.0,0.0,0.0,0.0,0.5239825489000757,0.0,0.0,0.0643943111019865,0.3974374830722809,-0.0239420160651206,9.81143856048584,-0.0079345228150486,-0.6909899711608887,-0.007477946113795,0.7227821350097656,6,0.0,0.0,-0.035892339,-14.7086805222,0.5958128274000001,0.013439035192,0.029321531328,0.0061086523599999994,-0.2378,-0.22272,2.15238,-0.035892339,-14.7086805222,0.5958128274000001,0.013439035192,0.029321531328,0.0061086523599999994,-0.2378,-0.22272,2.15238,0.26478,0.08826,0.1471,1.013678756476684,25.97
0,490497,-6,-2047,92,11,22,5,-379,-371,3685,9,5,5,25.97,1.013678756476684,0.656153623682962,0.0,0.0,0.0,0,0,0.0,12.026437759399414,12.022828102111816,7,447.0,292.0,0.0,0.0,0,0.0,0.0,0.0,0.0,0.5146726759364622,0.0,0.0,0.0478647486646899,0.4405331015586853,-0.0287304203957319,9.801861763000488,-0.0079088127240538,-0.6909683346748352,-0.0074494099244475,0.7228034138679504,6,0.0,0.0,-0.0430708068,-14.694323586600001,0.6604190376,0.013439035192,0.026878070384,0.0061086523599999994,-0.21982,-0.21518,2.1373,-0.0430708068,-14.694323586600001,0.6604190376,0.013439035192,0.026878070384,0.0061086523599999994,-0.21982,-0.21518,2.1373,0.26478,0.1471,0.1471,1.013678756476684,25.97
0,490602,0,-2047,89,12,24,4,-458,-371,3711,6,3,6,25.97,1.013718233407353,0.3561920653597745,0.0,0.0,0.0,0,0,0.0,11.806265830993652,11.986734390258787,7,447.0,292.0,0.0,0.0,0,0.0,0.0,0.0,0.0,0.4935565920737328,0.0,0.0,0.0198704504351694,0.4261679053306579,0.0,9.801861763000488,-0.0078784096986055,-0.6909525394439697,-0.0074604311957955,0.7228187918663025,6,0.0,0.0,0.0,-14.694323586600001,0.6388836342,0.014660765664,0.029321531328,0.004886921888,-0.26564,-0.21518,2.15238,0.0,-14.694323586600001,0.6388836342,0.014660765664,0.029321531328,0.004886921888,-0.26564,-0.21518,2.15238,0.17652,0.08826,0.17652,1.013718233407353,25.97
0,490707,-5,-2043,91,9,25,4,-403,-386,3628,7,5,6,25.98,1.0136392795460154,0.956124641357415,0.0,0.0,0.0,0,0,0.0,11.965078353881836,11.604140281677246,7,447.0,292.0,0.0,0.0,0,0.0,0.0,0.0,0.0,0.4532810871508108,0.0,0.0,-0.0221519604147152,0.4357447028160095,-0.0239420160651206,9.782708168029783,-0.0078590773046016,-0.690965473651886,-0.0074483165517449,0.7228067517280579,6,0.0,0.0,-0.035892339,-14.6656097154,0.6532405698,0.010995574248,0.0305432618,0.004886921888,-0.23374,-0.22388,2.10424,-0.035892339,-14.6656097154,0.6532405698,0.010995574248,0.0305432618,0.004886921888,-0.23374,-0.22388,2.10424,0.20594,0.1471,0.17652,1.0136392795460154,25.98
0,490812,-3,-2047,97,12,24,3,-417,-367,3645,8,5,5,25.97,1.013678756476684,0.656153623682962,0.0,0.0,0.0,0,0,0.0,12.040875434875488,11.845969200134276,7,447.0,292.0,0.0,0.0,0,0.0,0.0,0.0,0.0,0.4615485972551006,0.0,0.0,-0.0116079526190801,0.4644751250743866,-0.0143652101978659,9.801861763000488,-0.0078567573800683,-0.6909493207931519,-0.0074530597776174,0.7228220701217651,6,0.0,0.0,-0.0215354034,-14.694323586600001,0.6963113766,0.014660765664,0.029321531328,0.003665191416,-0.24186,-0.21286,2.1141,-0.0215354034,-14.694323586600001,0.6963113766,0.014660765664,0.029321531328,0.003665191416,-0.24186,-0.21286,2.1141,0.23536,0.1471,0.1471,1.013678756476684,25.97
0,490917,-10,-2044,89,9,23,3,-467,-368,3683,9,5,5,25.97,1.013678756476684,0.656153623682962,0.0,0.0,0.0,0,0,0.0,11.89289093017578,12.030047416687012,7,447.0,292.0,0.0,0.0,0,0.0,0.0,0.0,0.0,0.4948176142123101,0.0,0.0,0.0256968954941167,0.4261679053306579,-0.0478840321302413,9.78749656677246,-0.007837425917387,-0.6909623146057129,-0.0074409460648894,0.7228100299835205,6,0.0,0.0,-0.071784678,-14.6727881832,0.6388836342,0.010995574248,0.028099800855999998,0.003665191416,-0.27086,-0.21344,2.13614,-0.071784678,-14.6727881832,0.6388836342,0.010995574248,0.028099800855999998,0.003665191416,-0.27086,-0.21344,2.13614,0.26478,0.1471,0.1471,1.013678756476684,25.97
0,491022,-10,-2049,90,9,25,5,-399,-358,3640,7,4,6,25.97,1.0137281026400198,0.2812031537257816,0.0,0.0,0.0,0,0,0.0,11.744906425476074,12.073359489440918,7,447.0,292.0,0.0,0.0,0,0.0,0.0,0.0,0.0,0.5545564710007816,0.0,0.0,0.0852043142023041,0.4309563040733337,-0.0478840321302413,9.81143856048584,-0.0078179175034165,-0.6909579634666443,-0.0074290186166763,0.7228145599365234,6,0.0,0.0,-0.071784678,-14.7086805222,0.646062102,0.010995574248,0.0305432618,0.0061086523599999994,-0.23142000000000001,-0.20764,2.1112,-0.071784678,-14.7086805222,0.646062102,0.010995574248,0.0305432618,0.0061086523599999994,-0.23142000000000001,-0.20764,2.1112,0.20594,0.11768,0.17652,1.0137281026400198,25.97
0,491127,-6,-2047,85,12,24,2,-415,-376,3650,7,5,6,25.97,1.013718233407353,0.3561920653597745,0.0,0.0,0.0,0,0,0.0,11.607749938964844,11.8351411819458,7,447.0,292.0,0.0,0.0,0,0.0,0.0,0.0,0.0,0.598459678322046,0.0,0.0,0.1222366122686308,0.4070142805576324,-0.0287304203957319,9.801861763000488,-0.0077535435557365,-0.6909309029579163,-0.0074409269727766,0.7228409051895142,6,0.0,0.0,-0.0430708068,-14.694323586600001,0.610169763,0.014660765664,0.029321531328,0.002443460944,-0.2407,-0.21808,2.117,-0.0430708068,-14.694323586600001,0.610169763,0.014660765664,0.029321531328,0.002443460944,-0.2407,-0.21808,2.117,0.20594,0.1471,0.17652,1.013718233407353,25.97
0,491232,-1,-2050,88,11,24,4,-415,-408,3654,8,5,5,25.98,1.0138958795953614,-0.9935179055076128,0.0,0.0,0.0,0,0,0.0,12.087797164916992,12.00478172302246,7,447.0,292.0,0.0,0.0,0,0.0,0.0,0.0,0.0,0.5861999483046322,0.0,0.0,0.09086607484142,0.4213795065879822,-0.0047884033992886,9.816226959228516,-0.0077384142205119,-0.6909149289131165,-0.0073782177641987,0.7228570580482483,6,0.0,0.0,-0.0071784678,-14.715858990000001,0.6317051664000001,0.013439035192,0.029321531328,0.004886921888,-0.2407,-0.23664,2.11932,-0.0071784678,-14.715858990000001,0.6317051664000001,0.013439035192,0.029321531328,0.004886921888,-0.2407,-0.23664,2.11932,0.23536,0.1471,0.1471,1.0138958795953614,25.98
0,491337,-4,-2047,89,10,24,4,-451,-389,3637,7,4,6,25.97,1.0138267949666913,-0.468653450694773,0.0,0.0,0.0,0,0,0.0,12.095015525817873,12.001172065734863,7,447.0,292.0,0.0,0.0,0,0.0,0.0,0.0,0.0,0.4445947401338128,0.0,0.0,-0.0663372247899932,0.4261679053306579,-0.0191536135971546,9.801861763000488,-0.0193956792354583,-0.6906202435493469,-0.018507219851017,0.7227206230163574,6,0.0,0.0,-0.0287138712,-14.694323586600001,0.6388836342,0.012217304719999999,0.029321531328,0.004886921888,-0.26158,-0.22562000000000001,2.10946,-0.0287138712,-14.694323586600001,0.6388836342,0.012217304719999999,0.029321531328,0.004886921888,-0.26158,-0.22562000000000001,2.10946,0.20594,0.11768,0.17652,1.0138267949666913,25.97
0,491442,-5,-2045,97,11,24,5,-409,-399,3657,8,4,5,25.97,1.013619541080681,1.1061136976643025,0.0,0.0,0.0,0,0,0.0,11.596921920776367,11.97951602935791,7,447.0,292.0,0.0,0.0,0,0.0,0.0,0.0,0.0,0.5230584331534058,0.0,0.0,0.021803906377004,0.4644751250743866,-0.0239420160651206,9.792284965515137,-0.0194090623408556,-0.6905979514122009,-0.0184758901596069,0.7227423787117004,6,0.0,0.0,-0.035892339,-14.679966651,0.6963113766,0.013439035192,0.029321531328,0.0061086523599999994,-0.23722000000000001,-0.23142000000000001,2.12106,-0.035892339,-14.679966651,0.6963113766,0.013439035192,0.029321531328,0.0061086523599999994,-0.23722000000000001,-0.23142000000000001,2.12106,0.23536,0.11768,0.1471,1.013619541080681,25.97
0,491547,-5,-2049,84,12,25,4,-408,-393,3625,9,4,6,25.97,1.0137281026400198,0.2812031537257816,0.0,0.0,0.0,0,0,0.0,11.550000190734863,11.687156677246094,7,447.0,292.0,0.0,0.0,0,0.0,0.0,0.0,0.0,0.5527931778092229,0.0,0.0,0.0490272244710679,0.4022258818149566,-0.0239420160651206,9.81143856048584,-0.0193826109170913,-0.690588116645813,-0.018416941165924,0.7227539420127869,6,0.0,0.0,-0.035892339,-14.7086805222,0.6029912952,0.014660765664,0.0305432618,0.004886921888,-0.23664,-0.22794,2.1025,-0.035892339,-14.7086805222,0.6029912952,0.014660765664,0.0305432618,0.004886921888,-0.23664,-0.22794,2.1025,0.26478,0.11768,0.17652,1.0137281026400198,25.97
0,491652,-8,-2050,90,11,24,5,-418,-342,3662,8,5,6,25.98,1.0135899333826794,1.331101716683073,0.0,0.0,0.0,0,0,0.0,11.965078353881836,11.8351411819458,7,447.0,292.0,0.0,0.0,0,0.0,0.0,0.0,0.0,0.5792037772590753,0.0,0.0,0.0711286499560712,0.4309563040733337,-0.0383072271943092,9.816226959228516,-0.0193856731057167,-0.6905834674835205,-0.0184079650789499,0.7227585911750793,6,0.0,0.0,-0.0574277424,-14.715858990000001,0.646062102,0.013439035192,0.029321531328,0.0061086523599999994,-0.24244,-0.19836,2.12396,-0.0574277424,-14.715858990000001,0.646062102,0.013439035192,0.029321531328,0.0061086523599999994,-0.24244,-0.19836,2.12396,0.23536,0.1471,0.17652,1.0135899333826794,25.98
0,491757,-3,-2046,91,13,24,4,-385,-379,3652,8,4,5,25.97,1.0137281026400198,0.2812031537257816,0.0,0.0,0.0,0,0,0.0,12.084187507629396,11.882062911987305,7,447.0,292.0,0.0,0.0,0,0.0,0.0,0.0,0.0,0.5568040622157477,0.0,0.0,0.0384201440086886,0.4357447028160095,-0.0143652101978659,9.797073364257812,-0.0193827748298645,-0.6905615925788879,-0.0184052176773548,0.7227795720100403,6,0.0,0.0,-0.0215354034,-14.6871451188,0.6532405698,0.015882496136,0.029321531328,0.004886921888,-0.2233,-0.21982,2.11816,-0.0215354034,-14.6871451188,0.6532405698,0.015882496136,0.029321531328,0.004886921888,-0.2233,-0.21982,2.11816,0.23536,0.11768,0.1471,1.0137281026400198,25.97
0,491862,-3,-2049,95,10,24,3,-457,-359,3669,8,4,5,25.98,1.0136392795460154,0.956124641357415,0.0,0.0,0.0,0,0,0.0,12.058921813964844,12.15637493133545,7,447.0,292.0,0.0,0.0,0,0.0,0.0,0.0,0.0,0.6307621511062731,0.0,0.0,0.1062084500555489,0.454898327589035,-0.0143652101978659,9.81143856048584,-0.0193686392158269,-0.6905516386032104,-0.0183911398053169,0.7227898240089417,6,0.0,0.0,-0.0215354034,-14.7086805222,0.681954441,0.012217304719999999,0.029321531328,0.003665191416,-0.26506,-0.20822,2.12802,-0.0215354034,-14.7086805222,0.681954441,0.012217304719999999,0.029321531328,0.003665191416,-0.26506,-0.20822,2.12802,0.23536,0.11768,0.1471,1.0136392795460154,25.98
0,491967,-4,-2042,81,11,25,6,-399,-367,3659,9,3,6,25.98,1.013747841105354,0.1312271039162025,0.0,0.0,0.0,0,0,0.0,11.008593559265137,12.098625183105469,7,447.0,292.0,0.0,0.0,0,0.0,0.0,0.0,0.0,0.6217742605692983,0.0,0.0,0.084569283279034,0.3878606855869293,-0.0191536135971546,9.77791976928711,-0.0193770620971918,-0.6905410885810852,-0.0183765459805727,0.7228001356124878,6,0.0,0.0,-0.0287138712,-14.658431247600001,0.5814558918,0.013439035192,0.0305432618,0.007330382832,-0.23142000000000001,-0.21286,2.12222,-0.0287138712,-14.658431247600001,0.5814558918,0.013439035192,0.0305432618,0.007330382832,-0.23142000000000001,-0.21286,2.12222,0.26478,0.08826,0.17652,1.013747841105354,25.98
0,492072,-11,-2046,90,9,23,4,-382,-348,3646,8,4,6,25.98,1.0136886257093511,0.5811623473134071,0.0,0.0,0.0,0,0,0.0,12.06614112854004,11.864015579223633,7,447.0,292.0,0.0,0.0,0,0.0,0.0,0.0,0.0,0.5987727954530522,0.0,0.0,0.0512655053029295,0.4309563040733337,-0.0526724383234977,9.797073364257812,-0.0193975791335105,-0.6905416250228882,-0.0183839444071054,0.722798764705658,6,0.0,0.0,-0.07896314580000001,-14.6871451188,0.646062102,0.010995574248,0.028099800855999998,0.004886921888,-0.22156,-0.20184,2.11468,-0.07896314580000001,-14.6871451188,0.646062102,0.010995574248,0.028099800855999998,0.004886921888,-0.22156,-0.20184,2.11468,0.23536,0.11768,0.17652,1.0136886257093511,25.98
0,492177,-1,-2041,96,12,24,5,-407,-389,3698,7,4,6,25.97,1.0137873180360226,-0.1687179021524948,0.0,0.0,0.0,0,0,0.0,11.90010929107666,11.827921867370604,7,447.0,292.0,0.0,0.0,0,0.0,0.0,0.0,0.0,0.629597918147996,0.0,0.0,0.0729666239693085,0.4596867263317108,-0.0047884033992886,9.773131370544434,-0.0193644613027572,-0.690485954284668,-0.0183320138603448,0.7228541374206543,6,0.0,0.0,-0.0071784678,-14.6512527798,0.6891329088,0.014660765664,0.029321531328,0.0061086523599999994,-0.23606,-0.22562000000000001,2.14484,-0.0071784678,-14.6512527798,0.6891329088,0.014660765664,0.029321531328,0.0061086523599999994,-0.23606,-0.22562000000000001,2.14484,0.20594,0.11768,0.17652,1.0137873180360226,25.97
0,492282,-5,-2045,86,11,24,3,-297,-345,3602,8,4,5,25.97,1.0135800641500123,1.4060989056129316,0.0,0.0,0.0,0,0,0.0,11.907328605651855,12.055312156677246,7,447.0,292.0,0.0,0.0,0,0.0,0.0,0.0,0.0,0.6869711328526665,0.0,0.0,0.1237290702009592,0.4118026793003082,-0.0239420160651206,9.792284965515137,-0.0359849072992801,-0.6904719471931458,-0.0344397202134132,0.7216423153877258,6,0.0,0.0,-0.035892339,-14.679966651,0.6173482308,0.013439035192,0.029321531328,0.003665191416,-0.17226,-0.2001,2.08916,-0.035892339,-14.679966651,0.6173482308,0.013439035192,0.029321531328,0.003665191416,-0.17226,-0.2001,2.08916,0.23536,0.11768,0.1471,1.0135800641500123,25.97
0,492387,-7,-2049,86,11,25,4,-437,-365,3677,7,4,6,25.98,1.0136984949420182,0.5061716621445979,0.0,0.0,0.0,0,0,0.0,11.950640678405762,12.026437759399414,7,447.0,292.0,0.0,0.0,0,0.0,0.0,0.0,0.0,0.7130744218575219,0.0,0.0,0.1356472295312416,0.4118026793003082,-0.0335188247263431,9.81143856048584,-0.0360234901309013,-0.6904636025428772,-0.0344397313892841,0.7216482758522034,6,0.0,0.0,-0.050249274600000005,-14.7086805222,0.6173482308,0.013439035192,0.0305432618,0.004886921888,-0.25346,-0.2117,2.13266,-0.050249274600000005,-14.7086805222,0.6173482308,0.013439035192,0.0305432618,0.004886921888,-0.25346,-0.2117,2.13266,0.20594,0.11768,0.17652,1.0136984949420182,25.98
0,492492,-7,-2047,89,11,24,5,-426,-364,3625,9,5,5,25.97,1.0137379718726869,0.2062148332475874,0.0,0.0,0.0,0,0,0.0,11.604140281677246,11.517516136169434,7,447.0,292.0,0.0,0.0,0,0.0,0.0,0.0,0.0,0.6904070094435739,0.0,0.0,0.0969562214307194,0.4261679053306579,-0.0335188247263431,9.801861763000488,-0.0360587500035762,-0.6904959082603455,-0.0344547741115093,0.7216148972511292,6,0.0,0.0,-0.050249274600000005,-14.694323586600001,0.6388836342,0.013439035192,0.029321531328,0.0061086523599999994,-0.24708,-0.21112,2.1025,-0.050249274600000005,-14.694323586600001,0.6388836342,0.013439035192,0.029321531328,0.0061086523599999994,-0.24708,-0.21112,2.1025,0.26478,0.1471,0.1471,1.0137379718726869,25.97
0,492597,-8,-2044,90,11,22,4,-424,-383,3677,7,5,5,25.97,1.0137379718726869,0.2062148332475874,0.0,0.0,0.0,0,0,0.0,11.61496925354004,11.799046516418455,7,447.0,292.0,0.0,0.0,0,0.0,0.0,0.0,0.0,0.6883456679763096,0.0,0.0,0.0813566077016926,0.4309563040733337,-0.0383072271943092,9.78749656677246,-0.036068819463253,-0.6904948353767395,-0.0344269461929798,0.721616804599762,6,0.0,0.0,-0.0574277424,-14.6727881832,0.646062102,0.013439035192,0.026878070384,0.004886921888,-0.24592,-0.22214,2.13266,-0.0574277424,-14.6727881832,0.646062102,0.013439035192,0.026878070384,0.004886921888,-0.24592,-0.22214,2.13266,0.20594,0.1471,0.1471,1.0137379718726869,25.97
0,492702,-6,-2046,90,10,22,3,-420,-383,3671,8,4,5,25.98,1.01379718726869,-0.2437026759071476,0.0,0.0,0.0,0,0,0.0,11.61496925354004,11.61857795715332,7,447.0,292.0,0.0,0.0,0,0.0,0.0,0.0,0.0,0.6229210086658875,0.0,0.0,0.0036734855310025,0.4309563040733337,-0.0287304203957319,9.797073364257812,-0.0360514111816883,-0.690512478351593,-0.0343932472169399,0.7216024398803711,6,0.0,0.0,-0.0430708068,-14.6871451188,0.646062102,0.012217304719999999,0.026878070384,0.003665191416,-0.2436,-0.22214,2.12918,-0.0430708068,-14.6871451188,0.646062102,0.012217304719999999,0.026878070384,0.003665191416,-0.2436,-0.22214,2.12918,0.23536,0.11768,0.1471,1.01379718726869,25.98
0,492807,-6,-2049,86,10,26,5,-404,-354,3657,8,4,6,25.97,1.0137281026400198,0.2812031537257816,0.0,0.0,0.0,0,0,0.0,11.882062911987305,11.72325038909912,7,447.0,292.0,0.0,0.0,0,0.0,0.0,0.0,0.0,0.5662713393307186,0.0,0.0,-0.0554527964621948,0.4118026793003082,-0.0287304203957319,9.81143856048584,-0.0360674858093261,-0.6905109882354736,-0.0343822091817855,0.721603512763977,6,0.0,0.0,-0.0430708068,-14.7086805222,0.6173482308,0.012217304719999999,0.031764992272,0.0061086523599999994,-0.23432,-0.20532,2.12106,-0.0430708068,-14.7086805222,0.6173482308,0.012217304719999999,0.031764992272,0.0061086523599999994,-0.23432,-0.20532,2.12106,0.23536,0.11768,0.17652,1.0137281026400198,25.97
0,492912,0,-2048,91,11,25,4,-502,-340,3620,8,6,7,25.97,1.013629410313348,1.0311188738790231,0.0,0.0,0.0,0,0,0.0,12.058921813964844,11.90010929107666,7,447.0,292.0,0.0,0.0,0,0.0,0.0,0.0,0.0,0.5957980359880533,0.0,0.0,-0.0204681112690334,0.4357447028160095,0.0,9.806650161743164,-0.0360591821372509,-0.6904875636100769,-0.034339003264904,0.7216283679008484,6,0.0,0.0,0.0,-14.7015020544,0.6532405698,0.013439035192,0.0305432618,0.004886921888,-0.29116,-0.19720000000000001,2.0996,0.0,-14.7015020544,0.6532405698,0.013439035192,0.0305432618,0.004886921888,-0.29116,-0.19720000000000001,2.0996,0.23536,0.17652,0.20594,1.013629410313348,25.97
0,493017,-7,-2047,90,10,26,5,-390,-358,3670,8,6,6,25.97,1.013678756476684,0.656153623682962,0.0,0.0,0.0,0,0,0.0,11.58609390258789,11.61135959625244,7,447.0,292.0,0.0,0.0,0,0.0,0.0,0.0,0.0,0.6226280138397581,0.0,0.0,0.0073261497299584,0.4309563040733337,-0.0335188247263431,9.801861763000488,-0.0360700450837612,-0.6904979348182678,-0.0343218781054019,0.7216187715530396,6,0.0,0.0,-0.050249274600000005,-14.694323586600001,0.646062102,0.012217304719999999,0.031764992272,0.0061086523599999994,-0.2262,-0.20764,2.1286,-0.050249274600000005,-14.694323586600001,0.646062102,0.012217304719999999,0.031764992272,0.0061086523599999994,-0.2262,-0.20764,2.1286,0.23536,0.17652,0.17652,1.013678756476684,25.97
0,493122,-6,-2049,95,11,24,3,-405,-367,3662,9,3,5,25.98,1.0135998026153468,1.2561051190528432,0.0,0.0,0.0,0,0,0.0,12.026437759399414,11.719640731811523,7,447.0,292.0,0.0,0.0,0,0.0,0.0,0.0,0.0,0.6078355203554932,0.0,0.0,-0.0087835927394892,0.454898327589035,-0.0287304203957319,9.81143856048584,-0.0360745452344417,-0.6904855966567993,-0.034322939813137,0.721630334854126,6,0.0,0.0,-0.0430708068,-14.7086805222,0.681954441,0.013439035192,0.029321531328,0.003665191416,-0.2349,-0.21286,2.12396,-0.0430708068,-14.7086805222,0.681954441,0.013439035192,0.029321531328,0.003665191416,-0.2349,-0.21286,2.12396,0.26478,0.08826,0.1471,1.0135998026153468,25.98
0,493227,-3,-2047,83,10,25,3,-355,-389,3647,7,4,5,25.98,1.013747841105354,0.1312271039162025,0.0,0.0,0.0,0,0,0.0,11.950640678405762,12.17442226409912,7,447.0,292.0,0.0,0.0,0,0.0,0.0,0.0,0.0,0.5355901355963827,0.0,0.0,-0.0810030071321239,0.3974374830722809,-0.0143652101978659,9.801861763000488,-0.0360856503248214,-0.690496027469635,-0.0343170799314975,0.7216200828552246,6,0.0,0.0,-0.0215354034,-14.694323586600001,0.5958128274000001,0.012217304719999999,0.0305432618,0.003665191416,-0.2059,-0.22562000000000001,2.11526,-0.0215354034,-14.694323586600001,0.5958128274000001,0.012217304719999999,0.0305432618,0.003665191416,-0.2059,-0.22562000000000001,2.11526,0.20594,0.11768,0.1471,1.013747841105354,25.98
0,493332,1,-2043,88,12,25,4,-350,-382,3684,8,4,5,25.98,1.013807056501357,-0.3186868585734222,0.0,0.0,0.0,0,0,0.0,11.737688064575195,11.84957790374756,7,447.0,292.0,0.0,0.0,0,0.0,0.0,0.0,0.0,0.4481537120816621,0.0,0.0,-0.1629470997740686,0.4213795065879822,0.0047884033992886,9.782708168029783,-0.0039245039224624,-0.6910617351531982,-0.0037547070533037,0.7227753400802612,6,0.0,0.0,0.0071784678,-14.6656097154,0.6317051664000001,0.014660765664,0.0305432618,0.004886921888,-0.203,-0.22156,2.13672,0.0071784678,-14.6656097154,0.6317051664000001,0.014660765664,0.0305432618,0.004886921888,-0.203,-0.22156,2.13672,0.23536,0.11768,0.1471,1.013807056501357,25.98
0,493437,-8,-2043,87,11,24,5,-407,-386,3723,8,4,4,25.98,1.0136984949420182,0.5061716621445979,0.0,0.0,0.0,0,0,0.0,12.120281219482422,11.983124732971191,7,447.0,292.0,0.0,0.0,0,0.0,0.0,0.0,0.0,0.4188668691540491,0.0,0.0,-0.1776277284535325,0.4165911078453064,-0.0383072271943092,9.782708168029783,-0.0039365044794976,-0.6910455822944641,-0.0037398466374725,0.7227908372879028,6,0.0,0.0,-0.0574277424,-14.6656097154,0.6245266986,0.013439035192,0.029321531328,0.0061086523599999994,-0.23606,-0.22388,2.15934,-0.0574277424,-14.6656097154,0.6245266986,0.013439035192,0.029321531328,0.0061086523599999994,-0.23606,-0.22388,2.15934,0.23536,0.11768,0.11768,1.0136984949420182,25.98
0,493542,-7,-2042,83,10,23,4,-403,-394,3692,7,5,4,25.98,1.013747841105354,0.1312271039162025,0.0,0.0,0.0,0,0,0.0,11.75573444366455,12.109453201293944,7,447.0,292.0,0.0,0.0,0,0.0,0.0,0.0,0.0,0.3835994254701072,0.0,0.0,-0.1955606888651764,0.3974374830722809,-0.0335188247263431,9.77791976928711,-0.0039086267352104,-0.6910295486450195,-0.0037089460529386,0.7228065133094788,6,0.0,0.0,-0.050249274600000005,-14.658431247600001,0.5958128274000001,0.012217304719999999,0.028099800855999998,0.004886921888,-0.23374,-0.22852,2.14136,-0.050249274600000005,-14.658431247600001,0.5958128274000001,0.012217304719999999,0.028099800855999998,0.004886921888,-0.23374,-0.22852,2.14136,0.20594,0.1471,0.11768,1.013747841105354,25.98
0,493647,-3,-2054,86,5,28,3,-401,-355,3686,7,5,6,25.99,1.013807056501357,-0.3186868585734222,0.0,0.0,0.0,0,0,0.0,11.58609390258789,12.109453201293944,7,447.0,292.0,0.0,0.0,0,0.0,0.0,0.0,0.0,0.363361160958934,0.0,0.0,-0.1968772577226099,0.4118026793003082,-0.0143652101978659,9.83538055419922,-0.0039666569791734,-0.6910880208015442,-0.0037152329459786,0.722750186920166,6,0.0,0.0,-0.0215354034,-14.7445728612,0.6173482308,0.0061086523599999994,0.034208453215999995,0.003665191416,-0.23258,-0.2059,2.13788,-0.0215354034,-14.7445728612,0.6173482308,0.0061086523599999994,0.034208453215999995,0.003665191416,-0.23258,-0.2059,2.13788,0.20594,0.1471,0.17652,1.013807056501357,25.99
0,493752,-8,-2040,92,8,22,2,-372,-357,3658,7,3,4,25.98,1.0136886257093511,0.5811623473134071,0.0,0.0,0.0,0,0,0.0,11.542781829833984,11.712422370910645,7,447.0,292.0,0.0,0.0,0,0.0,0.0,0.0,0.0,0.3419155209123604,0.0,0.0,-0.199638172680818,0.4405331015586853,-0.0383072271943092,9.768342971801758,-0.0039452346973121,-0.6911066770553589,-0.0037122268695384,0.7227325439453125,6,0.0,0.0,-0.0574277424,-14.644074312,0.6604190376,0.009773843776,0.026878070384,0.002443460944,-0.21576,-0.20706,2.12164,-0.0574277424,-14.644074312,0.6604190376,0.009773843776,0.026878070384,0.002443460944,-0.21576,-0.20706,2.12164,0.20594,0.08826,0.11768,1.0136886257093511,25.98
0,493857,-3,-2048,85,11,24,1,-385,-354,3685,7,5,5,25.98,1.0136886257093511,0.5811623473134071,0.0,0.0,0.0,0,0,0.0,11.878453254699709,12.033656120300291,7,447.0,292.0,0.0,0.0,0,0.0,0.0,0.0,0.0,0.3607259412885343,0.0,0.0,-0.1620305853589634,0.4070142805576324,-0.0143652101978659,9.806650161743164,-0.0038949844893068,-0.6910791993141174,-0.0036931759677827,0.7227591276168823,6,0.0,0.0,-0.0215354034,-14.7015020544,0.610169763,0.013439035192,0.029321531328,0.001221730472,-0.2233,-0.20532,2.1373,-0.0215354034,-14.7015020544,0.610169763,0.013439035192,0.029321531328,0.001221730472,-0.2233,-0.20532,2.1373,0.20594,0.1471,0.1471,1.0136886257093511,25.98
0,493962,-4,-2051,91,10,24,3,-380,-361,3667,8,4,5,25.97,1.0135307179866766,1.7810937201836547,0.0,0.0,0.0,0,0,0.0,11.86762523651123,12.06253147125244,7,447.0,292.0,0.0,0.0,0,0.0,0.0,0.0,0.0,0.3855715585002653,0.0,0.0,-0.1171253603275669,0.4357447028160095,-0.0191536135971546,9.821015357971191,-0.003919179085642,-0.691091775894165,-0.0037117598112672,0.7227469682693481,6,0.0,0.0,-0.0287138712,-14.7230374578,0.6532405698,0.012217304719999999,0.029321531328,0.003665191416,-0.2204,-0.20938,2.12686,-0.0287138712,-14.7230374578,0.6532405698,0.012217304719999999,0.029321531328,0.003665191416,-0.2204,-0.20938,2.12686,0.23536,0.11768,0.1471,1.0135307179866766,25.97
0,494067,-5,-2048,89,11,25,3,-408,-354,3697,8,5,5,25.98,1.0136886257093511,0.5811623473134071,0.0,0.0,0.0,0,0,0.0,12.080577850341797,11.86762523651123,7,447.0,292.0,0.0,0.0,0,0.0,0.0,0.0,0.0,0.362596806513913,0.0,0.0,-0.1295569065908683,0.4261679053306579,-0.0239420160651206,9.806650161743164,-0.0039083310402929,-0.6910699009895325,-0.0036861517000943,0.7227680683135986,6,0.0,0.0,-0.035892339,-14.7015020544,0.6388836342,0.013439035192,0.0305432618,0.003665191416,-0.23664,-0.20532,2.14426,-0.035892339,-14.7015020544,0.6388836342,0.013439035192,0.0305432618,0.003665191416,-0.23664,-0.20532,2.14426,0.23536,0.1471,0.1471,1.0136886257093511,25.98
0,494172,-6,-2046,90,12,23,5,-370,-350,3642,8,6,4,25.98,1.0136392795460154,0.956124641357415,0.0,0.0,0.0,0,0,0.0,11.878453254699709,11.39118766784668,7,447.0,292.0,0.0,0.0,0,0.0,0.0,0.0,0.0,0.3896456255927757,0.0,0.0,-0.0861296952630516,0.4309563040733337,-0.0287304203957319,9.797073364257812,-0.0038689484354108,-0.6910596489906311,-0.0036441846750676,0.7227782607078552,6,0.0,0.0,-0.0430708068,-14.6871451188,0.646062102,0.014660765664,0.028099800855999998,0.0061086523599999994,-0.2146,-0.203,2.11236,-0.0430708068,-14.6871451188,0.646062102,0.014660765664,0.028099800855999998,0.0061086523599999994,-0.2146,-0.203,2.11236,0.23536,0.17652,0.11768,1.0136392795460154,25.98
0,494277,-7,-2045,86,11,25,4,-424,-391,3664,8,4,5,25.98,1.0136886257093511,0.5811623473134071,0.0,0.0,0.0,0,0,0.0,11.965078353881836,11.499468803405762,7,447.0,292.0,0.0,0.0,0,0.0,0.0,0.0,0.0,0.41807099788487,0.0,0.0,-0.0484264766072085,0.4118026793003082,-0.0335188247263431,9.792284965515137,-0.0038519313093274,-0.6910089254379272,-0.0036019254475831,0.7228270173072815,6,0.0,0.0,-0.050249274600000005,-14.679966651,0.6173482308,0.013439035192,0.0305432618,0.004886921888,-0.24592,-0.22678,2.12512,-0.050249274600000005,-14.679966651,0.6173482308,0.013439035192,0.0305432618,0.004886921888,-0.24592,-0.22678,2.12512,0.23536,0.11768,0.1471,1.0136886257093511,25.98
0,494382,-3,-2044,89,10,24,5,-443,-392,3703,7,5,6,25.98,1.0138465334320257,-0.73109997380294,0.0,0.0,0.0,0,0,0.0,11.264859199523926,11.939812660217283,7,447.0,292.0,0.0,0.0,0,0.0,0.0,0.0,0.0,0.3000201429468185,0.0,0.0,-0.1677504416284993,0.4261679053306579,-0.0143652101978659,9.78749656677246,-0.0292782057076692,-0.6914600133895874,-0.0281207226216793,0.7212732434272766,6,0.0,0.0,-0.0215354034,-14.6727881832,0.6388836342,0.012217304719999999,0.029321531328,0.0061086523599999994,-0.25694,-0.22736,2.14774,-0.0215354034,-14.6727881832,0.6388836342,0.012217304719999999,0.029321531328,0.0061086523599999994,-0.25694,-0.22736,2.14774,0.20594,0.1471,0.17652,1.0138465334320257,25.98
0,494487,-1,-2045,89,10,25,5,-435,-387,3697,9,5,5,25.98,1.0135998026153468,1.1436280324979358,0.0,0.0,0.0,0,0,0.0,11.50307846069336,12.120281219482422,7,447.0,292.0,0.0,0.0,0,0.0,0.0,0.0,0.0,0.3981313040165609,0.0,0.0,-0.0491785679537195,0.4261679053306579,-0.0047884033992886,9.792284965515137,-0.0292504858225584,-0.6914427280426025,-0.0281243063509464,0.7212908864021301,6,0.0,0.0,-0.0071784678,-14.679966651,0.6388836342,0.012217304719999999,0.0305432618,0.0061086523599999994,-0.2523,-0.22446,2.14426,-0.0071784678,-14.679966651,0.6388836342,0.012217304719999999,0.0305432618,0.0061086523599999994,-0.2523,-0.22446,2.14426,0.26478,0.1471,0.1471,1.0135998026153468,25.98
0,494592,-3,-2047,93,9,24,4,-370,-406,3675,9,3,6,25.98,1.0136984949420182,0.3936924920107981,0.0,0.0,0.0,0,0,0.0,12.06614112854004,12.095015525817873,7,447.0,292.0,0.0,0.0,0,0.0,0.0,0.0,0.0,0.394120757763127,0.0,0.0,-0.0469456101749373,0.4453215301036834,-0.0143652101978659,9.801861763000488,-0.0292381644248962,-0.691407322883606,-0.0280887633562088,0.7213266491889954,6,0.0,0.0,-0.0215354034,-14.694323586600001,0.6675975054000001,0.010995574248,0.029321531328,0.004886921888,-0.2146,-0.23548,2.1315,-0.0215354034,-14.694323586600001,0.6675975054000001,0.010995574248,0.029321531328,0.004886921888,-0.2146,-0.23548,2.1315,0.26478,0.08826,0.17652,1.0136984949420182,25.98
0,494699,-7,-2047,90,13,24,4,-431,-360,3662,8,3,6,25.99,1.0136590180113496,0.6936596133418426,0.0,0.0,0.0,0,0,0.0,11.950640678405762,11.827921867370604,7,447.0,292.0,0.0,0.0,0,0.0,0.0,0.0,0.0,0.4106514284955035,0.0,0.0,-0.0257940011808268,0.4309563040733337,-0.0335188247263431,9.801861763000488,-0.0292386971414089,-0.6914060115814209,-0.0280628520995378,0.721328854560852,6,0.0,0.0,-0.050249274600000005,-14.694323586600001,0.646062102,0.015882496136,0.029321531328,0.004886921888,-0.24998,-0.2088,2.12396,-0.050249274600000005,-14.694323586600001,0.646062102,0.015882496136,0.029321531328,0.004886921888,-0.24998,-0.2088,2.12396,0.23536,0.08826,0.17652,1.0136590180113496,25.99
0,494802,-4,-2044,85,13,24,3,-446,-379,3669,8,3,5,25.98,1.0136886257093511,0.468683385531204,0.0,0.0,0.0,0,0,0.0,11.968688011169434,12.170812606811523,7,447.0,292.0,0.0,0.0,0,0.0,0.0,0.0,0.0,0.3481196313284099,0.0,0.0,-0.0867960741561127,0.4070142805576324,-0.0191536135971546,9.78749656677246,-0.029204299673438,-0.6913715600967407,-0.028050335124135,0.7213637828826904,6,0.0,0.0,-0.0287138712,-14.6727881832,0.610169763,0.015882496136,0.029321531328,0.003665191416,-0.25868,-0.21982,2.12802,-0.0287138712,-14.6727881832,0.610169763,0.015882496136,0.029321531328,0.003665191416,-0.25868,-0.21982,2.12802,0.23536,0.08826,0.1471,1.0136886257093511,25.98
0,494907,-4,-2048,92,12,25,4,-423,-336,3727,8,5,5,25.98,1.013747841105354,0.0187468920513877,0.0,0.0,0.0,0,0,0.0,11.59331226348877,11.8351411819458,7,447.0,292.0,0.0,0.0,0,0.0,0.0,0.0,0.0,0.2936682885726962,0.0,0.0,-0.1357340500925563,0.4405331015586853,-0.0191536135971546,9.806650161743164,-0.0292099341750144,-0.691347062587738,-0.0280421506613492,0.7213873267173767,6,0.0,0.0,-0.0287138712,-14.7015020544,0.6604190376,0.014660765664,0.0305432618,0.004886921888,-0.24534,-0.19488,2.16166,-0.0287138712,-14.7015020544,0.6604190376,0.014660765664,0.0305432618,0.004886921888,-0.24534,-0.19488,2.16166,0.23536,0.1471,0.1471,1.013747841105354,25.98
0,495012,-6,-2045,90,10,25,3,-389,-370,3673,8,4,6,25.98,1.0136886257093511,0.468683385531204,0.0,0.0,0.0,0,0,0.0,11.993953704833984,11.701593399047852,7,447.0,292.0,0.0,0.0,0,0.0,0.0,0.0,0.0,0.3244367154186581,0.0,0.0,-0.0887236557013771,0.4309563040733337,-0.0287304203957319,9.792284965515137,-0.0292323790490627,-0.6913160681724548,-0.0280394796282053,0.7214162349700928,6,0.0,0.0,-0.0430708068,-14.679966651,0.646062102,0.012217304719999999,0.0305432618,0.003665191416,-0.22562000000000001,-0.2146,2.13034,-0.0430708068,-14.679966651,0.646062102,0.012217304719999999,0.0305432618,0.003665191416,-0.22562000000000001,-0.2146,2.13034,0.23536,0.11768,0.17652,1.0136886257093511,25.98
0,495117,-3,-2047,85,11,23,3,-378,-373,3692,8,3,6,25.98,1.013807056501357,-0.4311683204534284,0.0,0.0,0.0,0,0,0.0,12.01921844482422,12.001172065734863,7,447.0,292.0,0.0,0.0,0,0.0,0.0,0.0,0.0,0.3661668695365863,0.0,0.0,-0.0392972250039063,0.4070142805576324,-0.0143652101978659,9.801861763000488,-0.029248159378767,-0.6912680268287659,-0.028020717203617,0.7214624285697937,6,0.0,0.0,-0.0215354034,-14.694323586600001,0.610169763,0.013439035192,0.028099800855999998,0.003665191416,-0.21924,-0.21634,2.14136,-0.0215354034,-14.694323586600001,0.610169763,0.013439035192,0.028099800855999998,0.003665191416,-0.21924,-0.21634,2.14136,0.23536,0.08826,0.17652,1.013807056501357,25.98
0,495222,-9,-2047,90,12,25,4,-377,-377,3709,8,3,6,25.98,1.0136392795460154,0.8436467213556688,0.0,0.0,0.0,0,0,0.0,11.654671669006348,11.87484359741211,7,447.0,292.0,0.0,0.0,0,0.0,0.0,0.0,0.0,0.4180063973171037,0.0,0.0,0.0182250841438356,0.4309563040733337,-0.0430956296622753,9.801861763000488,-0.0292600002139806,-0.691254734992981,-0.028017584234476,0.7214747071266174,6,0.0,0.0,-0.0646062102,-14.694323586600001,0.646062102,0.014660765664,0.0305432618,0.004886921888,-0.21866,-0.21866,2.15122,-0.0646062102,-14.694323586600001,0.646062102,0.014660765664,0.0305432618,0.004886921888,-0.21866,-0.21866,2.15122,0.23536,0.08826,0.17652,1.0136392795460154,25.98
0,495327,-6,-2046,93,11,24,5,-412,-380,3681,7,5,5,25.99,1.0135998026153468,1.1436280324979358,0.0,0.0,0.0,0,0,0.0,11.97951602935791,11.76295280456543,7,447.0,292.0,0.0,0.0,0,0.0,0.0,0.0,0.0,0.4190852448502586,0.0,0.0,0.0187651663675513,0.4453215301036834,-0.0287304203957319,9.797073364257812,-0.0327194221317768,-0.6910081505775452,-0.0313214026391506,0.7214264869689941,6,0.0,0.0,-0.0430708068,-14.6871451188,0.6675975054000001,0.013439035192,0.029321531328,0.0061086523599999994,-0.23896,-0.2204,2.13498,-0.0430708068,-14.6871451188,0.6675975054000001,0.013439035192,0.029321531328,0.0061086523599999994,-0.23896,-0.2204,2.13498,0.20594,0.1471,0.1471,1.0135998026153468,25.99
0,495432,-8,-2050,85,10,26,5,-455,-391,3705,8,4,6,25.98,1.0136491487786825,0.768652871723662,0.0,0.0,0.0,0,0,0.0,12.087797164916992,11.910937309265137,7,447.0,292.0,0.0,0.0,0,0.0,0.0,0.0,0.0,0.4233218608959141,0.0,0.0,0.0213633030136625,0.4070142805576324,-0.0383072271943092,9.816226959228516,-0.0327651463449001,-0.6910361051559448,-0.0313140228390693,0.7213979363441467,6,0.0,0.0,-0.0574277424,-14.715858990000001,0.610169763,0.012217304719999999,0.031764992272,0.0061086523599999994,-0.2639,-0.22678,2.1489,-0.0574277424,-14.715858990000001,0.610169763,0.012217304719999999,0.031764992272,0.0061086523599999994,-0.2639,-0.22678,2.1489,0.23536,0.11768,0.17652,1.0136491487786825,25.98
0,495537,-10,-2049,93,10,25,5,-376,-363,3685,8,4,5,25.98,1.013747841105354,0.0187468920513877,0.0,0.0,0.0,0,0,0.0,12.095015525817873,11.972296714782717,7,447.0,292.0,0.0,0.0,0,0.0,0.0,0.0,0.0,0.3984859916119559,0.0,0.0,-0.007743335068488,0.4453215301036834,-0.0478840321302413,9.81143856048584,-0.0327515229582786,-0.6910146474838257,-0.0312763825058937,0.7214208245277405,6,0.0,0.0,-0.071784678,-14.7086805222,0.6675975054000001,0.012217304719999999,0.0305432618,0.0061086523599999994,-0.21808,-0.21054,2.1373,-0.071784678,-14.7086805222,0.6675975054000001,0.012217304719999999,0.0305432618,0.0061086523599999994,-0.21808,-0.21054,2.1373,0.23536,0.11768,0.1471,1.013747841105354,25.98
0,495642,-5,-2053,88,11,25,4,-436,-356,3667,8,5,5,25.98,1.013747841105354,0.0187468920513877,0.0,0.0,0.0,0,0,0.0,11.604140281677246,11.694375038146973,7,447.0,292.0,0.0,0.0,0,0.0,0.0,0.0,0.0,0.3943021259034433,0.0,0.0,-0.0122604252858275,0.4213795065879822,-0.0239420160651206,9.830592155456545,-0.0327201150357723,-0.690976619720459,-0.0312342494726181,0.7214605212211609,6,0.0,0.0,-0.035892339,-14.7373943934,0.6317051664000001,0.013439035192,0.0305432618,0.004886921888,-0.25288,-0.20648,2.12686,-0.035892339,-14.7373943934,0.6317051664000001,0.013439035192,0.0305432618,0.004886921888,-0.25288,-0.20648,2.12686,0.23536,0.1471,0.1471,1.013747841105354,25.98
0,495747,-6,-2047,88,13,27,5,-378,-384,3682,9,5,5,25.99,1.0136590180113496,0.6936596133418426,0.0,0.0,0.0,0,0,0.0,11.402015686035156,11.947031021118164,7,447.0,292.0,0.0,0.0,0,0.0,0.0,0.0,0.0,0.3907760740743716,0.0,0.0,-0.0144598817844039,0.4213795065879822,-0.0287304203957319,9.801861763000488,-0.0327360220253467,-0.690965473651886,-0.0312349293380975,0.7214703559875488,6,0.0,0.0,-0.0430708068,-14.694323586600001,0.6317051664000001,0.015882496136,0.032986722744,0.0061086523599999994,-0.21924,-0.22272,2.13556,-0.0430708068,-14.694323586600001,0.6317051664000001,0.015882496136,0.032986722744,0.0061086523599999994,-0.21924,-0.22272,2.13556,0.26478,0.1471,0.1471,1.0136590180113496,25.99
0,495852,-5,-2047,92,11,23,4,-343,-422,3698,7,4,6,25.98,1.0136984949420182,0.3936924920107981,0.0,0.0,0.0,0,0,0.0,11.633015632629396,11.907328605651855,7,447.0,292.0,0.0,0.0,0,0.0,0.0,0.0,0.0,0.3905508568656508,0.0,0.0,-0.0134713129978712,0.4405331015586853,-0.0239420160651206,9.801861763000488,-0.0327116250991821,-0.6909617185592651,-0.03118547052145,0.7214772701263428,6,0.0,0.0,-0.035892339,-14.694323586600001,0.6604190376,0.013439035192,0.028099800855999998,0.004886921888,-0.19894,-0.24476,2.14484,-0.035892339,-14.694323586600001,0.6604190376,0.013439035192,0.028099800855999998,0.004886921888,-0.19894,-0.24476,2.14484,0.20594,0.11768,0.17652,1.0136984949420182,25.98
0,495957,-4,-2049,93,9,24,3,-391,-384,3746,9,5,6,25.98,1.0136886257093511,0.468683385531204,0.0,0.0,0.0,0,0,0.0,12.051703453063965,11.806265830993652,7,447.0,292.0,0.0,0.0,0,0.0,0.0,0.0,0.0,0.4822242497034728,0.0,0.0,0.0767774537835135,0.4453215301036834,-0.0191536135971546,9.81143856048584,-0.0326944552361965,-0.6909635663032532,-0.0311976335942745,0.7214757204055786,6,0.0,0.0,-0.0287138712,-14.7086805222,0.6675975054000001,0.010995574248,0.029321531328,0.003665191416,-0.22678,-0.22272,2.17268,-0.0287138712,-14.7086805222,0.6675975054000001,0.010995574248,0.029321531328,0.003665191416,-0.22678,-0.22272,2.17268,0.26478,0.1471,0.17652,1.0136886257093511,25.98
0,496062,-4,-2045,91,11,24,3,-432,-375,3730,8,5,5,25.99,1.0135504564520108,1.5186179756325866,0.0,0.0,0.0,0,0,0.0,12.087797164916992,11.961468696594238,7,447.0,292.0,0.0,0.0,0,0.0,0.0,0.0,0.0,0.5763513504640383,0.0,0.0,0.1685791272057872,0.4357447028160095,-0.0191536135971546,9.792284965515137,-0.0326597802340984,-0.6909776926040649,-0.0311589110642671,0.7214654684066772,6,0.0,0.0,-0.0287138712,-14.679966651,0.6532405698,0.013439035192,0.029321531328,0.003665191416,-0.25056,-0.2175,2.1634,-0.0287138712,-14.679966651,0.6532405698,0.013439035192,0.029321531328,0.003665191416,-0.25056,-0.2175,2.1634,0.23536,0.1471,0.1471,1.0135504564520108,25.99
0,496167,-6,-2042,90,10,25,5,-450,-377,3716,8,4,6,25.99,1.013757710338021,-0.0562404544847845,0.0,0.0,0.0,0,0,0.0,12.022828102111816,11.600531578063965,7,447.0,292.0,0.0,0.0,0,0.0,0.0,0.0,0.0,0.5442641001410611,0.0,0.0,0.1155457557702575,0.4309563040733337,-0.0287304203957319,9.77791976928711,-0.0326516479253768,-0.6909387111663818,-0.0311500988900661,0.721503496170044,6,0.0,0.0,-0.0430708068,-14.658431247600001,0.646062102,0.012217304719999999,0.0305432618,0.0061086523599999994,-0.261,-0.21866,2.15528,-0.0430708068,-14.658431247600001,0.646062102,0.012217304719999999,0.0305432618,0.0061086523599999994,-0.261,-0.21866,2.15528,0.23536,0.11768,0.17652,1.013757710338021,25.99
0,496272,-6,-2048,90,10,26,4,-410,-376,3678,8,4,5,25.99,1.0135504564520108,1.5186179756325866,0.0,0.0,0.0,0,0,0.0,12.105843544006348,12.04448413848877,7,447.0,292.0,0.0,0.0,0,0.0,0.0,0.0,0.0,0.5578302410937025,0.0,0.0,0.1163823479235417,0.4309563040733337,-0.0287304203957319,9.806650161743164,-0.0326557978987693,-0.690928041934967,-0.0311284773051738,0.7215144634246826,6,0.0,0.0,-0.0430708068,-14.7015020544,0.646062102,0.012217304719999999,0.031764992272,0.004886921888,-0.2378,-0.21808,2.13324,-0.0430708068,-14.7015020544,0.646062102,0.012217304719999999,0.031764992272,0.004886921888,-0.2378,-0.21808,2.13324,0.23536,0.11768,0.1471,1.0135504564520108,25.99
0,496377,-3,-2043,84,9,23,4,-380,-396,3730,8,4,5,25.99,1.013807056501357,-0.4311683204534284,0.0,0.0,0.0,0,0,0.0,11.712422370910645,11.84235954284668,7,447.0,292.0,0.0,0.0,0,0.0,0.0,0.0,0.0,0.5511304534741633,0.0,0.0,0.0921713868049559,0.4022258818149566,-0.0143652101978659,9.782708168029783,-0.0200499761849641,-0.691087007522583,-0.0191671438515186,0.7222391366958618,6,0.0,0.0,-0.0215354034,-14.6656097154,0.6029912952,0.010995574248,0.028099800855999998,0.004886921888,-0.2204,-0.22968,2.1634,-0.0215354034,-14.6656097154,0.6029912952,0.010995574248,0.028099800855999998,0.004886921888,-0.2204,-0.22968,2.1634,0.23536,0.11768,0.1471,1.013807056501357,25.99
0,496482,-4,-2046,91,10,24,5,-429,-388,3737,8,3,5,25.98,1.0136984949420182,0.3936924920107981,0.0,0.0,0.0,0,0,0.0,12.109453201293944,11.993953704833984,7,447.0,292.0,0.0,0.0,0,0.0,0.0,0.0,0.0,0.540341854411691,0.0,0.0,0.0692566644004564,0.4357447028160095,-0.0191536135971546,9.797073364257812,-0.0200467929244041,-0.6911015510559082,-0.0191070102155208,0.7222269773483276,6,0.0,0.0,-0.0287138712,-14.6871451188,0.6532405698,0.012217304719999999,0.029321531328,0.0061086523599999994,-0.24882,-0.22504,2.16746,-0.0287138712,-14.6871451188,0.6532405698,0.012217304719999999,0.029321531328,0.0061086523599999994,-0.24882,-0.22504,2.16746,0.23536,0.08826,0.1471,1.0136984949420182,25.98
0,496587,-6,-2049,91,11,24,4,-459,-391,3762,7,3,5,25.99,1.0135504564520108,1.5186179756325866,0.0,0.0,0.0,0,0,0.0,12.080577850341797,11.947031021118164,7,447.0,292.0,0.0,0.0,0,0.0,0.0,0.0,0.0,0.5669487711803478,0.0,0.0,0.0928352617808185,0.4357447028160095,-0.0287304203957319,9.81143856048584,-0.0200781282037496,-0.6911035776138306,-0.0190915688872337,0.7222245335578918,6,0.0,0.0,-0.0430708068,-14.7086805222,0.6532405698,0.013439035192,0.029321531328,0.004886921888,-0.26622,-0.22678,2.18196,-0.0430708068,-14.7086805222,0.6532405698,0.013439035192,0.029321531328,0.004886921888,-0.26622,-0.22678,2.18196,0.20594,0.08826,0.1471,1.0135504564520108,25.99
0,496692,-3,-2045,91,11,24,3,-421,-380,3712,7,5,6,25.99,1.013757710338021,-0.0562404544847845,0.0,0.0,0.0,0,0,0.0,12.048093795776367,11.820703506469728,7,447.0,292.0,0.0,0.0,0,0.0,0.0,0.0,0.0,0.4784847893669359,0.0,0.0,-0.0098127031211003,0.4357447028160095,-0.0143652101978659,9.792284965515137,-0.0200745183974504,-0.6910834312438965,-0.0190549530088901,0.7222447991371155,6,0.0,0.0,-0.0215354034,-14.679966651,0.6532405698,0.013439035192,0.029321531328,0.003665191416,-0.24418,-0.2204,2.15296,-0.0215354034,-14.679966651,0.6532405698,0.013439035192,0.029321531328,0.003665191416,-0.24418,-0.2204,2.15296,0.20594,0.1471,0.17652,1.013757710338021,25.99
0,496797,-1,-2045,91,10,24,4,-408,-412,3729,7,4,6,25.98,1.013807056501357,-0.4311683204534284,0.0,0.0,0.0,0,0,0.0,11.712422370910645,11.741296768188477,7,447.0,292.0,0.0,0.0,0,0.0,0.0,0.0,0.0,0.4442142389670069,0.0,0.0,-0.045210158143028,0.4357447028160095,-0.0047884033992886,9.792284965515137,-0.0200702603906393,-0.691057562828064,-0.018995938822627,0.7222713828086853,6,0.0,0.0,-0.0071784678,-14.679966651,0.6532405698,0.012217304719999999,0.029321531328,0.004886921888,-0.23664,-0.23896,2.16282,-0.0071784678,-14.679966651,0.6532405698,0.012217304719999999,0.029321531328,0.004886921888,-0.23664,-0.23896,2.16282,0.20594,0.11768,0.17652,1.013807056501357,25.98
0,496902,-7,-2049,87,13,24,3,-446,-384,3735,8,3,4,25.99,1.013807056501357,-0.4311683204534284,0.0,0.0,0.0,0,0,0.0,12.127500534057615,11.97951602935791,7,447.0,292.0,0.0,0.0,0,0.0,0.0,0.0,0.0,0.3047430778375505,0.0,0.0,-0.1851617992140372,0.4165911078453064,-0.0335188247263431,9.81143856048584,-0.0200660433620214,-0.6910143494606018,-0.0189599636942148,0.7223137617111206,6,0.0,0.0,-0.050249274600000005,-14.7086805222,0.6245266986,0.015882496136,0.029321531328,0.003665191416,-0.25868,-0.22272,2.1663,-0.050249274600000005,-14.7086805222,0.6245266986,0.015882496136,0.029321531328,0.003665191416,-0.25868,-0.22272,2.1663,0.23536,0.08826,0.11768,1.013807056501357,25.99
0,497007,-5,-2049,89,11,21,5,-443,-406,3756,7,5,5,25.99,1.013757710338021,-0.0562404544847845,0.0,0.0,0.0,0,0,0.0,11.983124732971191,11.716031074523926,7,447.0,292.0,0.0,0.0,0,0.0,0.0,0.0,0.0,0.2935713318034763,0.0,0.0,-0.179696616789991,0.4261679053306579,-0.0239420160651206,9.81143856048584,-0.0200060792267322,-0.6910072565078735,-0.0189129952341318,0.7223234176635742,6,0.0,0.0,-0.035892339,-14.7086805222,0.6388836342,0.013439035192,0.025656339912,0.0061086523599999994,-0.25694,-0.23548,2.17848,-0.035892339,-14.7086805222,0.6388836342,0.013439035192,0.025656339912,0.0061086523599999994,-0.25694,-0.23548,2.17848,0.20594,0.1471,0.1471,1.013757710338021,25.99
0,497112,-3,-2049,88,11,24,3,-362,-403,3762,8,4,5,25.99,1.0136590180113496,0.6936596133418426,0.0,0.0,0.0,0,0,0.0,11.687156677246094,11.420063018798828,7,447.0,292.0,0.0,0.0,0,0.0,0.0,0.0,0.0,0.2827251143248261,0.0,0.0,-0.1715516905426941,0.4213795065879822,-0.0143652101978659,9.81143856048584,-0.0200311373919248,-0.6909806132316589,-0.0189041160047054,0.7223483920097351,6,0.0,0.0,-0.0215354034,-14.7086805222,0.6317051664000001,0.013439035192,0.029321531328,0.003665191416,-0.20996,-0.23374,2.18196,-0.0215354034,-14.7086805222,0.6317051664000001,0.013439035192,0.029321531328,0.003665191416,-0.20996,-0.23374,2.18196,0.23536,0.11768,0.1471,1.0136590180113496,25.99
0,497217,-4,-2049,89,10,24,2,-430,-389,3716,8,4,6,25.99,1.013807056501357,-0.4311683204534284,0.0,0.0,0.0,0,0,0.0,11.817093849182127,12.040875434875488,7,447.0,292.0,0.0,0.0,0,0.0,0.0,0.0,0.0,0.2789000614301329,0.0,0.0,-0.1596369866693732,0.4261679053306579,-0.0191536135971546,9.81143856048584,-0.0200448743999004,-0.6909715533256531,-0.0188724435865879,0.7223575115203857,6,0.0,0.0,-0.0287138712,-14.7086805222,0.6388836342,0.012217304719999999,0.029321531328,0.002443460944,-0.2494,-0.22562000000000001,2.15528,-0.0287138712,-14.7086805222,0.6388836342,0.012217304719999999,0.029321531328,0.002443460944,-0.2494,-0.22562000000000001,2.15528,0.23536,0.11768,0.17652,1.013807056501357,25.99
0,497322,-7,-2049,88,10,23,3,-379,-385,3659,8,5,5,25.99,1.0136590180113496,0.6936596133418426,0.0,0.0,0.0,0,0,0.0,12.01921844482422,12.14915657043457,7,447.0,292.0,0.0,0.0,0,0.0,0.0,0.0,0.0,0.267700222755929,0.0,0.0,-0.1537683335093352,0.4213795065879822,-0.0335188247263431,9.81143856048584,-0.007837108336389,-0.6909914016723633,-0.0074989846907556,0.7227816581726074,6,0.0,0.0,-0.050249274600000005,-14.7086805222,0.6317051664000001,0.012217304719999999,0.028099800855999998,0.003665191416,-0.21982,-0.2233,2.12222,-0.050249274600000005,-14.7086805222,0.6317051664000001,0.012217304719999999,0.028099800855999998,0.003665191416,-0.21982,-0.2233,2.12222,0.23536,0.1471,0.1471,1.0136590180113496,25.99
0,497427,-4,-2046,87,14,23,4,-363,-438,3688,8,5,5,25.99,1.013718233407353,0.2437124785272761,0.0,0.0,0.0,0,0,0.0,12.022828102111816,11.8351411819458,7,447.0,292.0,0.0,0.0,0,0.0,0.0,0.0,0.0,0.19453703287565,0.0,0.0,-0.2137626306727913,0.4165911078453064,-0.0191536135971546,9.797073364257812,-0.0078203976154327,-0.690940797328949,-0.0074575641192495,0.722830593585968,6,0.0,0.0,-0.0287138712,-14.6871451188,0.6245266986,0.017104226607999998,0.028099800855999998,0.004886921888,-0.21054,-0.25404,2.13904,-0.0287138712,-14.6871451188,0.6245266986,0.017104226607999998,0.028099800855999998,0.004886921888,-0.21054,-0.25404,2.13904,0.23536,0.1471,0.1471,1.013718233407353,25.99
0,497532,-9,-2047,91,11,22,3,-362,-329,3750,8,4,5,25.98,1.013807056501357,-0.4311683204534284,0.0,0.0,0.0,0,0,0.0,11.885671615600586,12.04448413848877,7,447.0,292.0,0.0,0.0,0,0.0,0.0,0.0,0.0,0.2256336154291494,0.0,0.0,-0.1607252540065633,0.4357447028160095,-0.0430956296622753,9.801861763000488,-0.0077937175519764,-0.6909191608428955,-0.0074612246826291,0.7228515148162842,6,0.0,0.0,-0.0646062102,-14.694323586600001,0.6532405698,0.013439035192,0.026878070384,0.003665191416,-0.20996,-0.19082,2.175,-0.0646062102,-14.694323586600001,0.6532405698,0.013439035192,0.026878070384,0.003665191416,-0.20996,-0.19082,2.175,0.23536,0.11768,0.1471,1.013807056501357,25.98
0,497637,-5,-2043,86,11,26,4,-409,-389,3703,8,5,5,25.98,1.0136491487786825,0.768652871723662,0.0,0.0,0.0,0,0,0.0,11.42367172241211,12.134718894958496,7,447.0,292.0,0.0,0.0,0,0.0,0.0,0.0,0.0,0.2376706588189186,0.0,0.0,-0.1303676491716941,0.4118026793003082,-0.0239420160651206,9.782708168029783,-0.0078079807572066,-0.6909259557723999,-0.0075144604779779,0.7228443026542664,6,0.0,0.0,-0.035892339,-14.6656097154,0.6173482308,0.013439035192,0.031764992272,0.004886921888,-0.23722000000000001,-0.22562000000000001,2.14774,-0.035892339,-14.6656097154,0.6173482308,0.013439035192,0.031764992272,0.004886921888,-0.23722000000000001,-0.22562000000000001,2.14774,0.23536,0.1471,0.1471,1.0136491487786825,25.98
0,497742,-4,-2049,87,10,24,4,-450,-399,3725,8,5,6,25.98,1.0136392795460154,0.8436467213556688,0.0,0.0,0.0,0,0,0.0,12.055312156677246,11.80987548828125,7,447.0,292.0,0.0,0.0,0,0.0,0.0,0.0,0.0,0.2959442547524397,0.0,0.0,-0.0566642232998477,0.4165911078453064,-0.0191536135971546,9.81143856048584,-0.0078148702159523,-0.6909502744674683,-0.0074830055236816,0.7228214144706726,6,0.0,0.0,-0.0287138712,-14.7086805222,0.6245266986,0.012217304719999999,0.029321531328,0.004886921888,-0.261,-0.23142000000000001,2.1605,-0.0287138712,-14.7086805222,0.6245266986,0.012217304719999999,0.029321531328,0.004886921888,-0.261,-0.23142000000000001,2.1605,0.23536,0.1471,0.17652,1.0136392795460154,25.98
0,497847,-5,-2049,87,12,23,3,-387,-398,3730,7,5,5,25.99,1.013609671848014,1.0686318177977596,0.0,0.0,0.0,0,0,0.0,11.936203002929688,12.113062858581545,7,447.0,292.0,0.0,0.0,0,0.0,0.0,0.0,0.0,0.3659062332507066,0.0,0.0,0.01975691589802,0.4165911078453064,-0.0239420160651206,9.81143856048584,-0.0078276172280311,-0.6909339427947998,-0.0074800681322813,0.7228368520736694,6,0.0,0.0,-0.035892339,-14.7086805222,0.6245266986,0.014660765664,0.028099800855999998,0.003665191416,-0.22446,-0.23084,2.1634,-0.035892339,-14.7086805222,0.6245266986,0.014660765664,0.028099800855999998,0.003665191416,-0.22446,-0.23084,2.1634,0.20594,0.1471,0.1471,1.013609671848014,25.99
0,497952,-13,-2047,89,11,25,5,-419,-429,3769,7,3,4,25.99,1.0136590180113496,0.6936596133418426,0.0,0.0,0.0,0,0,0.0,11.939812660217283,11.76295280456543,7,447.0,292.0,0.0,0.0,0,0.0,0.0,0.0,0.0,0.4010676596701538,0.0,0.0,0.0538668012597362,0.4261679053306579,-0.0622492432594299,9.801861763000488,-0.0078179165720939,-0.6909294128417969,-0.0074775139801204,0.7228412628173828,6,0.0,0.0,-0.0933200814,-14.694323586600001,0.6388836342,0.013439035192,0.0305432618,0.0061086523599999994,-0.24302,-0.24882,2.18602,-0.0933200814,-14.694323586600001,0.6388836342,0.013439035192,0.0305432618,0.0061086523599999994,-0.24302,-0.24882,2.18602,0.20594,0.08826,0.11768,1.0136590180113496,25.99
0,498057,-6,-2049,92,13,23,3,-433,-408,3787,8,3,5,25.99,1.0136590180113496,0.6936596133418426,0.0,0.0,0.0,0,0,0.0,11.84235954284668,11.84957790374756,7,447.0,292.0,0.0,0.0,0,0.0,0.0,0.0,0.0,0.4080955288032795,0.0,0.0,0.0537633640326509,0.4405331015586853,-0.0287304203957319,9.81143856048584,-0.0078080976381897,-0.6909134984016418,-0.0074750892817974,0.7228567004203796,6,0.0,0.0,-0.0430708068,-14.7086805222,0.6604190376,0.015882496136,0.028099800855999998,0.003665191416,-0.25114,-0.23664,2.19646,-0.0430708068,-14.7086805222,0.6604190376,0.015882496136,0.028099800855999998,0.003665191416,-0.25114,-0.23664,2.19646,0.23536,0.08826,0.1471,1.0136590180113496,25.99
0,498162,-6,-2041,90,13,25,2,-374,-392,3785,7,4,5,25.99,1.0136590180113496,0.6936596133418426,0.0,0.0,0.0,0,0,0.0,11.445327758789062,11.975906372070312,7,447.0,292.0,0.0,0.0,0,0.0,0.0,0.0,0.0,0.4291999630710419,0.0,0.0,0.0711414898469679,0.4309563040733337,-0.0287304203957319,9.773131370544434,-0.0077648167498409,-0.6908863186836243,-0.0074961194768548,0.7228829264640808,6,0.0,0.0,-0.0430708068,-14.6512527798,0.646062102,0.015882496136,0.0305432618,0.002443460944,-0.21692,-0.22736,2.1953,-0.0430708068,-14.6512527798,0.646062102,0.015882496136,0.0305432618,0.002443460944,-0.21692,-0.22736,2.1953,0.20594,0.11768,0.1471,1.0136590180113496,25.99
0,498268,-4,-2050,90,11,25,2,-412,-409,3729,8,5,4,26.0,1.0138267949666913,-0.5811353292420149,0.0,0.0,0.0,0,0,0.0,12.058921813964844,11.87484359741211,7,447.0,292.0,0.0,0.0,0,0.0,0.0,0.0,0.0,0.4020478697957327,0.0,0.0,0.0301245681550416,0.4309563040733337,-0.0191536135971546,9.816226959228516,-0.0077156303450465,-0.6908707022666931,-0.0075002280063927,0.7228982448577881,6,0.0,0.0,-0.0287138712,-14.715858990000001,0.646062102,0.013439035192,0.0305432618,0.002443460944,-0.23896,-0.23722000000000001,2.16282,-0.0287138712,-14.715858990000001,0.646062102,0.013439035192,0.0305432618,0.002443460944,-0.23896,-0.23722000000000001,2.16282,0.23536,0.1471,0.11768,1.0138267949666913,26.0
0,498372,-7,-2047,86,11,26,4,-362,-397,3734,7,6,6,26.0,1.013718233407353,0.2437124785272761,0.0,0.0,0.0,0,0,0.0,11.853187561035156,12.073359489440918,7,447.0,292.0,0.0,0.0,0,0.0,0.0,0.0,0.0,0.4419071416460605,0.0,0.0,0.0656408979394479,0.4118026793003082,-0.0335188247263431,9.801861763000488,-0.0158711913973093,-0.6910346150398254,-0.0151687134057283,0.722488284111023,6,0.0,0.0,-0.050249274600000005,-14.694323586600001,0.6173482308,0.013439035192,0.031764992272,0.004886921888,-0.20996,-0.23026,2.16572,-0.050249274600000005,-14.694323586600001,0.6173482308,0.013439035192,0.031764992272,0.004886921888,-0.20996,-0.23026,2.16572,0.20594,0.17652,0.17652,1.013718233407353,26.0
0,498477,-3,-2050,93,10,23,4,-417,-419,3732,8,5,5,26.0,1.0137774488033555,-0.2062133741841216,0.0,0.0,0.0,0,0,0.0,11.918156623840332,11.73046875,7,447.0,292.0,0.0,0.0,0,0.0,0.0,0.0,0.0,0.4096082943748991,0.0,0.0,0.0238781628576238,0.4453215301036834,-0.0143652101978659,9.816226959228516,-0.0158632341772317,-0.6910185217857361,-0.0150800654664635,0.7225056290626526,6,0.0,0.0,-0.0215354034,-14.715858990000001,0.6675975054000001,0.012217304719999999,0.028099800855999998,0.004886921888,-0.24186,-0.24302,2.16456,-0.0215354034,-14.715858990000001,0.6675975054000001,0.012217304719999999,0.028099800855999998,0.004886921888,-0.24186,-0.24302,2.16456,0.23536,0.1471,0.1471,1.0137774488033555,26.0
0,498582,-5,-2051,94,13,26,3,-416,-411,3774,8,4,6,26.0,1.013718233407353,0.2437124785272761,0.0,0.0,0.0,0,0,0.0,11.636625289916992,11.89289093017578,7,447.0,292.0,0.0,0.0,0,0.0,0.0,0.0,0.0,0.3868157963575952,0.0,0.0,-0.0026956347168315,0.4501099288463592,-0.0239420160651206,9.821015357971191,-0.0159205924719572,-0.6910070776939392,-0.0151309436187148,0.7225143313407898,6,0.0,0.0,-0.035892339,-14.7230374578,0.6747759732,0.015882496136,0.031764992272,0.003665191416,-0.24128,-0.23838,2.18892,-0.035892339,-14.7230374578,0.6747759732,0.015882496136,0.031764992272,0.003665191416,-0.24128,-0.23838,2.18892,0.23536,0.11768,0.17652,1.013718233407353,26.0
0,498687,-2,-2045,93,9,22,5,-415,-387,3702,7,5,5,26.0,1.013718233407353,0.2437124785272761,0.0,0.0,0.0,0,0,0.0,11.550000190734863,12.09140682220459,7,447.0,292.0,0.0,0.0,0,0.0,0.0,0.0,0.0,0.3978966921835253,0.0,0.0,0.0086240350749019,0.4453215301036834,-0.0095768067985773,9.792284965515137,-0.0158968288451433,-0.6910028457641602,-0.0150819113478064,0.7225198745727539,6,0.0,0.0,-0.0143569356,-14.679966651,0.6675975054000001,0.010995574248,0.026878070384,0.0061086523599999994,-0.2407,-0.22446,2.14716,-0.0143569356,-14.679966651,0.6675975054000001,0.010995574248,0.026878070384,0.0061086523599999994,-0.2407,-0.22446,2.14716,0.20594,0.1471,0.1471,1.013718233407353,26.0
0,498792,-9,-2047,92,11,24,5,-365,-395,3714,8,4,6,25.99,1.0136590180113496,0.6936596133418426,0.0,0.0,0.0,0,0,0.0,11.069952964782717,12.09140682220459,7,447.0,292.0,0.0,0.0,0,0.0,0.0,0.0,0.0,0.4498460635801349,0.0,0.0,0.0615789279695247,0.4405331015586853,-0.0430956296622753,9.801861763000488,-0.0158903766423463,-0.6909868717193604,-0.0150609603151679,0.7225357294082642,6,0.0,0.0,-0.0646062102,-14.694323586600001,0.6604190376,0.013439035192,0.029321531328,0.0061086523599999994,-0.2117,-0.2291,2.15412,-0.0646062102,-14.694323586600001,0.6604190376,0.013439035192,0.029321531328,0.0061086523599999994,-0.2117,-0.2291,2.15412,0.23536,0.11768,0.17652,1.0136590180113496,25.99
0,498897,-4,-2049,90,12,24,3,-399,-409,3761,8,4,5,25.99,1.013757710338021,-0.0562404544847845,0.0,0.0,0.0,0,0,0.0,11.70520305633545,12.113062858581545,7,447.0,292.0,0.0,0.0,0,0.0,0.0,0.0,0.0,0.4148798680087914,0.0,0.0,0.0191152082024378,0.4309563040733337,-0.0191536135971546,9.81143856048584,-0.0158736165612936,-0.6910057663917542,-0.015050783753395,0.722518265247345,6,0.0,0.0,-0.0287138712,-14.7086805222,0.646062102,0.014660765664,0.029321531328,0.003665191416,-0.23142000000000001,-0.23722000000000001,2.18138,-0.0287138712,-14.7086805222,0.646062102,0.014660765664,0.029321531328,0.003665191416,-0.23142000000000001,-0.23722000000000001,2.18138,0.23536,0.11768,0.1471,1.013757710338021,25.99
0,499002,-5,-2047,94,12,21,3,-361,-401,3710,8,5,4,25.99,1.013718233407353,0.2437124785272761,0.0,0.0,0.0,0,0,0.0,11.708812713623049,11.813484191894531,7,447.0,292.0,0.0,0.0,0,0.0,0.0,0.0,0.0,0.3863592379548833,0.0,0.0,-0.0136832685308213,0.4501099288463592,-0.0239420160651206,9.801861763000488,-0.0158444922417402,-0.6909728646278381,-0.0150419976562261,0.7225504517555237,6,0.0,0.0,-0.035892339,-14.694323586600001,0.6747759732,0.014660765664,0.025656339912,0.003665191416,-0.20938,-0.23258,2.1518,-0.035892339,-14.694323586600001,0.6747759732,0.014660765664,0.025656339912,0.003665191416,-0.20938,-0.23258,2.1518,0.23536,0.1471,0.11768,1.013718233407353,25.99
0,499107,-7,-2043,97,11,23,2,-398,-394,3752,8,3,5,25.99,1.013609671848014,1.0686318177977596,0.0,0.0,0.0,0,0,0.0,12.06614112854004,12.008390426635742,7,447.0,292.0,0.0,0.0,0,0.0,0.0,0.0,0.0,0.3501069152241924,0.0,0.0,-0.0479416384138491,0.4644751250743866,-0.0335188247263431,9.782708168029783,-0.0158159583806991,-0.6909804940223694,-0.0150210447609424,0.7225443124771118,6,0.0,0.0,-0.050249274600000005,-14.6656097154,0.6963113766,0.013439035192,0.028099800855999998,0.002443460944,-0.23084,-0.22852,2.17616,-0.050249274600000005,-14.6656097154,0.6963113766,0.013439035192,0.028099800855999998,0.002443460944,-0.23084,-0.22852,2.17616,0.23536,0.08826,0.1471,1.013609671848014,25.99
0,499214,-5,-2041,92,12,25,5,-397,-395,3707,8,4,6,26.0,1.0136688872440167,0.6186669461877369,0.0,0.0,0.0,0,0,0.0,12.102234840393066,12.033656120300291,7,447.0,292.0,0.0,0.0,0,0.0,0.0,0.0,0.0,0.3660127451030389,0.0,0.0,-0.026528960774755,0.4405331015586853,-0.0239420160651206,9.773131370544434,-0.0157853327691555,-0.6909360885620117,-0.0149561017751693,0.7225887179374695,6,0.0,0.0,-0.035892339,-14.6512527798,0.6604190376,0.014660765664,0.0305432618,0.0061086523599999994,-0.23026,-0.2291,2.15006,-0.035892339,-14.6512527798,0.6604190376,0.014660765664,0.0305432618,0.0061086523599999994,-0.23026,-0.2291,2.15006,0.23536,0.11768,0.17652,1.0136688872440167,26.0
0,499317,-2,-2045,84,11,24,4,-432,-386,3705,8,3,6,25.99,1.013560325684678,1.443618804353361,0.0,0.0,0.0,0,0,0.0,11.89289093017578,11.84235954284668,7,447.0,292.0,0.0,0.0,0,0.0,0.0,0.0,0.0,0.4713119276232135,0.0,0.0,0.0836775420012932,0.4022258818149566,-0.0095768067985773,9.792284965515137,-0.0280328728258609,-0.6908570528030396,-0.0268256533890962,0.721949577331543,6,0.0,0.0,-0.0143569356,-14.679966651,0.6029912952,0.013439035192,0.029321531328,0.004886921888,-0.25056,-0.22388,2.1489,-0.0143569356,-14.679966651,0.6029912952,0.013439035192,0.029321531328,0.004886921888,-0.25056,-0.22388,2.1489,0.23536,0.08826,0.17652,1.013560325684678,25.99
0,499422,-5,-2050,99,10,24,5,-388,-364,3737,8,5,6,26.0,1.013718233407353,0.2437124785272761,0.0,0.0,0.0,0,0,0.0,11.495859146118164,11.726859092712402,7,447.0,292.0,0.0,0.0,0,0.0,0.0,0.0,0.0,0.4183204267441232,0.0,0.0,0.0195395484981735,0.4740519225597381,-0.0239420160651206,9.816226959228516,-0.0280744731426239,-0.6908628940582275,-0.0268317889422178,0.7219420671463013,6,0.0,0.0,-0.035892339,-14.715858990000001,0.7106683122,0.012217304719999999,0.029321531328,0.0061086523599999994,-0.22504,-0.21112,2.16746,-0.035892339,-14.715858990000001,0.7106683122,0.012217304719999999,0.029321531328,0.0061086523599999994,-0.22504,-0.21112,2.16746,0.23536,0.1471,0.17652,1.013718233407353,26.0
0,499527,-8,-2042,91,11,22,4,-427,-405,3686,8,5,5,25.99,1.013807056501357,-0.4311683204534284,0.0,0.0,0.0,0,0,0.0,11.813484191894531,12.192468643188477,7,447.0,292.0,0.0,0.0,0,0.0,0.0,0.0,0.0,0.3452757331179423,0.0,0.0,-0.0578999262600534,0.4357447028160095,-0.0383072271943092,9.77791976928711,-0.0280308909714221,-0.690872073173523,-0.0268115978688001,0.7219357490539551,6,0.0,0.0,-0.0574277424,-14.658431247600001,0.6532405698,0.013439035192,0.026878070384,0.004886921888,-0.24766,-0.2349,2.13788,-0.0574277424,-14.658431247600001,0.6532405698,0.013439035192,0.026878070384,0.004886921888,-0.24766,-0.2349,2.13788,0.23536,0.1471,0.1471,1.013807056501357,25.99
0,499632,1,-2046,90,11,24,3,-360,-406,3751,9,5,4,26.0,1.0136688872440167,0.6186669461877369,0.0,0.0,0.0,0,0,0.0,12.076969146728516,11.871234893798828,7,447.0,292.0,0.0,0.0,0,0.0,0.0,0.0,0.0,0.3940847455879827,0.0,0.0,-0.0024189064305444,0.4309563040733337,0.0047884033992886,9.797073364257812,-0.0280050840228796,-0.6908806562423706,-0.0268304981291294,0.7219278216362,6,0.0,0.0,0.0071784678,-14.6871451188,0.646062102,0.013439035192,0.029321531328,0.003665191416,-0.2088,-0.23548,2.17558,0.0071784678,-14.6871451188,0.646062102,0.013439035192,0.029321531328,0.003665191416,-0.2088,-0.23548,2.17558,0.26478,0.1471,0.11768,1.0136688872440167,26.0
0,499737,-3,-2051,90,11,23,3,-391,-405,3763,7,5,6,26.0,1.013619541080681,0.9936361943792336,0.0,0.0,0.0,0,0,0.0,12.087797164916992,12.095015525817873,7,447.0,292.0,0.0,0.0,0,0.0,0.0,0.0,0.0,0.4205099432937509,0.0,0.0,0.0267775625567031,0.4309563040733337,-0.0143652101978659,9.821015357971191,-0.0279960669577121,-0.690888524055481,-0.0268433894962072,0.7219201922416687,6,0.0,0.0,-0.0215354034,-14.7230374578,0.646062102,0.013439035192,0.028099800855999998,0.003665191416,-0.22678,-0.2349,2.18254,-0.0215354034,-14.7230374578,0.646062102,0.013439035192,0.028099800855999998,0.003665191416,-0.22678,-0.2349,2.18254,0.20594,0.1471,0.17652,1.013619541080681,26.0
0,499842,-1,-2046,98,10,24,4,-397,-420,3727,7,4,5,26.0,1.0138267949666913,-0.5811353292420149,0.0,0.0,0.0,0,0,0.0,12.080577850341797,12.040875434875488,7,447.0,292.0,0.0,0.0,0,0.0,0.0,0.0,0.0,0.3614027322748355,0.0,0.0,-0.0404823679238269,0.4692635238170624,-0.0047884033992886,9.797073364257812,-0.0280114188790321,-0.690924346446991,-0.0268884990364313,0.7218835949897766,6,0.0,0.0,-0.0071784678,-14.6871451188,0.7034898444000001,0.012217304719999999,0.029321531328,0.004886921888,-0.23026,-0.2436,2.16166,-0.0071784678,-14.6871451188,0.7034898444000001,0.012217304719999999,0.029321531328,0.004886921888,-0.23026,-0.2436,2.16166,0.20594,0.11768,0.1471,1.0138267949666913,26.0
0,499947,-6,-2044,91,11,23,4,-445,-409,3712,8,5,5,25.99,1.0137675795706884,-0.1312272098876316,0.0,0.0,0.0,0,0,0.0,11.903718948364258,12.080577850341797,7,447.0,292.0,0.0,0.0,0,0.0,0.0,0.0,0.0,0.3764466541548758,0.0,0.0,-0.0241183478152374,0.4357447028160095,-0.0287304203957319,9.78749656677246,-0.0280255693942308,-0.690954327583313,-0.0268887281417846,0.7218543887138367,6,0.0,0.0,-0.0430708068,-14.6727881832,0.6532405698,0.013439035192,0.028099800855999998,0.004886921888,-0.2581,-0.23722000000000001,2.15296,-0.0430708068,-14.6727881832,0.6532405698,0.013439035192,0.028099800855999998,0.004886921888,-0.2581,-0.23722000000000001,2.15296,0.23536,0.1471,0.1471,1.0137675795706884,25.99
0,500052,-3,-2048,91,9,27,3,-407,-380,3709,8,4,4,26.0,1.0137281026400198,0.168723358550676,0.0,0.0,0.0,0,0,0.0,11.192671775817873,12.058921813964844,7,447.0,292.0,0.0,0.0,0,0.0,0.0,0.0,0.0,0.3515866459546046,0.0,0.0,-0.0484329597110229,0.4357447028160095,-0.0143652101978659,9.806650161743164,-0.0280506890267133,-0.6909493803977966,-0.0269351545721292,0.7218563556671143,6,0.0,0.0,-0.0215354034,-14.7015020544,0.6532405698,0.010995574248,0.032986722744,0.003665191416,-0.23606,-0.2204,2.15122,-0.0215354034,-14.7015020544,0.6532405698,0.010995574248,0.032986722744,0.003665191416,-0.23606,-0.2204,2.15122,0.23536,0.11768,0.11768,1.0137281026400198,26.0
0,500157,-5,-2052,91,12,24,5,-424,-359,3706,8,4,5,26.0,1.013718233407353,0.2437124785272761,0.0,0.0,0.0,0,0,0.0,12.022828102111816,12.095015525817873,7,447.0,292.0,0.0,0.0,0,0.0,0.0,0.0,0.0,0.3054779482922601,0.0,0.0,-0.0919461523190648,0.4357447028160095,-0.0239420160651206,9.825803756713867,-0.0280228499323129,-0.6909233927726746,-0.0269215684384107,0.7218828797340393,6,0.0,0.0,-0.035892339,-14.730215925600001,0.6532405698,0.014660765664,0.029321531328,0.0061086523599999994,-0.24592,-0.20822,2.14948,-0.035892339,-14.730215925600001,0.6532405698,0.014660765664,0.029321531328,0.0061086523599999994,-0.24592,-0.20822,2.14948,0.23536,0.11768,0.1471,1.013718233407353,26.0
0,500262,-8,-2045,88,9,24,4,-434,-384,3682,8,4,5,26.0,1.0137774488033555,-0.2062133741841216,0.0,0.0,0.0,0,0,0.0,11.853187561035156,11.510296821594238,7,447.0,292.0,0.0,0.0,0,0.0,0.0,0.0,0.0,0.2592981625449374,0.0,0.0,-0.1303666291696772,0.4213795065879822,-0.0383072271943092,9.792284965515137,-0.0279856342822313,-0.690955400466919,-0.0268947165459394,0.7218546867370605,6,0.0,0.0,-0.0574277424,-14.679966651,0.6317051664000001,0.010995574248,0.029321531328,0.004886921888,-0.25172,-0.22272,2.13556,-0.0574277424,-14.679966651,0.6317051664000001,0.010995574248,0.029321531328,0.004886921888,-0.25172,-0.22272,2.13556,0.23536,0.11768,0.1471,1.0137774488033555,26.0
0,500367,-4,-2050,90,10,25,3,-403,-380,3661,7,4,5,26.0,1.0137281026400198,0.168723358550676,0.0,0.0,0.0,0,0,0.0,11.766562461853027,11.921765327453612,7,447.0,292.0,0.0,0.0,0,0.0,0.0,0.0,0.0,0.278123970666383,0.0,0.0,-0.0996400336024946,0.4309563040733337,-0.0191536135971546,9.816226959228516,-0.0251271892338991,-0.6916452646255493,-0.0240962598472833,0.7213978171348572,6,0.0,0.0,-0.0287138712,-14.715858990000001,0.646062102,0.012217304719999999,0.0305432618,0.003665191416,-0.23374,-0.2204,2.12338,-0.0287138712,-14.715858990000001,0.646062102,0.012217304719999999,0.0305432618,0.003665191416,-0.23374,-0.2204,2.12338,0.20594,0.11768,0.1471,1.0137281026400198,26.0
0,500472,-3,-2048,90,12,23,3,-422,-363,3712,7,5,5,26.0,1.0137281026400198,0.168723358550676,0.0,0.0,0.0,0,0,0.0,11.89650058746338,11.759344100952148,7,447.0,292.0,0.0,0.0,0,0.0,0.0,0.0,0.0,0.3268721346541551,0.0,0.0,-0.0392835606329641,0.4309563040733337,-0.0143652101978659,9.806650161743164,-0.0251701213419437,-0.6916109323501587,-0.024098727852106,0.7214292287826538,6,0.0,0.0,-0.0215354034,-14.7015020544,0.646062102,0.014660765664,0.028099800855999998,0.003665191416,-0.24476,-0.21054,2.15296,-0.0215354034,-14.7015020544,0.646062102,0.014660765664,0.028099800855999998,0.003665191416,-0.24476,-0.21054,2.15296,0.20594,0.1471,0.1471,1.0137281026400198,26.0
0,500577,-7,-2047,88,13,24,4,-408,-380,3734,8,4,5,26.0,1.0137281026400198,0.168723358550676,0.0,0.0,0.0,0,0,0.0,11.770172119140623,12.127500534057615,7,447.0,292.0,0.0,0.0,0,0.0,0.0,0.0,0.0,0.4039276737793588,0.0,0.0,0.0430231290777889,0.4213795065879822,-0.0335188247263431,9.801861763000488,-0.0251803696155548,-0.6916123032569885,-0.0241007059812545,0.7214274406433105,6,0.0,0.0,-0.050249274600000005,-14.694323586600001,0.6317051664000001,0.015882496136,0.029321531328,0.004886921888,-0.23664,-0.2204,2.16572,-0.050249274600000005,-14.694323586600001,0.6317051664000001,0.015882496136,0.029321531328,0.004886921888,-0.23664,-0.2204,2.16572,0.23536,0.11768,0.1471,1.0137281026400198,26.0
0,500682,-12,-2049,89,9,23,4,-403,-374,3727,7,5,4,26.0,1.0136688872440167,0.6186669461877369,0.0,0.0,0.0,0,0,0.0,11.50307846069336,11.914546966552734,7,447.0,292.0,0.0,0.0,0,0.0,0.0,0.0,0.0,0.4070782763030277,0.0,0.0,0.0400996177238023,0.4261679053306579,-0.0574608407914638,9.81143856048584,-0.0252043530344963,-0.6916651725769043,-0.0241344738751649,0.7213748097419739,6,0.0,0.0,-0.0861416136,-14.7086805222,0.6388836342,0.010995574248,0.028099800855999998,0.004886921888,-0.23374,-0.21692,2.16166,-0.0861416136,-14.7086805222,0.6388836342,0.010995574248,0.028099800855999998,0.004886921888,-0.23374,-0.21692,2.16166,0.20594,0.1471,0.11768,1.0136688872440167,26.0
0,500787,-8,-2048,92,11,25,3,-413,-384,3770,8,5,5,26.0,1.013678756476684,0.5436748702523556,0.0,0.0,0.0,0,0,0.0,11.889281272888184,11.669109344482422,7,447.0,292.0,0.0,0.0,0,0.0,0.0,0.0,0.0,0.4531773234989864,0.0,0.0,0.0800961519341792,0.4405331015586853,-0.0383072271943092,9.806650161743164,-0.0252430532127618,-0.6916483044624329,-0.0241759400814771,0.7213882803916931,6,0.0,0.0,-0.0574277424,-14.7015020544,0.6604190376,0.013439035192,0.0305432618,0.003665191416,-0.23954,-0.22272,2.1866,-0.0574277424,-14.7015020544,0.6604190376,0.013439035192,0.0305432618,0.003665191416,-0.23954,-0.22272,2.1866,0.23536,0.1471,0.1471,1.013678756476684,26.0
0,500892,-5,-2050,87,9,24,5,-410,-383,3742,7,4,7,26.0,1.0136688872440167,0.6186669461877369,0.0,0.0,0.0,0,0,0.0,12.076969146728516,12.015609741210938,7,447.0,292.0,0.0,0.0,0,0.0,0.0,0.0,0.0,0.4185955503496393,0.0,0.0,0.036970525144932,0.4165911078453064,-0.0239420160651206,9.816226959228516,-0.0252473130822181,-0.691649854183197,-0.0241611246019601,0.7213870882987976,6,0.0,0.0,-0.035892339,-14.715858990000001,0.6245266986,0.010995574248,0.029321531328,0.0061086523599999994,-0.2378,-0.22214,2.17036,-0.035892339,-14.715858990000001,0.6245266986,0.010995574248,0.029321531328,0.0061086523599999994,-0.2378,-0.22214,2.17036,0.20594,0.11768,0.20594,1.0136688872440167,26.0
0,500997,-6,-2044,84,10,24,4,-437,-386,3786,9,4,6,26.0,1.0135701949173452,1.3686202244097223,0.0,0.0,0.0,0,0,0.0,11.319000244140623,11.853187561035156,7,447.0,292.0,0.0,0.0,0,0.0,0.0,0.0,0.0,0.4804240665785202,0.0,0.0,0.096577865221544,0.4022258818149566,-0.0287304203957319,9.78749656677246,-0.0252752713859081,-0.6916564702987671,-0.0241907443851232,0.7213788628578186,6,0.0,0.0,-0.0430708068,-14.6727881832,0.6029912952,0.012217304719999999,0.029321531328,0.004886921888,-0.25346,-0.22388,2.19588,-0.0430708068,-14.6727881832,0.6029912952,0.012217304719999999,0.029321531328,0.004886921888,-0.25346,-0.22388,2.19588,0.26478,0.11768,0.17652,1.0135701949173452,26.0
0,501102,-5,-2042,87,10,25,3,-391,-406,3703,7,5,5,26.0,1.013678756476684,0.5436748702523556,0.0,0.0,0.0,0,0,0.0,11.470593452453612,11.795437812805176,7,447.0,292.0,0.0,0.0,0,0.0,0.0,0.0,0.0,0.425384077167958,0.0,0.0,0.0295011569518626,0.4165911078453064,-0.0239420160651206,9.77791976928711,-0.0252797622233629,-0.6916579604148865,-0.0241872053593397,0.7213773131370544,6,0.0,0.0,-0.035892339,-14.658431247600001,0.6245266986,0.012217304719999999,0.0305432618,0.003665191416,-0.22678,-0.23548,2.14774,-0.035892339,-14.658431247600001,0.6245266986,0.012217304719999999,0.0305432618,0.003665191416,-0.22678,-0.23548,2.14774,0.20594,0.1471,0.1471,1.013678756476684,26.0
0,501207,-1,-2045,87,11,24,5,-409,-393,3734,9,5,6,26.0,1.0137379718726869,0.0937348297253798,0.0,0.0,0.0,0,0,0.0,12.058921813964844,11.799046516418455,7,447.0,292.0,0.0,0.0,0,0.0,0.0,0.0,0.0,0.4367848281718003,0.0,0.0,0.0360558818741886,0.4165911078453064,-0.0047884033992886,9.792284965515137,-0.0252964477986097,-0.69166499376297,-0.024217065423727,0.7213690280914307,6,0.0,0.0,-0.0071784678,-14.679966651,0.6245266986,0.013439035192,0.029321531328,0.0061086523599999994,-0.23722000000000001,-0.22794,2.16572,-0.0071784678,-14.679966651,0.6245266986,0.013439035192,0.029321531328,0.0061086523599999994,-0.23722000000000001,-0.22794,2.16572,0.26478,0.1471,0.17652,1.0137379718726869,26.0
0,501312,-11,-2044,91,12,26,5,-393,-355,3737,7,2,6,26.0,1.0137281026400198,0.168723358550676,0.0,0.0,0.0,0,0,0.0,11.412843704223633,11.947031021118164,7,447.0,292.0,0.0,0.0,0,0.0,0.0,0.0,0.0,0.455353020177268,0.0,0.0,0.0484957199324877,0.4357447028160095,-0.0526724383234977,9.78749656677246,-0.025363178923726,-0.6916528940200806,-0.0242408160120248,0.721377432346344,6,0.0,0.0,-0.07896314580000001,-14.6727881832,0.6532405698,0.014660765664,0.031764992272,0.0061086523599999994,-0.22794,-0.2059,2.16746,-0.07896314580000001,-14.6727881832,0.6532405698,0.014660765664,0.031764992272,0.0061086523599999994,-0.22794,-0.2059,2.16746,0.20594,0.05884,0.17652,1.0137281026400198,26.0
0,501417,-7,-2050,91,9,21,5,-453,-378,3737,8,3,4,26.01,1.013747841105354,0.0187468920513877,0.0,0.0,0.0,0,0,0.0,12.04448413848877,11.882062911987305,7,447.0,292.0,0.0,0.0,0,0.0,0.0,0.0,0.0,0.4468864831300446,0.0,0.0,0.0321322990929313,0.4357447028160095,-0.0335188247263431,9.816226959228516,-0.0434626974165439,-0.6898585557937622,-0.0415072627365589,0.7214453220367432,6,0.0,0.0,-0.050249274600000005,-14.715858990000001,0.6532405698,0.010995574248,0.025656339912,0.0061086523599999994,-0.26274000000000003,-0.21924,2.16746,-0.050249274600000005,-14.715858990000001,0.6532405698,0.010995574248,0.025656339912,0.0061086523599999994,-0.26274000000000003,-0.21924,2.16746,0.23536,0.08826,0.11768,1.013747841105354,26.01
0,501522,-10,-2046,84,8,27,4,-420,-340,3667,7,4,5,26.0,1.0137281026400198,0.168723358550676,0.0,0.0,0.0,0,0,0.0,12.06253147125244,11.7846097946167,7,447.0,292.0,0.0,0.0,0,0.0,0.0,0.0,0.0,0.3866098074123821,0.0,0.0,-0.0349554282282546,0.4022258818149566,-0.0478840321302413,9.797073364257812,-0.0434808284044265,-0.6898865103721619,-0.0415620729327201,0.72141432762146,6,0.0,0.0,-0.071784678,-14.6871451188,0.6029912952,0.009773843776,0.032986722744,0.004886921888,-0.2436,-0.19720000000000001,2.12686,-0.071784678,-14.6871451188,0.6029912952,0.009773843776,0.032986722744,0.004886921888,-0.2436,-0.19720000000000001,2.12686,0.20594,0.11768,0.1471,1.0137281026400198,26.0
0,501627,-4,-2041,90,11,24,3,-404,-365,3700,8,5,5,26.0,1.013678756476684,0.5436748702523556,0.0,0.0,0.0,0,0,0.0,12.051703453063965,12.06614112854004,7,447.0,292.0,0.0,0.0,0,0.0,0.0,0.0,0.0,0.5231449732004059,0.0,0.0,0.108166550203846,0.4309563040733337,-0.0191536135971546,9.773131370544434,-0.0434953793883323,-0.6898740530014038,-0.0415629968047142,0.7214253544807434,6,0.0,0.0,-0.0287138712,-14.6512527798,0.646062102,0.013439035192,0.029321531328,0.003665191416,-0.23432,-0.2117,2.146,-0.0287138712,-14.6512527798,0.646062102,0.013439035192,0.029321531328,0.003665191416,-0.23432,-0.2117,2.146,0.23536,0.1471,0.1471,1.013678756476684,26.0
0,501732,-4,-2047,88,13,24,3,-439,-386,3672,8,3,6,26.0,1.0137281026400198,0.168723358550676,0.0,0.0,0.0,0,0,0.0,11.550000190734863,12.095015525817873,7,447.0,292.0,0.0,0.0,0,0.0,0.0,0.0,0.0,0.5093009291787464,0.0,0.0,0.0797138519120735,0.4213795065879822,-0.0191536135971546,9.801861763000488,-0.043504849076271,-0.6898561716079712,-0.0416038110852241,0.7214394807815552,6,0.0,0.0,-0.0287138712,-14.694323586600001,0.6317051664000001,0.015882496136,0.029321531328,0.003665191416,-0.25462,-0.22388,2.12976,-0.0287138712,-14.694323586600001,0.6317051664000001,0.015882496136,0.029321531328,0.003665191416,-0.25462,-0.22388,2.12976,0.23536,0.08826,0.17652,1.0137281026400198,26.0
0,501837,-4,-2053,89,11,25,4,-429,-391,3676,8,5,5,26.0,1.0135701949173452,1.3686202244097223,0.0,0.0,0.0,0,0,0.0,11.947031021118164,12.01200008392334,7,447.0,292.0,0.0,0.0,0,0.0,0.0,0.0,0.0,0.553068550541671,0.0,0.0,0.1150584540305734,0.4261679053306579,-0.0191536135971546,9.830592155456545,-0.0434994585812091,-0.689868152141571,-0.0416601710021495,0.7214251160621643,6,0.0,0.0,-0.0287138712,-14.7373943934,0.6388836342,0.013439035192,0.0305432618,0.004886921888,-0.24882,-0.22678,2.13208,-0.0287138712,-14.7373943934,0.6388836342,0.013439035192,0.0305432618,0.004886921888,-0.24882,-0.22678,2.13208,0.23536,0.1471,0.1471,1.0135701949173452,26.0
0,501942,-6,-2042,87,11,23,5,-445,-385,3724,7,5,6,26.0,1.0136688872440167,0.6186669461877369,0.0,0.0,0.0,0,0,0.0,11.80987548828125,11.445327758789062,7,447.0,292.0,0.0,0.0,0,0.0,0.0,0.0,0.0,0.5367769724775696,0.0,0.0,0.0855357810526624,0.4165911078453064,-0.0287304203957319,9.77791976928711,-0.0435490496456623,-0.6898709535598755,-0.0416705496609211,0.7214188575744629,6,0.0,0.0,-0.0430708068,-14.658431247600001,0.6245266986,0.013439035192,0.028099800855999998,0.0061086523599999994,-0.2581,-0.2233,2.15992,-0.0430708068,-14.658431247600001,0.6245266986,0.013439035192,0.028099800855999998,0.0061086523599999994,-0.2581,-0.2233,2.15992,0.20594,0.1471,0.17652,1.0136688872440167,26.0
0,502047,-4,-2045,95,12,25,4,-385,-398,3712,8,4,6,26.0,1.0135701949173452,1.3686202244097223,0.0,0.0,0.0,0,0,0.0,11.990344047546388,11.777390480041504,7,447.0,292.0,0.0,0.0,0,0.0,0.0,0.0,0.0,0.5822640706265517,0.0,0.0,0.1246377824149906,0.454898327589035,-0.0191536135971546,9.792284965515137,-0.0435817949473857,-0.6898691058158875,-0.0416985601186752,0.7214170098304749,6,0.0,0.0,-0.0287138712,-14.679966651,0.681954441,0.014660765664,0.0305432618,0.004886921888,-0.2233,-0.23084,2.15296,-0.0287138712,-14.679966651,0.681954441,0.014660765664,0.0305432618,0.004886921888,-0.2233,-0.23084,2.15296,0.23536,0.11768,0.17652,1.0135701949173452,26.0
0,502152,-5,-2047,89,11,23,4,-360,-372,3777,7,4,5,26.0,1.0137281026400198,0.168723358550676,0.0,0.0,0.0,0,0,0.0,12.01200008392334,11.817093849182127,7,447.0,292.0,0.0,0.0,0,0.0,0.0,0.0,0.0,0.4592289517595235,0.0,0.0,-0.0139317226767725,0.4261679053306579,-0.0239420160651206,9.801861763000488,-0.0436072796583175,-0.6898503303527832,-0.0416995771229267,0.7214334011077881,6,0.0,0.0,-0.035892339,-14.694323586600001,0.6388836342,0.013439035192,0.028099800855999998,0.004886921888,-0.2088,-0.21576,2.19066,-0.035892339,-14.694323586600001,0.6388836342,0.013439035192,0.028099800855999998,0.004886921888,-0.2088,-0.21576,2.19066,0.20594,0.11768,0.1471,1.0137281026400198,26.0
0,502257,-3,-2044,93,11,26,6,-396,-398,3809,7,5,5,26.0,1.0137281026400198,0.168723358550676,0.0,0.0,0.0,0,0,0.0,11.629405975341797,11.770172119140623,7,447.0,292.0,0.0,0.0,0,0.0,0.0,0.0,0.0,0.4286021431962065,0.0,0.0,-0.0474764303749987,0.4453215301036834,-0.0143652101978659,9.78749656677246,-0.0436912588775157,-0.6898569464683533,-0.041720125824213,0.7214208841323853,6,0.0,0.0,-0.0215354034,-14.6727881832,0.6675975054000001,0.013439035192,0.031764992272,0.007330382832,-0.22968,-0.23084,2.20922,-0.0215354034,-14.6727881832,0.6675975054000001,0.013439035192,0.031764992272,0.007330382832,-0.22968,-0.23084,2.20922,0.20594,0.1471,0.1471,1.0137281026400198,26.0
0,502362,-8,-2052,86,11,24,3,-390,-359,3741,9,5,4,26.0,1.013678756476684,0.5436748702523556,0.0,0.0,0.0,0,0,0.0,11.86762523651123,12.06974983215332,7,447.0,292.0,0.0,0.0,0,0.0,0.0,0.0,0.0,0.3904299963374378,0.0,0.0,-0.0819479670545102,0.4118026793003082,-0.0383072271943092,9.825803756713867,-0.016057014465332,-0.6912552118301392,-0.0153408087790012,0.7222694754600525,6,0.0,0.0,-0.0574277424,-14.730215925600001,0.6173482308,0.013439035192,0.029321531328,0.003665191416,-0.2262,-0.20822,2.16978,-0.0574277424,-14.730215925600001,0.6173482308,0.013439035192,0.029321531328,0.003665191416,-0.2262,-0.20822,2.16978,0.26478,0.1471,0.11768,1.013678756476684,26.0
0,502467,-1,-2043,89,10,24,5,-369,-404,3712,9,5,5,26.0,1.0137379718726869,0.0937348297253798,0.0,0.0,0.0,0,0,0.0,12.008390426635742,11.76295280456543,7,447.0,292.0,0.0,0.0,0,0.0,0.0,0.0,0.0,0.3696493939633191,0.0,0.0,-0.0950259575757455,0.4261679053306579,-0.0047884033992886,9.782708168029783,-0.0161221828311681,-0.6912440061569214,-0.0153627302497625,0.7222782373428345,6,0.0,0.0,-0.0071784678,-14.6656097154,0.6388836342,0.012217304719999999,0.029321531328,0.0061086523599999994,-0.21402,-0.23432,2.15296,-0.0071784678,-14.6656097154,0.6388836342,0.012217304719999999,0.029321531328,0.0061086523599999994,-0.21402,-0.23432,2.15296,0.26478,0.1471,0.1471,1.0137379718726869,26.0
0,502572,-5,-2053,92,11,24,3,-409,-381,3693,9,3,5,26.01,1.013747841105354,0.0187468920513877,0.0,0.0,0.0,0,0,0.0,11.993953704833984,11.84235954284668,7,447.0,292.0,0.0,0.0,0,0.0,0.0,0.0,0.0,0.3261261592412907,0.0,0.0,-0.1297218543264335,0.4405331015586853,-0.0239420160651206,9.830592155456545,-0.0161873437464237,-0.6912558674812317,-0.0153615763410925,0.7222654223442078,6,0.0,0.0,-0.035892339,-14.7373943934,0.6604190376,0.013439035192,0.029321531328,0.003665191416,-0.23722000000000001,-0.22098,2.14194,-0.035892339,-14.7373943934,0.6604190376,0.013439035192,0.029321531328,0.003665191416,-0.23722000000000001,-0.22098,2.14194,0.26478,0.08826,0.1471,1.013747841105354,26.01
0,502677,-9,-2045,94,10,23,5,-395,-410,3725,8,4,6,26.0,1.0136886257093511,0.468683385531204,0.0,0.0,0.0,0,0,0.0,12.015609741210938,11.950640678405762,7,447.0,292.0,0.0,0.0,0,0.0,0.0,0.0,0.0,0.2958459039648972,0.0,0.0,-0.1473221745305617,0.4501099288463592,-0.0430956296622753,9.792284965515137,-0.0162476114928722,-0.6912620663642883,-0.0154001647606492,0.7222573757171631,6,0.0,0.0,-0.0646062102,-14.679966651,0.6747759732,0.012217304719999999,0.028099800855999998,0.0061086523599999994,-0.2291,-0.2378,2.1605,-0.0646062102,-14.679966651,0.6747759732,0.012217304719999999,0.028099800855999998,0.0061086523599999994,-0.2291,-0.2378,2.1605,0.23536,0.11768,0.17652,1.0136886257093511,26.0
