	packetType	timestamp_ms	imu1_accel_x	imu1_accel_y	imu1_accel_z	imu1_gyro_x	imu1_gyro_y	imu1_gyro_z	imu1_mag_x	imu1_mag_y	imu1_mag_z	imu2_accel_x	imu2_accel_y	imu2_accel_z	imu2_gyro_x	imu2_gyro_y	imu2_gyro_z	imu2_mag_x	imu2_mag_y	imu2_mag_z	high_g_accel_x	high_g_accel_y	high_g_accel_z	baro1_temp	baro1_pres	baro2_temp	baro2_pres	gps_lat	gps_long	gps_alt	gps_fix_quality	gps_sats_tracked	gps_hdop	battery_voltage	pyro_cont	trigger_status	heading	vtg	pos_x	pos_y	pos_z	vel_x	vel_y	vel_z	acc_x	acc_y	acc_z	q_x	q_y	q_z	q_w	state	gps_lat_mod	gps_long_mod	imu1_accel_x_real	imu1_accel_y_real	imu1_accel_z_real	imu2_accel_x_real	imu2_accel_y_real	imu2_accel_z_real	imu1_gyro_x_real	imu1_gyro_y_real	imu1_gyro_z_real	imu2_gyro_x_real	imu2_gyro_y_real	imu2_gyro_z_real	imu1_mag_x_real	imu1_mag_y_real	imu1_mag_z_real	imu2_mag_x_real	imu2_mag_y_real	imu2_mag_z_real	imu_accel_x_avg	imu_accel_y_avg	imu_accel_z_avg	imu_gyro_x_avg	imu_gyro_y_avg	imu_gyro_z_avg	imu_mag_x_avg	imu_mag_y_avg	imu_mag_z_avg	high_g_accel_x_real	high_g_accel_y_real	high_g_accel_z_real	baro_pres_avg	baro_temp_avg
21698	0	2289456	5	-1376	-57	31	-4	53	3	-1378	-9	48	45	39	-717	469	-3818	-759	2033	-2087	496	176	-112	60.89	0.92740192450037	67.88	0.9265038243276584	3520.857666015625	-11748.5556640625	634.0	2	12	0.6000000238418579	23.234695434570312	9	0	0.0	0.0	0.0	0.0	0.1054355595963255	0.0	0.0	0.2559544477126704	-0.2368894373999999	-0.0287138711999999	9.8847501606	0.713065505027771	-0.0328350886702537	0.6995500922203064	0.0330035015940666	6	35.34762776692708	-117.80926106770833	0.035892339	-9.8775716928	-0.4091726646	0.3445664544	0.323031051	0.2799602442	0.037873644632	-0.004886921888	0.064751715016	-0.875980748424	0.5729915913679999	-4.664566942096	0.00174	-0.79924	-0.00522	-0.44022	1.17914	-1.21046	0.1902293967	-4.7772703209000005	-0.06460621020000001	-0.41905355189599997	0.28405233473999997	-2.29990761354	-0.21924	0.18995000000000006	-0.60784	14.59232	5.17792	-3.29504	0.9269528744140142	64.38499999999999
21699	0	2289562	23	-1373	-65	24	-31	49	9	-1372	-20	41	19	39	-717	469	-3818	-759	2033	-2087	496	144	-208	60.89	0.9272933629410314	67.88	0.9267110782136688	3520.857666015625	-11748.5556640625	634.0	2	12	0.6000000238418579	23.241851806640625	9	0	0.0	0.0	0.0	0.0	0.1133489407566103	0.0	0.0	0.243546800067531	-0.3050848814999999	-0.1148554847999999	9.8524470555	0.7130706906318665	-0.0325608141720294	0.6995805501937866	0.0325141623616218	6	35.34762776692708	-117.80926106770833	0.1651047594	-9.8560362894	-0.466600407	0.2943171798	0.1363908882	0.2799602442	0.029321531328	-0.037873644632	0.059864793128	-0.875980748424	0.5729915913679999	-4.664566942096	0.00522	-0.79576	-0.0116	-0.44022	1.17914	-1.21046	0.22971096959999998	-4.8598227006000005	-0.0933200814	-0.423329608548	0.26755897336799994	-2.302351074484	-0.2175	0.19169000000000003	-0.6110300000000001	14.59232	4.23648	-6.11936	0.92700222057735	64.38499999999999
21700	0	2289667	8	-1379	-20	25	-6	46	2	-1376	19	46	48	36	-727	482	-3860	-738	2028	-2067	480	224	-64	60.9	0.9273032321736984	67.88	0.9263853935356526	3520.857666015625	-11748.5556640625	634.0	2	12	0.6000000238418579	23.23060607910156	9	0	0.0	0.0	0.0	0.0	0.1501307919747734	0.0	0.0	0.2643750152039306	-0.0035892339	-0.0358923389999999	9.8883393945	0.7129179239273071	-0.0323593989014625	0.6997476816177368	0.0324663929641246	6	35.34762776692708	-117.80926106770833	0.0574277424	-9.8991070962	-0.143569356	0.3302095188	0.3445664544	0.2584248408	0.0305432618	-0.007330382832	0.056199601711999995	-0.8881980531439999	0.5888740875039999	-4.71587962192	0.00116	-0.79808	0.01102	-0.42804	1.17624	-1.19886	0.19381863059999999	-4.7772703209	0.057427742399999995	-0.42882739567199996	0.29077185233599995	-2.329840010104	-0.21344	0.18907999999999997	-0.59392	14.1216	6.59008	-1.88288	0.9268443128546755	64.39
21701	0	2289773	3	-1379	-74	25	-5	52	3	-1386	-23	43	46	42	-727	482	-3860	-738	2028	-2067	512	160	-128	60.9	0.9273624475697014	67.87	0.9265235627929927	3520.857666015625	-11748.5556640625	634.0	2	12	0.6000000238418579	23.2193603515625	9	0	0.0	0.0	0.0	0.0	0.2452153410913342	0.0	0.0	0.3418764475622652	-0.3481556883	-0.0215354034	9.9242317335	0.7129748463630676	-0.0329014994204044	0.699639081954956	0.0330096893012523	6	35.34762776692708	-117.80926106770833	0.0215354034	-9.8991070962	-0.5312066172000001	0.3086741154	0.3302095188	0.3014956476	0.0305432618	-0.0061086523599999994	0.063529984544	-0.8881980531439999	0.5888740875039999	-4.71587962192	0.00174	-0.80388	-0.01334	-0.42804	1.17624	-1.19886	0.1651047594	-4.7844487887	-0.11485548480000002	-0.42882739567199996	0.29138271757199996	-2.326174818688	-0.21314999999999998	0.18617999999999996	-0.6061	15.06304	4.7072	-3.76576	0.9269430051813471	64.385
21702	0	2289878	27	-1373	-42	32	-25	51	20	-1372	-1	50	22	40	-709	445	-3837	-741	2049	-2094	432	144	-144	60.9	0.9273723168023686	67.88	0.9265531704909944	3520.857666015625	-11748.5556640625	634.0	2	12	0.6000000238418579	23.21424865722656	9	0	0.0	0.0	0.0	0.0	0.2593290360286511	0.0	0.0	0.3310591229054382	-0.1543370576999999	-0.1686939932999999	9.8524470555	-0.7191514372825623	-0.021643878892064	-0.694150447845459	0.0225393585860729	6	35.34762776692708	-117.80926106770833	0.1938186306	-9.8560362894	-0.3014956476	0.35892339	0.15792629160000002	0.287138712	0.039095375104	-0.0305432618	0.062308254072	-0.866206904648	0.54367006004	-4.687779821064	0.0116	-0.79576	-0.00058	-0.42978	1.18842	-1.21452	0.2763710103	-4.8490549989	-0.007178467800000005	-0.413555764772	0.25656339912	-2.312735783496	-0.20909	0.19633	-0.60755	12.70944	4.23648	-4.23648	0.9269627436466815	64.39
21703	0	2289984	-3	-1382	-27	28	-4	50	-16	-1378	14	43	46	37	-709	445	-3837	-741	2049	-2094	480	160	-112	60.9	0.9274710091290402	67.87	0.92653343202566	3520.857666015625	-11748.5556640625	634.0999755859375	2	12	0.6000000238418579	23.23060607910156	9	0	0.0	0.0	0.0	0.0	0.2591124288416774	0.0	0.0	0.3025851721739712	-0.0466600406999999	0.0681954441	9.906285564	-0.7190166115760803	-0.0217621363699436	-0.6942883133888245	0.0224805567413568	6	35.34762776692708	-117.80926106770833	-0.0215354034	-9.9206424996	-0.1938186306	0.3086741154	0.3302095188	0.26560330860000003	0.034208453215999995	-0.004886921888	0.0610865236	-0.866206904648	0.54367006004	-4.687779821064	-0.00928	-0.79924	0.00812	-0.42978	1.18842	-1.21452	0.143569356	-4.7952164904	0.03589233900000001	-0.415999225716	0.269391569076	-2.313346648732	-0.21953	0.19459000000000004	-0.6032000000000001	14.1216	4.7072	-3.29504	0.92700222057735	64.385
21704	0	2290089	2	-1378	-42	34	-22	57	-2	-1385	3	51	24	42	-727	468	-3856	-760	2030	-2063	432	176	-80	60.9	0.9274710091290402	67.87	0.92653343202566	3520.857666015625	-11748.5556640625	634.0999755859375	2	12	0.6000000238418579	23.23060607910156	9	0	0.0	0.0	0.0	0.0	0.1852769361606153	0.0	0.0	0.2009269452442146	-0.1399801221	0.0	9.917053265699998	-0.719109058380127	-0.0215346850454807	-0.6942022442817688	0.0223990809172391	6	35.34762776692708	-117.80926106770833	0.0143569356	-9.8919286284	-0.3014956476	0.36610185780000004	0.1722832272	0.3014956476	0.041538836047999995	-0.026878070384	0.06963863690399999	-0.8881980531439999	0.571769860896	-4.7109927000319995	-0.00116	-0.8033	0.00174	-0.4408	1.1774	-1.19654	0.19022939670000003	-4.8598227006000005	0.0	-0.42332960854799995	0.272445895256	-2.3206770315639997	-0.22098	0.18705	-0.5973999999999999	12.70944	5.17792	-2.3536	0.92700222057735	64.385
21705	0	2290194	23	-1375	-60	28	-6	50	10	-1385	-15	46	49	40	-727	468	-3856	-760	2030	-2063	544	240	-64	60.9	0.9272440167776956	67.88	0.9264840858623242	3520.857666015625	-11748.5556640625	634.0999755859375	2	12	0.6000000238418579	23.241851806640625	9	0	0.0	0.0	0.0	0.0	0.231434791175271	0.0	0.0	0.2324622454827205	-0.2691925424999999	-0.1184447186999999	9.906285564	-0.719226598739624	-0.0212195497006177	-0.6940968036651611	0.0221922285854816	6	35.34762776692708	-117.80926106770833	0.1651047594	-9.870393225	-0.430708068	0.3302095188	0.35174492220000003	0.287138712	0.034208453215999995	-0.007330382832	0.0610865236	-0.8881980531439999	0.571769860896	-4.7109927000319995	0.0058	-0.8033	-0.0087	-0.4408	1.1774	-1.19654	0.24765713909999998	-4.7593241514	-0.07178467799999999	-0.42699479996399997	0.282219739032	-2.3249530882159997	-0.21750000000000003	0.18705	-0.6026199999999999	16.00448	7.0608	-1.88288	0.9268640513200099	64.39
21706	0	2290300	4	-1376	-53	20	-26	49	-9	-1376	4	43	22	38	-721	489	-3866	-743	2055	-2088	512	192	-144	60.89	0.9271157167530224	67.87	0.9263656550703184	3520.857666015625	-11748.5556640625	634.0999755859375	2	12	0.6000000238418579	23.234695434570312	9	0	0.0	0.0	0.0	0.0	0.1688798648683718	0.0	0.0	0.154493766401555	-0.1758724611	0.0179461695	9.877571692799998	-0.7192228436470032	-0.0212225969880819	-0.6941033601760864	0.0221046395599842	6	35.34762776692708	-117.80926106770833	0.0287138712	-9.8775716928	-0.3804587934	0.3086741154	0.15792629160000002	0.2727817764	0.024434609439999998	-0.031764992272	0.059864793128	-0.880867670312	0.597426200808	-4.723210004752	-0.00522	-0.79808	0.00232	-0.43094	1.1919	-1.2110400000000001	0.1686939933	-4.8598227006	-0.05383850849999999	-0.428216530436	0.282830604268	-2.331672605812	-0.21808	0.19690999999999997	-0.60436	15.06304	5.64864	-4.23648	0.9267406859116705	64.38
21707	0	2290405	35	-1375	-11	29	-11	52	24	-1375	26	46	41	42	-721	489	-3866	-743	2055	-2088	480	160	-64	60.88	0.9272736244756972	67.86	0.926345916604984	3520.857666015625	-11748.5556640625	634.0999755859375	2	12	0.6000000238418579	23.220382690429688	9	0	0.0	0.0	0.0	0.0	0.1492959331097424	0.0	0.0	0.1264694505950288	0.0538385084999999	-0.2117648000999999	9.870393225	-0.7192068099975586	-0.0213005896657705	-0.6941101551055908	0.0223393011838197	6	35.34762776692708	-117.80926106770833	0.251246373	-9.870393225	-0.07896314580000001	0.3302095188	0.2943171798	0.3014956476	0.035430183688	-0.013439035192	0.063529984544	-0.880867670312	0.597426200808	-4.723210004752	0.01392	-0.7975	0.01508	-0.43094	1.1919	-1.2110400000000001	0.2907279459	-4.7880380226	0.1112662509	-0.422718743312	0.29199358280800003	-2.3298400101039998	-0.20851	0.1972	-0.5979800000000001	14.1216	4.7072	-1.88288	0.9268097705403406	64.37
21708	0	2290511	10	-1370	-42	33	-3	47	4	-1376	4	47	47	36	-708	467	-3840	-765	2053	-2100	432	144	-144	60.9	0.9274315321983716	67.86	0.9263360473723168	3520.857666015625	-11748.5556640625	634.0999755859375	2	12	0.6000000238418579	23.225494384765625	9	0	0.0	0.0	0.0	0.0	0.0796326169613069	0.0	0.0	0.0497998867939848	-0.1363908881999999	-0.0502492745999999	9.8560362894	-0.7192827463150024	-0.0210016313940286	-0.6940553188323975	0.0218749679625034	6	35.34762776692708	-117.80926106770833	0.071784678	-9.834500886	-0.3014956476	0.3373879866	0.3373879866	0.2584248408	0.040317105576	-0.003665191416	0.057421332183999994	-0.864985174176	0.570548130424	-4.69144501248	0.00232	-0.79808	0.00232	-0.4437	1.19074	-1.218	0.2045863323	-4.748556449700001	-0.021535403400000014	-0.4123340343	0.283441469504	-2.317011840148	-0.22069	0.19632999999999995	-0.6078399999999999	12.70944	4.23648	-4.23648	0.9268837897853441	64.38
21709	0	2290616	-12	-1377	-49	28	-24	55	-22	-1378	5	46	27	42	-708	467	-3840	-765	2053	-2100	432	176	-112	60.9	0.9273229706390328	67.86	0.9266222551196645	3520.857666015625	-11748.5556640625	634.2000122070312	2	12	0.6000000238418579	23.24798583984375	9	0	0.0	0.0	0.0	0.0	0.1602482215660804	0.0	0.0	0.1335999130469253	-0.1579262916	0.1220339526	9.8883393945	-0.7192636728286743	-0.0208832677453756	-0.6940852999687195	0.0216627158224582	6	35.34762776692708	-117.80926106770833	-0.0861416136	-9.884750160600001	-0.35174492220000003	0.3302095188	0.1938186306	0.3014956476	0.034208453215999995	-0.029321531328	0.06719517595999999	-0.864985174176	0.570548130424	-4.69144501248	-0.01276	-0.79924	0.0029	-0.4437	1.19074	-1.218	0.1220339526	-4.845465765000001	-0.025124637300000002	-0.41538836048	0.270613299548	-2.31212491826	-0.22823	0.19574999999999998	-0.60755	12.70944	5.17792	-3.29504	0.9269726128793486	64.38
21710	0	2290722	27	-1379	-35	25	-16	47	14	-1372	5	46	30	38	-723	480	-3836	-733	2044	-2101	560	112	-96	60.87	0.9272538860103628	67.87	0.926415001233654	3520.857666015625	-11748.5556640625	634.2000122070312	2	12	0.6000000238418579	23.2030029296875	9	0	0.0	0.0	0.0	0.0	0.1283630332797486	0.0	0.0	0.0965321829491391	-0.1076770169999999	-0.1471585899	9.8739824589	-0.7192586064338684	-0.0211204104125499	-0.6940702199935913	0.0220810826867818	6	35.34762776692708	-117.80926106770833	0.1938186306	-9.8991070962	-0.251246373	0.3302095188	0.215354034	0.2727817764	0.0305432618	-0.019547687552	0.057421332183999994	-0.8833111312559999	0.58643062656	-4.6865580905919995	0.00812	-0.79576	0.0029	-0.42514	1.18552	-1.21858	0.2620140747	-4.8418765311	0.010767701699999993	-0.42638393472799996	0.283441469504	-2.3145683792039997	-0.20851	0.19487999999999994	-0.60784	16.4752	3.29504	-2.82432	0.9268344436220084	64.37
21711	0	2290827	-10	-1381	-44	27	6	51	-26	-1381	4	47	54	36	-723	480	-3836	-732	2031	-2103	480	128	-176	60.89	0.92740192450037	67.87	0.926474216629657	3520.857666015625	-11748.5556640625	634.2000122070312	2	12	0.6000000238418579	23.243896484375	9	0	0.0	0.0	0.0	0.0	0.2220760174933674	0.0	0.0	0.1862746350590645	-0.1435693559999999	0.1292124203999999	9.913464031799998	-0.617470383644104	-0.3469698131084442	-0.6135820150375366	0.3490836918354034	6	35.34762776692708	-117.80926106770833	-0.071784678	-9.9134640318	-0.31585258320000004	0.3373879866	0.3876372612	0.2584248408	0.032986722744	0.007330382832	0.062308254072	-0.8833111312559999	0.58643062656	-4.6865580905919995	-0.01508	-0.80098	0.00232	-0.42456	1.17798	-1.21974	0.13280165430000002	-4.7629133853	-0.02871387120000002	-0.42516220425599993	0.296880504696	-2.31212491826	-0.21982	0.1885	-0.60871	14.1216	3.76576	-5.17792	0.9269380705650134	64.38
21712	0	2290933	25	-1371	-55	34	-34	54	11	-1383	-17	51	18	40	-705	481	-3830	-732	2031	-2103	384	144	-128	60.88	0.9273328398717	67.86	0.92646434739699	3520.857666015625	-11748.5556640625	634.2000122070312	2	12	0.6000000238418579	23.218338012695312	9	0	0.0	0.0	0.0	0.0	0.2744089383310597	0.0	0.0	0.2310086935475522	-0.2584248407999999	-0.1292124203999999	9.8847501606	-0.6176791787147522	-0.3468736112117767	-0.6134470701217651	0.3490470051765442	6	35.34762776692708	-117.80926106770833	0.179461695	-9.8416793538	-0.394815729	0.36610185780000004	0.1292124204	0.287138712	0.041538836047999995	-0.041538836047999995	0.065973445488	-0.86131998276	0.5876523570319999	-4.67922770776	0.00638	-0.80214	-0.00986	-0.42456	1.17798	-1.21974	0.2727817764	-4.8562334667	-0.05383850849999999	-0.409890573356	0.27305676049199995	-2.306627131136	-0.20909	0.18792000000000003	-0.6148	11.29728	4.23648	-3.76576	0.926898593634345	64.37
21713	0	2291038	18	-1374	-21	26	-6	52	9	-1375	15	42	39	39	-705	481	-3830	-758	2048	-2074	400	112	-160	60.88	0.927214409079694	67.86	0.92646434739699	3520.857666015625	-11748.5556640625	634.2000122070312	2	12	0.6000000238418579	23.267410278320312	9	0	0.0	0.0	0.0	0.0	0.2475121422743021	0.0	0.0	0.188987307792805	-0.0215354034	-0.0969093152999999	9.8668039911	-0.6174021363258362	-0.3471412360668182	-0.6133019328117371	0.3495259284973144	6	35.34762776692708	-117.80926106770833	0.1292124204	-9.8632147572	-0.1507478238	0.3014956476	0.2799602442	0.2799602442	0.031764992272	-0.007330382832	0.063529984544	-0.86131998276	0.5876523570319999	-4.67922770776	0.00522	-0.7975	0.0087	-0.43964	1.18784	-1.20292	0.21535403400000003	-4.7916272565	0.06460621019999999	-0.414777495244	0.29016098709999993	-2.307848861608	-0.21721	0.19517	-0.59711	11.768	3.29504	-4.7072	0.926839378238342	64.37
21714	0	2291143	-7	-1381	-53	28	-9	52	-19	-1388	-6	46	40	40	-715	460	-3821	-758	2048	-2074	528	208	-80	60.88	0.9272637552430298	67.87	0.926474216629657	3520.857666015625	-11748.5556640625	634.2000122070312	2	12	0.6000000238418579	23.233673095703125	9	0	0.0	0.0	0.0	0.0	0.204064198510416	0.0	0.0	0.136618857932671	-0.2117648000999999	0.0933200813999999	9.9385886691	-0.6176429986953735	-0.3467552959918976	-0.6135507225990295	0.349046528339386	6	35.34762776692708	-117.80926106770833	-0.050249274600000005	-9.9134640318	-0.3804587934	0.3302095188	0.287138712	0.287138712	0.034208453215999995	-0.010995574248	0.063529984544	-0.8735372874799999	0.5619960171199999	-4.668232133511999	-0.01102	-0.80504	-0.00348	-0.43964	1.18784	-1.20292	0.1399801221	-4.8131626599	-0.04666004069999999	-0.419664417132	0.27550022143599995	-2.3023510744839997	-0.22532999999999997	0.19140000000000001	-0.6032	15.533760000000001	6.11936	-2.3536	0.9268689859363435	64.375
21715	0	2291249	16	-1372	-59	28	-27	52	9	-1378	-15	44	20	41	-709	468	-3831	-776	2043	-2089	496	112	0	60.88	0.9273328398717	67.86	0.9265136935603256	3520.857666015625	-11748.5556640625	634.2000122070312	2	12	0.6000000238418579	23.22344970703125	9	0	0.0	0.0	0.0	0.0	0.2064873796200191	0.0	0.0	0.1338480298275831	-0.2656033086	-0.0897308474999999	9.870393225	-0.617702305316925	-0.3466934859752655	-0.6135086417198181	0.3490770161151886	6	35.34762776692708	-117.80926106770833	0.1148554848	-9.848857821600001	-0.4235296002	0.31585258320000004	0.143569356	0.2943171798	0.034208453215999995	-0.032986722744	0.063529984544	-0.866206904648	0.571769860896	-4.680449438231999	0.00522	-0.79924	-0.0087	-0.45008	1.18494	-1.21162	0.21535403400000003	-4.8526442328	-0.06460621020000001	-0.415999225716	0.26939156907600004	-2.3084597268439997	-0.22243	0.19285000000000008	-0.6101599999999999	14.59232	3.29504	0.0	0.9269232667160128	64.37
21716	0	2291354	6	-1374	-32	23	-1	49	3	-1383	7	46	51	39	-709	468	-3831	-776	2043	-2089	432	160	-112	60.89	0.9271157167530224	67.86	0.92646434739699	3520.857666015625	-11748.5556640625	634.2000122070312	2	12	0.6000000238418579	23.233673095703125	9	0	0.0	0.0	0.0	0.0	0.3408715267749023	0.0	0.0	0.2628011151507264	-0.0897308474999999	-0.0323031051	9.8955178623	-0.6177130341529846	-0.3467047810554504	-0.6135058403015137	0.349051684141159	6	35.34762776692708	-117.80926106770833	0.0430708068	-9.8632147572	-0.2297109696	0.3302095188	0.36610185780000004	0.2799602442	0.028099800855999998	-0.001221730472	0.059864793128	-0.866206904648	0.571769860896	-4.680449438231999	0.00174	-0.80214	0.00406	-0.45008	1.18494	-1.21162	0.1866401628	-4.7485564497	0.02512463729999999	-0.419053551896	0.285274065212	-2.310292322552	-0.22416999999999998	0.19140000000000007	-0.60378	12.70944	4.7072	-3.29504	0.9267900320750062	64.375
21717	0	2291460	-27	-1385	-60	32	-18	53	-34	-1387	-13	44	37	44	-732	476	-3842	-756	2032	-2094	512	192	-144	60.9	0.9274117937330372	67.87	0.92653343202566	3520.857666015625	-11748.5556640625	634.2000122070312	2	12	0.6000000238418579	23.23980712890625	9	0	0.0	0.0	0.0	0.0	0.3104508677624173	0.0	0.0	0.212536934466787	-0.2620140747	0.2189432679	9.9493563708	-0.6178569197654724	-0.346553772687912	-0.6135703921318054	0.3488334417343139	6	35.34762776692708	-117.80926106770833	-0.1938186306	-9.942177903000001	-0.430708068	0.31585258320000004	0.26560330860000003	0.31585258320000004	0.039095375104	-0.021991148496	0.064751715016	-0.8943067055039999	0.581543704672	-4.693888473424	-0.01972	-0.80446	-0.00754	-0.43848	1.17856	-1.21452	0.06101697630000001	-4.838287297200001	-0.05742774239999998	-0.4276056652	0.279776278088	-2.3145683792039997	-0.2291	0.18705000000000005	-0.6110300000000001	15.06304	5.64864	-4.23648	0.9269726128793485	64.385
21718	0	2291565	55	-1372	-47	23	-24	45	46	-1374	0	46	24	34	-732	476	-3842	-756	2032	-2094	464	192	-144	60.89	0.9273427091043672	67.87	0.926474216629657	3520.857666015625	-11748.5556640625	634.2000122070312	2	12	0.6000000238418579	23.277633666992188	9	0	0.0	0.0	0.0	0.0	0.3847913410335048	0.0	0.0	0.2756736738522327	-0.1686939932999999	-0.3625126238999999	9.8560362894	-0.6178573966026306	-0.3466406464576721	-0.6133988499641418	0.3490479290485382	6	35.34762776692708	-117.80926106770833	0.394815729	-9.848857821600001	-0.3373879866	0.3302095188	0.1722832272	0.24406790520000002	0.028099800855999998	-0.029321531328	0.05497787124	-0.8943067055039999	0.581543704672	-4.693888473424	0.02668	-0.79692	0.0	-0.43848	1.17856	-1.21452	0.3625126239	-4.838287297200001	-0.0466600407	-0.433103452324	0.276111086672	-2.319455301092	-0.2059	0.19082000000000005	-0.60726	13.65088	5.64864	-4.23648	0.9269084628670121	64.38
21719	0	2291671	-46	-1377	-11	28	17	57	-44	-1382	15	51	61	43	-729	488	-3829	-741	2038	-2050	592	192	-80	60.89	0.9271749321490256	67.86	0.9265729089563286	3520.857666015625	-11748.5556640625	634.2999877929688	2	12	0.6000000238418579	23.236740112304688	9	0	0.0	0.0	0.0	0.0	0.3285347039958526	0.0	0.0	0.1947346480111264	0.0143569355999999	0.3230310509999999	9.9026963301	-0.6180990934371948	-0.3461557328701019	-0.6139078736305237	0.3482053577899933	6	35.34762776692708	-117.80926106770833	-0.3302095188	-9.884750160600001	-0.07896314580000001	0.36610185780000004	0.43788653580000003	0.3086741154	0.034208453215999995	0.020769418023999998	0.06963863690399999	-0.890641514088	0.596204470336	-4.678005977288	-0.02552	-0.80156	0.0087	-0.42978	1.18204	-1.189	0.017946169500000025	-4.7234318124	0.11485548479999999	-0.428216530436	0.30848694418	-2.3041836701919998	-0.22765	0.19023999999999996	-0.5901500000000001	17.41664	5.64864	-2.3536	0.926873920552677	64.375
21720	0	2291776	46	-1381	-50	38	-43	56	41	-1381	-15	51	5	47	-729	488	-3829	-741	2038	-2050	512	160	-80	60.89	0.9272834937083642	67.86	0.9265136935603256	3520.857666015625	-11748.5556640625	634.2999877929688	2	12	0.6000000238418579	23.24287414550781	9	0	0.0	0.0	0.0	0.0	0.4341454574782355	0.0	0.0	0.2869046898848694	-0.2333002034999999	-0.3122633493	9.913464031799998	-0.6179843544960022	-0.3466783165931701	-0.6132292151451111	0.3490837514400482	6	35.34762776692708	-117.80926106770833	0.3302095188	-9.9134640318	-0.35892339	0.36610185780000004	0.035892339	0.3373879866	0.046425757936	-0.052534410296	0.06841690643199999	-0.890641514088	0.596204470336	-4.678005977288	0.02378	-0.80098	-0.0087	-0.42978	1.18204	-1.189	0.3481556883	-4.9387858464	-0.010767701699999993	-0.422107878076	0.27183503002	-2.304794535428	-0.20299999999999999	0.19052999999999998	-0.59885	15.06304	4.7072	-2.3536	0.9268985936343449	64.375
21721	0	2291882	-18	-1381	-42	28	-2	47	-19	-1381	10	46	44	34	-715	473	-3832	-775	2046	-2083	400	128	-208	60.89	0.9271848013816926	67.87	0.9265235627929927	3520.857666015625	-11748.5556640625	634.2999877929688	2	12	0.6000000238418579	23.192779541015625	9	0	0.0	0.0	0.0	0.0	0.3667092902743388	0.0	0.0	0.1946829279891734	-0.1148554847999999	0.1328016543	9.913464031799998	-0.673035204410553	-0.2550017535686493	-0.64051753282547	0.2678338885307312	6	35.34762776692708	-117.80926106770833	-0.1292124204	-9.9134640318	-0.3014956476	0.3302095188	0.31585258320000004	0.24406790520000002	0.034208453215999995	-0.002443460944	0.057421332183999994	-0.8735372874799999	0.5778785132559999	-4.681671168704	-0.01102	-0.80098	0.0058	-0.4495	1.18668	-1.20814	0.1004985492	-4.7988057243	-0.028713871200000005	-0.419664417132	0.28771752615599994	-2.31212491826	-0.23026	0.19284999999999997	-0.60117	11.768	3.76576	-6.11936	0.9268541820873426	64.38
21722	0	2291987	30	-1372	-31	32	-19	58	18	-1369	13	53	33	42	-715	473	-3832	-775	2046	-2083	512	224	-160	60.89	0.9272933629410314	67.85	0.9264939550949912	3520.857666015625	-11748.5556640625	634.2999877929688	2	12	0.6000000238418579	23.21015930175781	9	0	0.0	0.0	0.0	0.0	0.5548390688297421	0.0	0.0	0.3776918290889166	-0.0646062101999999	-0.1722832272	9.8380901199	-0.672873854637146	-0.2552017569541931	-0.6404650211334229	0.2681742310523987	6	35.34762776692708	-117.80926106770833	0.215354034	-9.848857821600001	-0.2225325018	0.3804587934	0.2368894374	0.3014956476	0.039095375104	-0.023212878968	0.070860367376	-0.8735372874799999	0.5778785132559999	-4.681671168704	0.01044	-0.7940200000000001	0.00754	-0.4495	1.18668	-1.20814	0.2979064137	-4.8059841921	0.03948157290000001	-0.417220956188	0.277332817144	-2.3054054006639997	-0.21953	0.19632999999999995	-0.6003	15.06304	6.59008	-4.7072	0.9268936590180112	64.37
21723	0	2292092	17	-1379	-65	32	-18	53	5	-1369	-16	51	28	42	-704	472	-3891	-762	2032	-2097	544	160	-144	60.89	0.9274117937330372	67.86	0.9263952627683196	3520.857666015625	-11748.5556640625	634.2999877929688	2	12	0.6000000238418579	23.26434326171875	9	0	0.0	0.0	0.0	0.0	0.6231637537506451	0.0	0.0	0.4149915461504901	-0.2907279458999999	-0.0789631458	9.8632147572	-0.6730965971946716	-0.2548324167728424	-0.640552282333374	0.2677577435970306	6	35.34762776692708	-117.80926106770833	0.12203395260000001	-9.8991070962	-0.466600407	0.36610185780000004	0.20099709840000002	0.3014956476	0.039095375104	-0.021991148496	0.064751715016	-0.860098252288	0.576656782784	-4.753753266552	0.0029	-0.7940200000000001	-0.00928	-0.44196	1.17856	-1.21626	0.24406790520000002	-4.8490549989	-0.08255237969999998	-0.410501438592	0.277332817144	-2.3445007757679996	-0.21953	0.19227	-0.6127699999999999	16.00448	4.7072	-4.23648	0.9269035282506783	64.375
21724	0	2292198	45	-1376	-37	25	-19	42	30	-1376	5	42	31	35	-704	472	-3891	-762	2032	-2097	400	80	-144	60.88	0.9272045398470268	67.86	0.9265630397236616	3520.857666015625	-11748.5556640625	634.2999877929688	2	12	0.6000000238418579	23.232650756835938	9	0	0.0	0.0	0.0	0.0	0.6361087417001546	0.0	0.0	0.3927179428016438	-0.1148554847999999	-0.2691925424999999	9.877571692799998	-0.6731297373771667	-0.2547775208950043	-0.6405707597732544	0.2676824033260345	6	35.34762776692708	-117.80926106770833	0.323031051	-9.8775716928	-0.26560330860000003	0.3014956476	0.2225325018	0.251246373	0.0305432618	-0.023212878968	0.051312679824	-0.860098252288	0.576656782784	-4.753753266552	0.0174	-0.79808	0.0029	-0.44196	1.17856	-1.21626	0.3122633493	-4.8275195955	-0.007178467800000005	-0.414777495244	0.27672195190800003	-2.351220293364	-0.21228000000000002	0.19024000000000002	-0.60668	11.768	2.3536	-4.23648	0.9268837897853441	64.37
21725	0	2292303	1	-1372	-26	32	-5	55	0	-1380	13	48	44	42	-725	469	-3860	-748	2044	-2080	496	112	-32	60.87	0.9271946706143598	67.87	0.9264248704663212	3520.857666015625	-11748.5556640625	634.4000244140625	2	12	0.6000000238418579	23.17437744140625	9	0	0.0	0.0	0.0	0.0	0.7594032134125154	0.0	0.0	0.4857835938274014	-0.0466600406999999	-0.0035892338999999	9.8775716928	-0.6733524799346924	-0.2543146908283233	-0.6407849788665771	0.2670489847660064	6	35.34762776692708	-117.80926106770833	0.0071784678	-9.848857821600001	-0.1866401628	0.3445664544	0.31585258320000004	0.3014956476	0.039095375104	-0.0061086523599999994	0.06719517595999999	-0.8857545922	0.5729915913679999	-4.71587962192	0.0	-0.8004	0.00754	-0.43384	1.18552	-1.2064	0.1758724611	-4.766502619200001	0.05742774240000001	-0.423329608548	0.28344146950399995	-2.32434222298	-0.21692	0.19255999999999995	-0.5994299999999999	14.59232	3.29504	-0.94144	0.9268097705403404	64.37
21726	0	2292409	34	-1374	-55	29	-15	52	23	-1381	-25	43	34	41	-725	469	-3860	-764	2033	-2103	576	224	-80	60.88	0.9269972859610164	67.86	0.9263952627683196	3520.857666015625	-11748.5556640625	634.4000244140625	2	12	0.6000000238418579	23.2357177734375	9	0	0.0	0.0	0.0	0.0	0.8154048318699596	0.0	0.0	0.5022405503315757	-0.2871387119999999	-0.2045863323	9.8883393945	-0.6734141707420349	-0.2545064687728882	-0.6404740810394287	0.2674561142921448	6	35.34762776692708	-117.80926106770833	0.24406790520000002	-9.8632147572	-0.394815729	0.3086741154	0.24406790520000002	0.2943171798	0.035430183688	-0.01832595708	0.063529984544	-0.8857545922	0.5729915913679999	-4.71587962192	0.01334	-0.80098	-0.0145	-0.44312	1.17914	-1.21974	0.2763710103	-4.809573426	-0.050249274600000005	-0.425162204256	0.277332817144	-2.326174818688	-0.21489	0.18908000000000003	-0.61712	16.94592	6.59008	-2.3536	0.9266962743646681	64.37
21727	0	2292514	1	-1374	-22	29	-18	48	-5	-1380	10	51	34	37	-718	496	-3848	-764	2033	-2103	464	128	-144	60.88	0.9272242783123612	67.87	0.926415001233654	3520.857666015625	-11748.5556640625	634.4000244140625	2	12	0.6000000238418579	23.189712524414062	9	0	0.0	0.0	0.0	0.0	0.7973433484426793	0.0	0.0	0.4369025023184735	-0.0430708068	0.0143569355999999	9.8847501606	-0.6735320091247559	-0.2541197836399078	-0.6407662034034729	0.2668265700340271	6	35.34762776692708	-117.80926106770833	0.0071784678	-9.8632147572	-0.15792629160000002	0.36610185780000004	0.24406790520000002	0.26560330860000003	0.035430183688	-0.021991148496	0.058643062656	-0.877202478896	0.605978314112	-4.701218856255999	-0.0029	-0.8004	0.0058	-0.44312	1.17914	-1.21974	0.1866401628	-4.809573426	0.05383850850000001	-0.420886147604	0.291993582808	-2.3212878967999995	-0.22301	0.18937000000000004	-0.60697	13.65088	3.76576	-4.23648	0.9268196397730075	64.375
21728	0	2292620	39	-1374	-59	25	-15	50	24	-1377	-13	48	39	41	-718	496	-3848	-770	2031	-2121	496	96	-80	60.89	0.9272341475450284	67.86	0.9264446089316556	3520.857666015625	-11748.5556640625	634.4000244140625	2	12	0.6000000238418579	23.205047607421875	9	0	0.0	0.0	0.0	0.0	0.926290379680995	0.0	0.0	0.5310678467813046	-0.2584248408	-0.2261217357	9.8739824589	-0.6737697720527649	-0.2538239061832428	-0.6407530307769775	0.2665394842624664	6	35.34762776692708	-117.80926106770833	0.2799602442	-9.8632147572	-0.4235296002	0.3445664544	0.2799602442	0.2943171798	0.0305432618	-0.01832595708	0.0610865236	-0.877202478896	0.605978314112	-4.701218856255999	0.01392	-0.79866	-0.00754	-0.4466	1.17798	-1.23018	0.3122633493	-4.7916272565	-0.06460621020000001	-0.423329608548	0.293826178516	-2.3200661663279996	-0.21634	0.18966	-0.6188600000000001	14.59232	2.82432	-2.3536	0.926839378238342	64.375
21729	0	2292725	-3	-1380	-25	31	-17	57	-11	-1383	6	48	32	40	-733	482	-3818	-770	2031	-2121	496	176	-80	60.88	0.9274907475943746	67.86	0.926405132000987	3520.857666015625	-11748.5556640625	634.4000244140625	2	12	0.6000000238418579	23.23162841796875	9	0	0.0	0.0	0.0	0.0	0.8980130600106965	0.0	0.0	0.4501187125326698	-0.0681954440999999	0.0502492746	9.917053265699998	-0.6738169193267822	-0.2537029385566711	-0.6408151984214783	0.2663860023021698	6	35.34762776692708	-117.80926106770833	-0.0215354034	-9.906285564000001	-0.179461695	0.3445664544	0.2297109696	0.287138712	0.037873644632	-0.020769418023999998	0.06963863690399999	-0.895528435976	0.5888740875039999	-4.664566942096	-0.00638	-0.80214	0.00348	-0.4466	1.17798	-1.23018	0.1615155255	-4.838287297200001	0.05383850850000001	-0.42882739567199996	0.28405233473999997	-2.297464152596	-0.22649	0.18792000000000003	-0.6133500000000001	14.59232	5.17792	-2.3536	0.9269479397976808	64.37
21730	0	2292831	43	-1372	-35	32	-18	49	31	-1377	3	45	32	38	-733	482	-3818	-738	2024	-2068	432	208	-160	60.89	0.9273427091043672	67.86	0.9263360473723168	3520.857666015625	-11748.5556640625	634.4000244140625	2	12	0.6000000238418579	23.200958251953125	9	0	0.0	0.0	0.0	0.0	0.8273899083180846	0.0	0.0	0.3366540230057629	-0.1148554847999999	-0.2656033086	9.8668039911	-0.5917958617210388	-0.3952740430831909	-0.570347785949707	0.410170316696167	6	35.34762776692708	-117.80926106770833	0.3086741154	-9.848857821600001	-0.251246373	0.323031051	0.2297109696	0.2727817764	0.039095375104	-0.021991148496	0.059864793128	-0.895528435976	0.5888740875039999	-4.664566942096	0.01798	-0.79866	0.00174	-0.42804	1.17392	-1.19944	0.3158525832	-4.809573426000001	0.010767701699999993	-0.428216530436	0.28344146950399995	-2.302351074484	-0.20503	0.18763000000000002	-0.59885	12.70944	6.11936	-4.7072	0.926839378238342	64.375
21731	0	2292936	-19	-1376	-46	30	5	49	-23	-1380	3	45	58	41	-706	479	-3836	-738	2024	-2068	560	192	-96	60.87	0.9271946706143598	67.86	0.9265136935603256	3520.857666015625	-11748.5556640625	634.4000244140625	2	12	0.6000000238418579	23.26229858398437	9	0	0.0	0.0	0.0	0.0	0.7885854182510164	0.0	0.0	0.2704543139219119	-0.1543370577	0.1507478237999999	9.8919286284	-0.5920625329017639	-0.3949063718318939	-0.570809543132782	0.4094966351985931	6	35.34762776692708	-117.80926106770833	-0.1363908882	-9.8775716928	-0.3302095188	0.323031051	0.4163511324	0.2943171798	0.03665191416	0.0061086523599999994	0.059864793128	-0.8625417132319999	0.585208896088	-4.6865580905919995	-0.01334	-0.8004	0.00174	-0.42804	1.17392	-1.19944	0.0933200814	-4.7306102802000005	-0.017946169499999998	-0.41294489953599994	0.295658774224	-2.313346648732	-0.22069	0.18676000000000004	-0.59885	16.4752	5.64864	-2.82432	0.9268541820873427	64.365
21732	0	2293041	25	-1380	-63	29	-12	52	6	-1381	-15	49	39	39	-706	479	-3836	-746	2034	-2068	432	128	-256	60.88	0.927451270663706	67.86	0.9263360473723168	3520.857666015625	-11748.5556640625	634.4000244140625	2	12	0.6000000238418579	23.237762451171875	9	0	0.0	0.0	0.0	0.0	0.7105976489869453	0.0	0.0	0.1709095147103422	-0.2799602442	-0.1112662508999999	9.9098747979	-0.5922453999519348	-0.3948858678340912	-0.5706178545951843	0.4095189273357391	6	35.34762776692708	-117.80926106770833	0.179461695	-9.906285564000001	-0.45224347140000004	0.35174492220000003	0.2799602442	0.2799602442	0.035430183688	-0.014660765664	0.063529984544	-0.8625417132319999	0.585208896088	-4.6865580905919995	0.00348	-0.80098	-0.0087	-0.43268	1.17972	-1.19944	0.26560330860000003	-4.813162659900001	-0.08614161360000003	-0.41355576477199996	0.285274065212	-2.3115140530239997	-0.2146	0.18937000000000004	-0.60407	12.70944	3.76576	-7.53152	0.9268936590180115	64.37
21733	0	2293147	20	-1375	-27	31	-25	47	7	-1376	5	49	27	38	-727	480	-3869	-746	2034	-2068	528	112	-128	60.89	0.92740192450037	67.86	0.9263360473723168	3520.857666015625	-11748.5556640625	634.4000244140625	2	12	0.6000000238418579	23.238784790039062	9	0	0.0	0.0	0.0	0.0	0.7590107958654949	0.0	0.0	0.2106854680314283	-0.0789631458	-0.0969093152999999	9.8739824589	-0.5921825170516968	-0.3949130773544311	-0.5706362724304199	0.4095582067966461	6	35.34762776692708	-117.80926106770833	0.143569356	-9.870393225	-0.1938186306	0.35174492220000003	0.1938186306	0.2727817764	0.037873644632	-0.0305432618	0.057421332183999994	-0.8881980531439999	0.58643062656	-4.726875196168	0.00406	-0.79808	0.0029	-0.43268	1.17972	-1.19944	0.24765713910000003	-4.838287297200001	0.0394815729	-0.42516220425599993	0.27794368238	-2.334726931992	-0.21431	0.19082000000000005	-0.5982700000000001	15.533760000000001	3.29504	-3.76576	0.9268689859363434	64.375
21734	0	2293252	12	-1371	-15	29	-11	51	6	-1382	27	50	39	40	-710	476	-3830	-745	2046	-2072	496	176	-80	60.89	0.9272933629410314	67.86	0.9265038243276584	3520.857666015625	-11748.5556640625	634.4000244140625	2	12	0.6000000238418579	23.258209228515625	9	0	0.0	0.0	0.0	0.0	0.7470940234128394	0.0	0.0	0.1813721266947714	0.0430708068	-0.0646062102	9.8811609267	-0.5921351313591003	-0.3948247730731964	-0.5707660913467407	0.4095307886600494	6	35.34762776692708	-117.80926106770833	0.0861416136	-9.8416793538	-0.107677017	0.35892339	0.2799602442	0.287138712	0.035430183688	-0.013439035192	0.062308254072	-0.8674286351199999	0.581543704672	-4.67922770776	0.00348	-0.80156	0.01566	-0.4321	1.18668	-1.20176	0.2225325018	-4.7808595548	0.08973084750000002	-0.41599922571599995	0.28405233474	-2.308459726844	-0.21431	0.19255999999999995	-0.59305	14.59232	5.17792	-2.3536	0.9268985936343449	64.375
21735	0	2293358	3	-1369	-59	27	-9	51	2	-1377	-16	47	43	37	-710	476	-3830	-745	2046	-2072	448	128	-192	60.88	0.9272242783123612	67.86	0.9266123858869972	3520.857666015625	-11748.5556640625	634.5	2	12	0.6000000238418579	23.233673095703125	9	0	0.0	0.0	0.0	0.0	0.8117098863550947	0.0	0.0	0.2388663679773796	-0.2691925424999999	-0.0179461694999999	9.8560362894	-0.5923126935958862	-0.3946080207824707	-0.570884108543396	0.4093184173107147	6	35.34762776692708	-117.80926106770833	0.0215354034	-9.8273224182	-0.4235296002	0.3373879866	0.3086741154	0.26560330860000003	0.032986722744	-0.010995574248	0.062308254072	-0.8674286351199999	0.581543704672	-4.67922770776	0.00116	-0.79866	-0.00928	-0.4321	1.18668	-1.20176	0.179461695	-4.7593241513999995	-0.0789631458	-0.4172209561879999	0.285274065212	-2.308459726844	-0.21547	0.19400999999999996	-0.60552	13.18016	3.76576	-5.64864	0.9269183320996792	64.37
21736	0	2293463	5	-1381	-65	23	-37	50	3	-1376	-23	42	19	37	-721	473	-3881	-733	2062	-2092	480	128	-112	60.89	0.9272341475450284	67.85	0.9266617320503332	3520.857666015625	-11748.5556640625	634.5	2	12	0.6000000238418579	23.23060607910156	9	0	0.0	0.0	0.0	0.0	0.7310540086550855	0.0	0.0	0.1371692812987863	-0.3158525832	-0.0287138711999999	9.895517862299998	-0.592167317867279	-0.3947138786315918	-0.5708004236221313	0.4095433950424194	6	35.34762776692708	-117.80926106770833	0.035892339	-9.9134640318	-0.466600407	0.3014956476	0.1363908882	0.26560330860000003	0.028099800855999998	-0.045204027464	0.0610865236	-0.880867670312	0.5778785132559999	-4.741535961832	0.00174	-0.79808	-0.01334	-0.42514	1.19596	-1.21336	0.1686939933	-4.8885365718000005	-0.10049854919999998	-0.426383934728	0.26633724289599997	-2.3402247191159997	-0.2117	0.19893999999999995	-0.61335	14.1216	3.76576	-3.29504	0.9269479397976808	64.37
21737	0	2293569	6	-1368	-14	24	-5	49	4	-1378	27	43	46	38	-721	473	-3881	-733	2062	-2092	512	224	-128	60.88	0.927145324451024	67.85	0.9264347396989884	3520.857666015625	-11748.5556640625	634.5	2	12	0.6000000238418579	23.251052856445312	9	0	0.0	0.0	0.0	0.0	0.6774214253150215	0.0	0.0	0.0771442634517069	0.0466600406999999	-0.0358923389999999	9.8560362894	-0.5920418500900269	-0.3946773409843445	-0.5709812641143799	0.4095077812671661	6	35.34762776692708	-117.80926106770833	0.0430708068	-9.8201439504	-0.10049854920000001	0.3086741154	0.3302095188	0.2727817764	0.029321531328	-0.0061086523599999994	0.059864793128	-0.880867670312	0.5778785132559999	-4.741535961832	0.00232	-0.79924	0.01566	-0.42514	1.19596	-1.21336	0.1758724611	-4.7449672158	0.0861416136	-0.425773069492	0.28588493044799995	-2.340835584352	-0.21141000000000001	0.19835999999999998	-0.59885	15.06304	6.59008	-3.76576	0.9267900320750062	64.365
21738	0	2293674	11	-1378	-46	32	-7	49	7	-1373	-1	54	47	41	-722	481	-3897	-734	2064	-2103	608	224	-96	60.89	0.9270071551936836	67.86	0.9263952627683196	3520.857177734375	-11748.5556640625	634.5	2	12	0.6000000238418579	23.189712524414062	9	0	0.0	0.0	0.0	0.0	0.7088687974448326	0.0	0.0	0.1113135457237881	-0.1686939932999999	-0.0646062102	9.8739824589	-0.592616617679596	-0.3940716981887817	-0.57132488489151	0.4087797701358795	6	35.34761962890625	-117.80926106770833	0.07896314580000001	-9.8919286284	-0.3302095188	0.3876372612	0.3373879866	0.2943171798	0.039095375104	-0.008552113303999999	0.059864793128	-0.882089400784	0.5876523570319999	-4.761083649384	0.00406	-0.79634	-0.00058	-0.42572	1.19712	-1.21974	0.23330020350000003	-4.7772703209000005	-0.017946169499999998	-0.42149701284	0.289550121864	-2.350609428128	-0.21083	0.20038999999999996	-0.61016	17.88736	6.59008	-2.82432	0.9267012089810016	64.375
21739	0	2293780	8	-1376	-62	21	-23	55	8	-1373	-12	41	29	45	-722	481	-3897	-734	2064	-2103	432	144	-176	60.89	0.9272341475450284	67.85	0.9263755243029854	3520.857177734375	-11748.5556640625	634.5	2	12	0.6000000238418579	23.287857055664062	9	0	0.0	0.0	0.0	0.0	0.8332194795174276	0.0	0.0	0.2394667514236383	-0.2656033086	-0.0574277423999999	9.8668039911	-0.5925788283348083	-0.3941473066806793	-0.5711898803710938	0.408950537443161	6	35.34761962890625	-117.80926106770833	0.0574277424	-9.8775716928	-0.4450650036	0.2943171798	0.2081755662	0.323031051	0.025656339912	-0.028099800855999998	0.06719517595999999	-0.882089400784	0.5876523570319999	-4.761083649384	0.00464	-0.79634	-0.00696	-0.42572	1.19712	-1.21974	0.1758724611	-4.8346980633	-0.0610169763	-0.428216530436	0.279776278088	-2.346944236712	-0.21054	0.20038999999999996	-0.6133500000000001	12.70944	4.23648	-5.17792	0.9268048359240069	64.37
21740	0	2293885	2	-1381	-26	30	-15	50	0	-1379	10	51	35	38	-710	481	-3869	-770	2050	-2032	480	208	-32	60.87	0.927086109055021	67.85	0.9263163089069824	3520.857177734375	-11748.5556640625	634.5	2	12	0.6000000238418579	23.22958374023437	9	0	0.0	0.0	0.0	0.0	0.921086321699069	0.0	0.0	0.3136627501951345	-0.0574277423999999	-0.0071784677999999	9.906285564	-0.5238630771636963	-0.4758472442626953	-0.5104836821556091	0.4884089827537536	6	35.34761962890625	-117.80926106770833	0.0143569356	-9.9134640318	-0.1866401628	0.36610185780000004	0.251246373	0.2727817764	0.03665191416	-0.01832595708	0.0610865236	-0.8674286351199999	0.5876523570319999	-4.726875196168	0.0	-0.79982	0.0058	-0.4466	1.189	-1.17856	0.19022939670000003	-4.8311088294	0.0430708068	-0.41538836047999994	0.284663199976	-2.332894336284	-0.2233	0.19459000000000004	-0.58638	14.1216	6.11936	-0.94144	0.9267012089810016	64.36
21741	0	2293991	6	-1379	-43	27	-10	48	4	-1382	1	46	47	35	-710	481	-3869	-761	2023	-2071	464	128	-112	60.88	0.9272637552430298	67.85	0.9264939550949912	3520.857177734375	-11748.5556640625	634.5	2	12	0.6000000238418579	23.24798583984375	9	0	0.0	0.0	0.0	0.0	0.7655623904553337	0.0	0.0	0.1320764707676175	-0.1507478237999999	-0.0358923389999999	9.9098747979	-0.5237771272659302	-0.4758435189723968	-0.5104979872703552	0.4884898960590362	6	35.34761962890625	-117.80926106770833	0.0430708068	-9.8991070962	-0.3086741154	0.3302095188	0.3373879866	0.251246373	0.032986722744	-0.012217304719999999	0.058643062656	-0.8674286351199999	0.5876523570319999	-4.726875196168	0.00232	-0.80156	0.00058	-0.44138	1.17334	-1.20118	0.1866401628	-4.7808595548	-0.02871387119999999	-0.4172209561879999	0.28771752615599994	-2.3341160667559997	-0.21953	0.18589	-0.6003	13.65088	3.76576	-3.29504	0.9268788551690106	64.365
21742	0	2294096	0	-1370	-45	34	7	51	3	-1376	0	48	49	39	-702	483	-3867	-761	2023	-2071	496	240	-144	60.87	0.9273131014063656	67.85	0.9264840858623242	3520.857177734375	-11748.5556640625	634.5	2	12	0.6000000238418579	23.271499633789062	9	0	0.0	0.0	0.0	0.0	0.6289662580810412	0.0	0.0	-0.0163652376151759	-0.1615155254999999	-0.0107677017	9.8560362894	-0.5243327617645264	-0.4753647446632385	-0.5109188556671143	0.487919420003891	6	35.34761962890625	-117.80926106770833	0.0	-9.834500886	-0.323031051	0.3445664544	0.35174492220000003	0.2799602442	0.041538836047999995	0.008552113303999999	0.062308254072	-0.8576547913439999	0.590095817976	-4.724431735224	0.00174	-0.79808	0.0	-0.44138	1.17334	-1.20118	0.1722832272	-4.7413779819	-0.021535403400000014	-0.40805797764799995	0.29932396563999997	-2.331061740576	-0.21982	0.18763000000000002	-0.60059	14.59232	7.0608	-4.23648	0.9268985936343449	64.36
21743	0	2294201	29	-1380	-30	46	-38	55	15	-1374	-3	57	11	42	-702	483	-3867	-762	2052	-2085	416	208	-144	60.88	0.9273229706390328	67.85	0.9264347396989884	3520.857177734375	-11748.5556640625	634.5	2	12	0.6000000238418579	23.293991088867188	9	0	0.0	0.0	0.0	0.0	0.5876464826943002	0.0	0.0	-0.0484754727721693	-0.1184447186999999	-0.1579262916	9.8847501606	-0.5241754651069641	-0.4756194353103637	-0.5105456113815308	0.4882307946681976	6	35.34761962890625	-117.80926106770833	0.2081755662	-9.906285564000001	-0.215354034	0.4091726646	0.07896314580000001	0.3014956476	0.056199601711999995	-0.046425757936	0.06719517595999999	-0.8576547913439999	0.590095817976	-4.724431735224	0.0087	-0.79692	-0.00174	-0.44196	1.19016	-1.2093	0.3086741154	-4.913661209100001	0.043070806800000014	-0.40072759481599995	0.27183503002	-2.328618279632	-0.21663000000000002	0.19662000000000007	-0.6055200000000001	12.23872	6.11936	-4.23648	0.9268788551690106	64.365
21744	0	2294307	7	-1376	8	30	-13	49	4	-1382	42	45	32	38	-713	487	-3866	-762	2052	-2085	480	176	-80	60.88	0.927145324451024	67.86	0.9263853935356526	3520.857177734375	-11748.5556640625	634.5	2	12	0.6000000238418579	23.1866455078125	9	0	0.0	0.0	0.0	0.0	0.7319414398162943	0.0	0.0	0.1149005382283022	0.1794616949999999	-0.0394815729	9.899107096199998	-0.5238900780677795	-0.475662499666214	-0.5106080174446106	0.488429993391037	6	35.34761962890625	-117.80926106770833	0.050249274600000005	-9.8775716928	0.0574277424	0.323031051	0.2297109696	0.2727817764	0.03665191416	-0.015882496136	0.059864793128	-0.871093826536	0.594982739864	-4.723210004752	0.00232	-0.80156	0.02436	-0.44196	1.19016	-1.2093	0.1866401628	-4.8239303616	0.1651047594	-0.417220956188	0.289550121864	-2.331672605812	-0.21982000000000002	0.19430000000000003	-0.59247	14.1216	5.17792	-2.3536	0.9267653589933383	64.37
21745	0	2294412	19	-1373	-52	36	-5	52	10	-1374	-8	50	49	42	-713	487	-3866	-750	2023	-2088	496	176	-144	60.89	0.9271848013816926	67.87	0.9267604243770048	3520.857177734375	-11748.5556640625	634.5	2	12	0.6000000238418579	23.24594116210937	9	0	0.0	0.0	0.0	0.0	0.695466038477538	0.0	0.0	0.0712121983180888	-0.2153540339999999	-0.1040877830999999	9.8596255233	-0.5243465900421143	-0.4753845930099487	-0.5107904672622681	0.4880196452140808	6	35.34761962890625	-117.80926106770833	0.1363908882	-9.8560362894	-0.3732803256	0.35892339	0.35174492220000003	0.3014956476	0.043982296992	-0.0061086523599999994	0.063529984544	-0.871093826536	0.594982739864	-4.723210004752	0.0058	-0.79692	-0.00464	-0.435	1.17334	-1.2110400000000001	0.2476571391	-4.7521456836	-0.035892338999999995	-0.413555764772	0.29443704375199997	-2.3298400101039998	-0.2146	0.18821000000000004	-0.60784	14.59232	5.17792	-4.23648	0.9269726128793487	64.38
21746	0	2294517	5	-1379	-55	29	-31	54	-1	-1376	-6	52	20	40	-714	495	-3876	-750	2023	-2088	432	128	-192	60.87	0.9271946706143598	67.87	0.92653343202566	3520.857177734375	-11748.5556640625	634.5	2	12	0.6000000238418579	23.228561401367188	9	0	0.0	0.0	0.0	0.0	0.648169237069286	0.0	0.0	0.0233981789038282	-0.2189432678999999	-0.0143569355999999	9.8883393945	-0.5245717167854309	-0.4751587808132171	-0.5110177993774414	0.4877596497535705	6	35.34761962890625	-117.80926106770833	0.035892339	-9.8991070962	-0.394815729	0.3732803256	0.143569356	0.287138712	0.035430183688	-0.037873644632	0.065973445488	-0.8723155570079999	0.60475658364	-4.735427309472	-0.00058	-0.79808	-0.00348	-0.435	1.17334	-1.2110400000000001	0.2045863323	-4.8777688701	-0.05383850849999999	-0.41844268665999995	0.28344146950399995	-2.334726931992	-0.21779	0.18763000000000002	-0.60726	12.70944	3.76576	-5.64864	0.9268640513200099	64.37
21747	0	2294622	50	-1375	-11	26	-14	49	30	-1374	22	47	38	38	-714	495	-3876	-772	2058	-2053	480	256	-208	60.88	0.9273229706390328	67.86	0.926405132000987	3520.857177734375	-11748.5556640625	634.5	2	12	0.6000000238418579	23.24798583984375	9	0	0.0	0.0	0.0	0.0	0.6534633624964915	0.0	0.0	0.0351150575280347	0.0394815729	-0.2871387119999999	9.8668039911	-0.5242089033126831	-0.475409597158432	-0.5106992721557617	0.4882388114929199	6	35.34761962890625	-117.80926106770833	0.35892339	-9.870393225	-0.07896314580000001	0.3373879866	0.2727817764	0.2727817764	0.031764992272	-0.017104226607999998	0.059864793128	-0.8723155570079999	0.60475658364	-4.735427309472	0.0174	-0.79692	0.01276	-0.44776	1.19364	-1.19074	0.3481556883	-4.7988057243	0.09690931529999999	-0.42027528236799994	0.29382617851599996	-2.337781258172	-0.21517999999999998	0.19836000000000004	-0.5889899999999999	14.1216	7.53152	-6.11936	0.9268640513200099	64.37
21748	0	2294727	-28	-1377	-43	29	-1	47	-35	-1376	3	45	58	37	-720	494	-3847	-772	2058	-2053	464	128	-128	60.9	0.9273723168023686	67.86	0.9265038243276584	3520.857177734375	-11748.5556640625	634.5	2	12	0.6000000238418579	23.237762451171875	9	0	0.0	0.0	0.0	0.0	0.6034046882898177	0.0	0.0	-0.0151320345505072	-0.1435693559999999	0.2261217357	9.881160926699998	-0.5247789025306702	-0.4748106598854065	-0.5115380883216858	0.4873303771018982	6	35.34761962890625	-117.80926106770833	-0.20099709840000002	-9.884750160600001	-0.3086741154	0.323031051	0.4163511324	0.26560330860000003	0.035430183688	-0.001221730472	0.057421332183999994	-0.87964593984	0.6035348531679999	-4.699997125784	-0.0203	-0.79808	0.00174	-0.44776	1.19364	-1.19074	0.0610169763	-4.7341995141	-0.021535403399999986	-0.422107878076	0.30115656134799995	-2.3212878968	-0.23403	0.19778	-0.5944999999999999	13.65088	3.76576	-3.76576	0.9269380705650135	64.38
21749	0	2294832	31	-1372	-70	20	-24	55	27	-1385	-33	37	21	43	-720	494	-3847	-752	2049	-2140	448	144	-192	60.87	0.927086109055021	67.86	0.9264446089316556	3520.857177734375	-11748.5556640625	634.5	2	12	0.6000000238418579	23.244918823242188	9	0	0.0	0.0	0.0	0.0	0.5124874936330007	0.0	0.0	-0.0958456178997201	-0.3696910917	-0.2081755662	9.8955178623	-0.6279457211494446	-0.3324166536331177	-0.6169350147247314	0.3384888172149658	6	35.34761962890625	-117.80926106770833	0.2225325018	-9.848857821600001	-0.502492746	0.26560330860000003	0.1507478238	0.3086741154	0.024434609439999998	-0.029321531328	0.06719517595999999	-0.87964593984	0.6035348531679999	-4.699997125784	0.01566	-0.8033	-0.01914	-0.43616	1.18842	-1.2412	0.24406790520000002	-4.849054998900001	-0.09690931530000002	-0.4276056652	0.28710666092	-2.316400974912	-0.21025	0.19256	-0.63017	13.18016	4.23648	-5.64864	0.9267653589933382	64.365
21750	0	2294937	5	-1380	-28	25	-2	44	4	-1382	7	43	48	36	-703	453	-3844	-752	2049	-2140	544	128	-112	60.88	0.9274315321983716	67.86	0.92646434739699	3520.857177734375	-11748.5556640625	634.5	2	12	0.6000000238418579	23.222427368164062	9	0	0.0	0.0	0.0	0.0	0.5048179539893348	0.0	0.0	-0.0862968747532575	-0.0753739118999999	-0.0323031050999999	9.9134640318	-0.6277202367782593	-0.3325076699256897	-0.6171257495880127	0.338469922542572	6	35.34761962890625	-117.80926106770833	0.035892339	-9.906285564000001	-0.20099709840000002	0.3086741154	0.3445664544	0.2584248408	0.0305432618	-0.002443460944	0.053756140768	-0.8588765218159999	0.553443903816	-4.696331934368	0.00232	-0.80156	0.00406	-0.43616	1.18842	-1.2412	0.1722832272	-4.7808595548	0.02871387119999999	-0.41416663000799997	0.27550022143599995	-2.3212878968	-0.21692	0.19343	-0.6185700000000001	16.00448	3.76576	-3.29504	0.9269479397976808	64.37
21751	0	2295042	18	-1381	-49	27	-17	53	7	-1383	-4	47	30	42	-708	478	-3863	-739	2041	-2106	512	144	0	60.89	0.9272933629410314	67.86	0.926405132000987	3520.857177734375	-11748.5556640625	634.5	2	12	0.6000000238418579	23.204025268554688	9	0	0.0	0.0	0.0	0.0	0.4952334444342178	0.0	0.0	-0.0775511154988404	-0.1902293967	-0.0897308475	9.9206424996	-0.6277258396148682	-0.3324153423309326	-0.6172301769256592	0.3383598029613495	6	35.34761962890625	-117.80926106770833	0.1292124204	-9.9134640318	-0.35174492220000003	0.3373879866	0.215354034	0.3014956476	0.032986722744	-0.020769418023999998	0.064751715016	-0.864985174176	0.583987165616	-4.719544813335999	0.00406	-0.80214	-0.00232	-0.42862	1.18378	-1.22148	0.23330020350000003	-4.8490549989	-0.025124637300000002	-0.415999225716	0.28160887379599997	-2.3273965491599995	-0.21228	0.19082000000000005	-0.6119	15.06304	4.23648	0.0	0.9268492474710092	64.375
21752	0	2295164	5	-1369	-45	27	-4	53	8	-1376	3	43	46	41	-708	478	-3863	-739	2041	-2106	464	208	-176	60.89	0.9271255859856896	67.86	0.9264544781643228	3520.857177734375	-11748.5556640625	634.5	2	12	0.6000000238418579	23.24082946777344	9	0	0.0	0.0	0.0	0.0	0.6096303190632298	0.0	0.0	0.0578992255227841	-0.1507478237999999	-0.0466600406999999	9.8524470555	-0.6279823184013367	-0.3318245410919189	-0.6176242232322693	0.3377440273761749	6	35.34761962890625	-117.80926106770833	0.035892339	-9.8273224182	-0.323031051	0.3086741154	0.3302095188	0.2943171798	0.032986722744	-0.004886921888	0.064751715016	-0.864985174176	0.583987165616	-4.719544813335999	0.00464	-0.79808	0.00174	-0.42862	1.18378	-1.22148	0.1722832272	-4.7485564497	-0.01435693560000001	-0.415999225716	0.289550121864	-2.3273965491599995	-0.21199	0.19285000000000002	-0.6098699999999999	13.65088	6.11936	-5.17792	0.9267900320750062	64.375
21753	0	2295270	10	-1376	-77	26	-23	53	6	-1372	-31	41	20	41	-708	464	-3872	-746	2032	-2116	480	144	-96	60.9	0.9273032321736984	67.86	0.9265136935603256	3520.857177734375	-11748.5556640625	634.5	2	12	0.6000000238418579	23.282745361328125	9	0	0.0	0.0	0.0	0.0	0.5535314587432028	0.0	0.0	0.0019922067336177	-0.3876372611999999	-0.0574277423999999	9.863214757199998	-0.6279449462890625	-0.3318220973014831	-0.6176143288612366	0.3378340899944305	6	35.34761962890625	-117.80926106770833	0.071784678	-9.8775716928	-0.5527420206	0.2943171798	0.143569356	0.2943171798	0.031764992272	-0.028099800855999998	0.064751715016	-0.864985174176	0.566882939008	-4.730540387584	0.00348	-0.79576	-0.01798	-0.43268	1.17856	-1.22728	0.1830509289	-4.8670011684	-0.1292124204	-0.41661009095199997	0.26939156907600004	-2.332894336284	-0.2146	0.19140000000000001	-0.62263	14.1216	4.23648	-2.82432	0.926908462867012	64.38
21754	0	2295375	17	-1377	-1	23	-2	48	5	-1378	35	40	45	40	-708	464	-3872	-741	2038	-2102	464	176	-144	60.89	0.9271157167530224	67.86	0.9265136935603256	3520.857177734375	-11748.5556640625	634.4000244140625	2	12	0.6000000238418579	23.24696350097656	9	0	0.0	0.0	0.0	0.0	0.5948568263296095	0.0	0.0	0.05609163859648	0.1220339525999999	-0.0789631458	9.8883393945	-0.6274327635765076	-0.3321856260299682	-0.6176505088806152	0.3383618891239166	6	35.34761962890625	-117.80926106770833	0.12203395260000001	-9.884750160600001	-0.0071784678	0.287138712	0.323031051	0.287138712	0.028099800855999998	-0.002443460944	0.058643062656	-0.864985174176	0.566882939008	-4.730540387584	0.0029	-0.79924	0.0203	-0.42978	1.18204	-1.21916	0.2045863323	-4.780859554800001	0.13998012210000002	-0.41844268666	0.282219739032	-2.335948662464	-0.21344	0.19140000000000001	-0.59943	13.65088	5.17792	-4.23648	0.926814705156674	64.375
21755	0	2295481	1	-1381	-68	28	-11	52	-7	-1377	-19	47	37	42	-718	466	-3828	-741	2038	-2102	368	112	-80	60.88	0.9272637552430298	67.86	0.9264446089316556	3520.857177734375	-11748.5556640625	634.4000244140625	2	12	0.6000000238418579	23.25616455078125	9	0	0.0	0.0	0.0	0.0	0.5924211027019012	0.0	0.0	0.0569886908258077	-0.3122633493	0.0215354034	9.899107096199998	-0.6278407573699951	-0.3315595686435699	-0.6179986596107483	0.3375825881958008	6	35.34761962890625	-117.80926106770833	0.0071784678	-9.9134640318	-0.48813581040000004	0.3373879866	0.26560330860000003	0.3014956476	0.034208453215999995	-0.013439035192	0.063529984544	-0.877202478896	0.569326399952	-4.676784246816	-0.00406	-0.79866	-0.01102	-0.42978	1.18204	-1.21916	0.1722832272	-4.8239303616	-0.0933200814	-0.42149701284	0.27794368238	-2.306627131136	-0.21692	0.19168999999999997	-0.61509	10.82656	3.29504	-2.3536	0.9268541820873427	64.37
21756	0	2295586	18	-1382	-57	8	-15	50	11	-1375	-8	32	40	40	-718	466	-3828	-755	2066	-2091	544	160	-64	60.88	0.9275104860597088	67.87	0.9263557858376512	3520.857177734375	-11748.5556640625	634.4000244140625	2	12	0.6000000238418579	23.24082946777344	9	0	0.0	0.0	0.0	0.0	0.5884256428094538	0.0	0.0	0.0523999748289494	-0.2333002034999999	-0.1040877831	9.8955178623	-0.6279188990592957	-0.3313595354557037	-0.6181092858314514	0.3374311029911041	6	35.34761962890625	-117.80926106770833	0.1292124204	-9.9206424996	-0.4091726646	0.2297109696	0.287138712	0.287138712	0.009773843776	-0.01832595708	0.0610865236	-0.877202478896	0.569326399952	-4.676784246816	0.00638	-0.7975	-0.00464	-0.4379	1.19828	-1.21278	0.179461695	-4.816751893799999	-0.0610169763	-0.43371431756	0.275500221436	-2.307848861608	-0.21576	0.20039	-0.60871	16.00448	4.7072	-1.88288	0.92693313594868	64.375
21757	0	2295692	7	-1373	-38	23	-25	52	10	-1382	6	48	27	42	-683	472	-3824	-755	2066	-2091	432	144	-176	60.9	0.9273624475697014	67.86	0.9263952627683196	3520.857177734375	-11748.5556640625	634.4000244140625	2	12	0.6000000238418579	23.18255615234375	9	0	0.0	0.0	0.0	0.0	0.5425591806867546	0.0	0.0	0.0027190028930147	-0.1148554847999999	-0.0610169763	9.8883393945	-0.6276875734329224	-0.3315461575984955	-0.6181234121322632	0.337652176618576	6	35.34761962890625	-117.80926106770833	0.050249274600000005	-9.8560362894	-0.2727817764	0.3445664544	0.1938186306	0.3014956476	0.028099800855999998	-0.0305432618	0.063529984544	-0.834441912376	0.576656782784	-4.671897324928	0.0058	-0.80156	0.00348	-0.4379	1.19828	-1.21278	0.1974078645	-4.831108829400001	0.01435693560000001	-0.40317105576	0.273056760492	-2.3041836701919998	-0.21605000000000002	0.19835999999999998	-0.60465	12.70944	4.23648	-5.17792	0.9268788551690106	64.38
21758	0	2295797	33	-1375	-24	30	-6	50	24	-1367	15	45	43	37	-683	472	-3824	-750	2039	-2076	496	272	-112	60.87	0.9273131014063656	67.86	0.9263952627683196	3520.857177734375	-11748.5556640625	634.4000244140625	2	12	0.6000000238418579	23.29705810546875	9	0	0.0	0.0	0.0	0.0	0.5008795173754939	0.0	0.0	-0.0317260815680993	-0.0323031051	-0.2045863323	9.8416793538	-0.6276909708976746	-0.331423282623291	-0.6182450652122498	0.3375437557697296	6	35.34761962890625	-117.80926106770833	0.2368894374	-9.870393225	-0.1722832272	0.323031051	0.3086741154	0.26560330860000003	0.03665191416	-0.007330382832	0.0610865236	-0.834441912376	0.576656782784	-4.671897324928	0.01392	-0.79286	0.0087	-0.435	1.18262	-1.20408	0.2799602442	-4.7808595548	0.046660040700000016	-0.39889499910799997	0.284663199976	-2.3054054006639997	-0.21054	0.19488	-0.59769	14.59232	8.00224	-3.29504	0.9268541820873426	64.365
21759	0	2295903	-3	-1384	-77	24	-17	51	-16	-1380	-25	38	31	41	-710	450	-3833	-750	2039	-2076	496	144	-208	60.88	0.9273723168023686	67.86	0.926345916604984	3520.857177734375	-11748.5556640625	634.4000244140625	2	12	0.6000000238418579	23.2357177734375	9	0	0.0	0.0	0.0	0.0	0.4781736021133843	0.0	0.0	-0.0445581123282692	-0.3661018578	0.0681954441	9.9206424996	-0.7120630741119385	-0.0424952432513237	-0.6994915008544922	0.0432673916220665	6	35.34761962890625	-117.80926106770833	-0.0215354034	-9.9349994352	-0.5527420206	0.2727817764	0.2225325018	0.2943171798	0.029321531328	-0.020769418023999998	0.062308254072	-0.8674286351199999	0.5497787124	-4.682892899176	-0.00928	-0.8004	-0.0145	-0.435	1.18262	-1.20408	0.1256231865	-4.8562334667	-0.1292124204	-0.41905355189599997	0.264504647188	-2.3102923225520002	-0.22214	0.19111	-0.60929	14.59232	4.23648	-6.11936	0.9268591167036764	64.37
21760	0	2296008	13	-1381	-70	10	-24	48	4	-1378	-15	26	29	39	-710	450	-3833	-749	2056	-2073	448	128	-144	60.89	0.9273525783370344	67.87	0.9265827781889958	3520.857177734375	-11748.5556640625	634.4000244140625	2	12	0.6000000238418579	23.241851806640625	9	0	0.0	0.0	0.0	0.0	0.4353166647190778	0.0	0.0	-0.0778651778422632	-0.3050848814999999	-0.0610169763	9.9026963301	-0.7120195031166077	-0.042608618736267	-0.6995167136192322	0.0434649959206581	6	35.34761962890625	-117.80926106770833	0.0933200814	-9.9134640318	-0.502492746	0.1866401628	0.2081755662	0.2799602442	0.012217304719999999	-0.029321531328	0.058643062656	-0.8674286351199999	0.5497787124	-4.682892899176	0.00232	-0.79924	-0.0087	-0.43442000000000003	1.19248	-1.20234	0.1399801221	-4.8526442328	-0.11126625090000003	-0.42760566519999993	0.260228590536	-2.31212491826	-0.21605000000000002	0.19662000000000002	-0.60552	13.18016	3.76576	-4.23648	0.9269676782630152	64.38
21761	0	2296113	38	-1377	-39	23	-5	52	31	-1380	4	47	40	37	-726	472	-3856	-749	2056	-2073	432	176	-112	60.88	0.9274414014310388	67.86	0.9263952627683196	3520.857177734375	-11748.5556640625	634.4000244140625	2	12	0.6000000238418579	23.234695434570312	9	0	0.0	0.0	0.0	0.0	0.3995024572127253	0.0	0.0	-0.0996665276947138	-0.1256231864999999	-0.2476571390999999	9.8955178623	-0.7119423151016235	-0.0426429845392704	-0.6995875835418701	0.043554313480854	6	35.34761962890625	-117.80926106770833	0.2727817764	-9.884750160600001	-0.2799602442	0.3373879866	0.287138712	0.26560330860000003	0.028099800855999998	-0.0061086523599999994	0.063529984544	-0.886976322672	0.576656782784	-4.7109927000319995	0.01798	-0.8004	0.00232	-0.43442000000000003	1.19248	-1.20234	0.3050848815	-4.7988057243	-0.007178467799999977	-0.429438260908	0.285274065212	-2.3237313577439997	-0.20822000000000002	0.19604	-0.6000099999999999	12.70944	5.17792	-3.29504	0.9269183320996792	64.37
21762	0	2296219	4	-1384	-49	28	9	52	-2	-1382	-14	39	59	40	-726	472	-3856	-766	2019	-2088	448	192	-96	60.88	0.9273723168023686	67.86	0.92646434739699	3520.857177734375	-11748.5556640625	634.4000244140625	2	12	0.6000000238418579	23.23060607910156	9	0	0.0	0.0	0.0	0.0	0.3652086569535717	0.0	0.0	-0.1153630635999877	-0.2261217357	-0.0071784677999999	9.9278209674	-0.7119883298873901	-0.0420899875462055	-0.6996076107025146	0.0430154763162136	6	35.34761962890625	-117.80926106770833	0.0287138712	-9.9349994352	-0.35174492220000003	0.2799602442	0.4235296002	0.287138712	0.034208453215999995	0.010995574248	0.063529984544	-0.886976322672	0.576656782784	-4.7109927000319995	-0.00116	-0.80156	-0.00812	-0.44428	1.17102	-1.2110400000000001	0.1543370577	-4.7557349175	-0.03230310510000001	-0.426383934728	0.293826178516	-2.3237313577439997	-0.22272	0.18472999999999995	-0.60958	13.18016	5.64864	-2.82432	0.9269183320996793	64.37
21763	0	2296324	10	-1372	-29	33	-27	53	12	-1381	7	56	18	38	-719	480	-3874	-766	2019	-2088	544	144	-144	60.86	0.9272440167776956	67.86	0.9265630397236616	3520.857177734375	-11748.5556640625	634.4000244140625	2	12	0.6000000238418579	23.237762451171875	9	0	0.0	0.0	0.0	0.0	0.4081428722378762	0.0	0.0	-0.0547425353098761	-0.0789631458	-0.0789631458	9.881160926699998	-0.7120001912117004	-0.0425067134201526	-0.6995440125465393	0.0434407591819763	6	35.34761962890625	-117.80926106770833	0.071784678	-9.848857821600001	-0.2081755662	0.40199419680000004	0.1292124204	0.2727817764	0.040317105576	-0.032986722744	0.064751715016	-0.8784242093679999	0.58643062656	-4.732983848528	0.00696	-0.80098	0.00406	-0.44428	1.17102	-1.2110400000000001	0.2368894374	-4.8598227006000005	0.03230310510000001	-0.41905355189599997	0.276721951908	-2.3341160667559997	-0.21866	0.18501999999999996	-0.6034900000000001	16.00448	4.23648	-4.23648	0.9269035282506786	64.36
21764	0	2296430	30	-1370	-18	25	-20	53	10	-1369	15	42	28	40	-719	480	-3874	-768	2064	-2091	400	128	-224	60.89	0.9271749321490256	67.85	0.9263853935356526	3520.857177734375	-11748.5556640625	634.4000244140625	2	12	0.6000000238418579	23.244918823242188	9	0	0.0	0.0	0.0	0.0	0.3996224492685932	0.0	0.0	-0.0505466059744532	-0.0107677017	-0.1435693559999999	9.8309116521	-0.7118868231773376	-0.0421868339180946	-0.6996853947639465	0.0433331727981567	6	35.34761962890625	-117.80926106770833	0.215354034	-9.834500886	-0.1292124204	0.3014956476	0.20099709840000002	0.287138712	0.0305432618	-0.024434609439999998	0.064751715016	-0.8784242093679999	0.58643062656	-4.732983848528	0.0058	-0.7940200000000001	0.0087	-0.44544	1.19712	-1.21278	0.2584248408	-4.8167518938	0.07896314580000001	-0.42394047378399996	0.28099800856	-2.3341160667559997	-0.21982000000000002	0.20154999999999995	-0.60204	11.768	3.76576	-6.59008	0.9267801628423391	64.37
21765	0	2296535	3	-1367	10	45	-6	58	5	-1377	58	60	48	40	-719	486	-3856	-768	2064	-2091	480	144	-240	60.89	0.927461139896373	67.87	0.92653343202566	3520.857177734375	-11748.5556640625	634.4000244140625	2	12	0.6000000238418579	23.237762451171875	9	0	0.0	0.0	0.0	0.0	0.3946897194682794	0.0	0.0	-0.0473148042325682	0.2440679052	-0.0287138711999999	9.8488578216	-0.7118993401527405	-0.0425439588725566	-0.6996389627456665	0.043528489768505	6	35.34761962890625	-117.80926106770833	0.0215354034	-9.812965482600001	0.071784678	0.430708068	0.3445664544	0.287138712	0.05497787124	-0.007330382832	0.070860367376	-0.8784242093679999	0.5937610093919999	-4.7109927000319995	0.0029	-0.79866	0.03364	-0.44544	1.19712	-1.21278	0.2261217357	-4.7341995141	0.179461695	-0.41172316906399997	0.29321531327999995	-2.3200661663279996	-0.22127	0.19922999999999996	-0.5895699999999999	14.1216	4.23648	-7.0608	0.9269972859610165	64.38
21766	0	2296641	0	-1380	-56	42	-22	53	-8	-1393	-27	58	28	37	-720	458	-3846	-756	2051	-2071	512	192	-256	60.89	0.9273427091043672	67.86	0.9263360473723168	3520.857177734375	-11748.5556640625	634.4000244140625	2	12	0.6000000238418579	23.28070068359375	9	0	0.0	0.0	0.0	0.0	0.4953904105361127	0.0	0.0	0.0677379745974016	-0.2979064137	0.0287138711999999	9.952945604699998	-0.7118855118751526	-0.0421805866062641	-0.6996989250183105	0.0431431084871292	6	35.34761962890625	-117.80926106770833	0.0	-9.906285564000001	-0.40199419680000004	0.4163511324	0.20099709840000002	0.26560330860000003	0.051312679824	-0.026878070384	0.064751715016	-0.87964593984	0.559552556176	-4.6987753953119995	-0.00464	-0.80794	-0.01566	-0.43848	1.18958	-1.20118	0.2081755662	-4.8526442328	-0.0681954441	-0.41416663000799997	0.26633724289599997	-2.3170118401479995	-0.22155999999999998	0.19082000000000005	-0.60842	15.06304	5.64864	-7.53152	0.926839378238342	64.375
21767	0	2296746	26	-1383	-13	42	-16	53	15	-1381	28	61	42	39	-720	458	-3846	-756	2051	-2071	560	272	-80	60.88	0.9271551936836911	67.86	0.9265136935603256	3520.857177734375	-11748.5556640625	634.4000244140625	2	12	0.6000000238418579	23.238784790039062	9	0	0.0	0.0	0.0	0.0	0.503568042899226	0.0	0.0	0.0790949118235399	0.0538385085	-0.1471585898999999	9.9206424996	-0.7118531465530396	-0.0420629978179931	-0.6997408270835876	0.0431124791502952	6	35.34761962890625	-117.80926106770833	0.1866401628	-9.9278209674	-0.0933200814	0.43788653580000003	0.3014956476	0.2799602442	0.051312679824	-0.019547687552	0.064751715016	-0.87964593984	0.559552556176	-4.6987753953119995	0.0087	-0.80098	0.01624	-0.43848	1.18958	-1.20118	0.3122633493	-4.813162659900001	0.09332008139999999	-0.41416663000799997	0.270002434312	-2.3170118401479995	-0.21489	0.19430000000000003	-0.5924699999999999	16.4752	8.00224	-2.3536	0.9268344436220084	64.37
21768	0	2296852	12	-1375	-25	35	0	48	6	-1380	3	47	49	40	-709	431	-3857	-773	2039	-2078	432	144	-192	60.89	0.9272341475450284	67.86	0.9266913397483346	3520.857177734375	-11748.5556640625	634.4000244140625	2	12	0.6000000238418579	23.238784790039062	9	0	0.0	0.0	0.0	0.0	0.5748501240900816	0.0	0.0	0.1475050007836837	-0.0789631458	-0.0646062102	9.8883393945	-0.6817529201507568	-0.219852402806282	-0.6597640514373779	0.2271327972412109	6	35.34761962890625	-117.80926106770833	0.0861416136	-9.870393225	-0.179461695	0.3373879866	0.35174492220000003	0.287138712	0.042760566519999994	0.0	0.058643062656	-0.866206904648	0.5265658334319999	-4.712214430504	0.00348	-0.8004	0.00174	-0.44834	1.18262	-1.20524	0.2117648001	-4.7593241514	0.05383850850000001	-0.41172316906399997	0.26328291671599996	-2.3267856839239998	-0.22243000000000002	0.19111	-0.60175	12.70944	4.23648	-5.64864	0.9269627436466815	64.375
21769	0	2296957	-2	-1377	-44	28	-12	43	-15	-1371	6	51	42	38	-709	431	-3857	-770	2040	-2107	416	288	-160	60.88	0.927145324451024	67.86	0.9263952627683196	3520.857177734375	-11748.5556640625	634.4000244140625	2	12	0.6000000238418579	23.24696350097656	9	0	0.0	0.0	0.0	0.0	0.6255020296737978	0.0	0.0	0.1931427118902881	-0.1363908882	0.0610169762999999	9.8632147572	-0.6818519234657288	-0.2196504175662994	-0.6599270701408386	0.2265570014715194	6	35.34761962890625	-117.80926106770833	-0.0143569356	-9.884750160600001	-0.31585258320000004	0.36610185780000004	0.3014956476	0.2727817764	0.034208453215999995	-0.014660765664	0.052534410296	-0.866206904648	0.5265658334319999	-4.712214430504	-0.0087	-0.79518	0.00348	-0.4466	1.1832	-1.22206	0.17587246110000002	-4.791627256500001	-0.021535403400000014	-0.415999225716	0.25595253388399997	-2.3298400101039998	-0.22765	0.19401000000000002	-0.60929	12.23872	8.47296	-4.7072	0.9267702936096718	64.37
21770	0	2297062	42	-1374	-54	25	-17	55	36	-1372	-1	40	31	44	-684	448	-3828	-770	2040	-2107	528	224	-112	60.87	0.9273723168023686	67.85	0.9264347396989884	3520.857177734375	-11748.5556640625	634.4000244140625	2	12	0.6000000238418579	23.253097534179688	9	0	0.0	0.0	0.0	0.0	0.6266553434783513	0.0	0.0	0.1802096064807344	-0.1974078644999999	-0.2799602442	9.8560362894	-0.6819183230400085	-0.2194562405347824	-0.659919798374176	0.2265664488077163	6	35.34761962890625	-117.80926106770833	0.3014956476	-9.8632147572	-0.3876372612	0.287138712	0.2225325018	0.31585258320000004	0.0305432618	-0.020769418023999998	0.06719517595999999	-0.835663642848	0.5473352514559999	-4.676784246816	0.02088	-0.79576	-0.00058	-0.4466	1.1832	-1.22206	0.29431717980000005	-4.8203411277	-0.035892338999999995	-0.402560190524	0.26328291671599996	-2.304794535428	-0.21286	0.19372	-0.61132	15.533760000000001	6.59008	-3.29504	0.9269035282506786	64.36
21771	0	2297168	7	-1370	-32	27	-6	47	4	-1375	4	42	45	36	-684	448	-3828	-756	2028	-2098	432	208	-48	60.9	0.9273723168023686	67.86	0.9265630397236616	3520.857177734375	-11748.5556640625	634.4000244140625	2	12	0.6000000238418579	23.258209228515625	9	0	0.0	0.0	0.0	0.0	0.6169081700523732	0.0	0.0	0.1572365058350185	-0.1004985492	-0.0394815729	9.8524470555	-0.681818425655365	-0.2196853905916214	-0.659880518913269	0.2267590910196304	6	35.34761962890625	-117.80926106770833	0.050249274600000005	-9.834500886	-0.2297109696	0.3014956476	0.323031051	0.2584248408	0.032986722744	-0.007330382832	0.057421332183999994	-0.835663642848	0.5473352514559999	-4.676784246816	0.00232	-0.7975	0.00232	-0.43848	1.17624	-1.21684	0.17587246110000002	-4.755734917500001	0.014356935599999995	-0.401338460052	0.27000243431199994	-2.309681457316	-0.21808	0.18936999999999998	-0.6072599999999999	12.70944	6.11936	-1.41216	0.9269676782630152	64.38
21772	0	2297273	13	-1378	-35	33	-26	53	6	-1377	4	48	22	39	-718	488	-3883	-756	2028	-2098	496	224	-64	60.87	0.927086109055021	67.86	0.92646434739699	3520.857177734375	-11748.5556640625	634.4000244140625	2	12	0.6000000238418579	23.232650756835938	9	0	0.0	0.0	0.0	0.0	0.6840067826964692	0.0	0.0	0.2176905988221245	-0.1112662508999999	-0.0681954441	9.8883393945	-0.6817361116409302	-0.2199042588472366	-0.6598459482192993	0.2268951088190078	6	35.34761962890625	-117.80926106770833	0.0933200814	-9.8919286284	-0.251246373	0.3445664544	0.15792629160000002	0.2799602442	0.040317105576	-0.031764992272	0.064751715016	-0.877202478896	0.596204470336	-4.7439794227759995	0.00348	-0.79866	0.00232	-0.43848	1.17624	-1.21684	0.21894326790000002	-4.8670011684	0.014356935599999981	-0.41844268666	0.282219739032	-2.3396138538799995	-0.2175	0.18878999999999996	-0.6072599999999999	14.59232	6.59008	-1.88288	0.9267752282260056	64.365
21773	0	2297379	1	-1375	-41	33	-7	50	4	-1373	5	44	46	35	-718	488	-3883	-757	2055	-2086	416	144	-208	60.89	0.9275697014557118	67.87	0.9265235627929927	3520.857177734375	-11748.5556640625	634.4000244140625	2	12	0.6000000238418579	23.26434326171875	9	0	0.0	0.0	0.0	0.0	0.5538464429484575	0.0	0.0	0.0630372368437147	-0.1292124204	-0.0179461694999999	9.863214757199998	-0.6819440722465515	-0.2193271368741989	-0.6600643992424011	0.2261921465396881	6	35.34761962890625	-117.80926106770833	0.0071784678	-9.870393225	-0.2943171798	0.31585258320000004	0.3302095188	0.251246373	0.040317105576	-0.008552113303999999	0.0610865236	-0.877202478896	0.596204470336	-4.7439794227759995	0.00232	-0.79634	0.0029	-0.43906	1.1919	-1.20988	0.1615155255	-4.7700918531	-0.021535403399999986	-0.41844268666	0.293826178516	-2.3414464495879996	-0.21837	0.19777999999999996	-0.6034900000000001	12.23872	4.23648	-6.11936	0.9270466321243522	64.38
21774	0	2297484	25	-1375	-57	26	-36	50	18	-1380	-4	45	18	40	-719	462	-3844	-757	2055	-2086	544	224	-96	60.89	0.9273525783370344	67.86	0.9266222551196645	3520.857177734375	-11748.5556640625	634.4000244140625	2	12	0.6000000238418579	23.22344970703125	9	0	0.0	0.0	0.0	0.0	0.4548816125578306	0.0	0.0	-0.0413505912210674	-0.2189432679	-0.1543370577	9.8883393945	-0.681729793548584	-0.2198872417211532	-0.6598796248435974	0.2268329113721847	6	35.34761962890625	-117.80926106770833	0.179461695	-9.870393225	-0.4091726646	0.323031051	0.1292124204	0.287138712	0.031764992272	-0.043982296992	0.0610865236	-0.8784242093679999	0.564439478064	-4.696331934368	0.01044	-0.8004	-0.00232	-0.43906	1.1919	-1.20988	0.251246373	-4.8705904023	-0.0610169763	-0.42332960854799995	0.260228590536	-2.3176227053839997	-0.21431	0.19574999999999998	-0.6061000000000001	16.00448	6.59008	-2.82432	0.9269874167283494	64.375
21775	0	2297590	0	-1377	-24	29	10	41	-3	-1377	12	42	63	29	-719	462	-3844	-756	2034	-2082	544	224	-64	60.89	0.9271749321490256	67.86	0.926405132000987	3520.857177734375	-11748.5556640625	634.4000244140625	2	12	0.6000000238418579	23.238784790039062	9	0	0.0	0.0	0.0	0.0	0.4354822649468141	0.0	0.0	-0.0457229615791265	-0.0430708068	0.0107677017	9.8847501606	-0.6816888451576233	-0.21957927942276	-0.6602159142494202	0.2262748628854751	6	35.34761962890625	-117.80926106770833	0.0	-9.884750160600001	-0.1722832272	0.3014956476	0.45224347140000004	0.2081755662	0.035430183688	0.012217304719999999	0.050090949351999994	-0.8784242093679999	0.564439478064	-4.696331934368	-0.00174	-0.79866	0.00696	-0.43848	1.17972	-1.20756	0.1507478238	-4.716253344600001	0.017946169499999998	-0.42149701283999996	0.288328391392	-2.323120492508	-0.22011	0.19053000000000003	-0.6003	16.00448	6.59008	-1.88288	0.9267900320750062	64.375
21776	0	2297695	10	-1382	-62	30	-38	55	7	-1378	-23	49	16	47	-725	486	-3851	-756	2034	-2082	560	160	-80	60.88	0.9269380705650136	67.86	0.9264544781643228	3520.857177734375	-11748.5556640625	634.2999877929688	2	12	0.6000000238418579	23.23060607910156	9	0	0.0	0.0	0.0	0.0	0.5197661978508809	0.0	0.0	0.0570183112980689	-0.3050848814999999	-0.0610169763	9.906285564	-0.6818186044692993	-0.2193296253681183	-0.6602054834365845	0.2261564433574676	6	35.34761962890625	-117.80926106770833	0.071784678	-9.9206424996	-0.4450650036	0.35174492220000003	0.1148554848	0.3373879866	0.03665191416	-0.046425757936	0.06719517595999999	-0.8857545922	0.5937610093919999	-4.7048840476719995	0.00406	-0.79924	-0.01334	-0.43848	1.17972	-1.20756	0.2117648001	-4.9028935074	-0.05383850849999999	-0.42455133902	0.27366762572799996	-2.3188444358559996	-0.21721	0.19024000000000008	-0.6104499999999999	16.4752	4.7072	-2.3536	0.9266962743646683	64.37
21777	0	2297801	3	-1375	-39	21	-10	50	3	-1366	4	39	41	40	-725	486	-3851	-764	2065	-2104	416	112	-192	60.88	0.9273229706390328	67.85	0.9264347396989884	3520.857177734375	-11748.5556640625	634.2999877929688	2	12	0.6000000238418579	23.251052856445312	9	0	0.0	0.0	0.0	0.0	0.4238114414044724	0.0	0.0	-0.0397836482425038	-0.1256231864999999	-0.0215354034	9.8380901199	-0.6814747452735901	-0.2197950184345245	-0.660193920135498	0.2267739474773407	6	35.34761962890625	-117.80926106770833	0.0215354034	-9.870393225	-0.2799602442	0.2799602442	0.2943171798	0.287138712	0.025656339912	-0.012217304719999999	0.0610865236	-0.8857545922	0.5937610093919999	-4.7048840476719995	0.00174	-0.79228	0.00232	-0.44312	1.1977	-1.22032	0.15074782379999999	-4.7880380226	0.003589233900000016	-0.430049126144	0.29077185233599995	-2.3218987620359997	-0.22069	0.20271	-0.609	12.23872	3.29504	-5.64864	0.9268788551690106	64.365
21778	0	2297906	3	-1379	-57	25	-7	47	-1	-1383	-4	46	43	37	-700	468	-3843	-764	2065	-2104	400	80	-240	60.88	0.927451270663706	67.86	0.9266716012830004	3520.857177734375	-11748.5556640625	634.2999877929688	2	12	0.6000000238418579	23.335906982421875	9	0	0.0	0.0	0.0	0.0	0.3830011580110986	0.0	0.0	-0.0745236176610794	-0.2189432679	-0.0071784678	9.9134640318	-0.518897294998169	-0.4809833168983459	-0.5090582966804504	0.490163654088974	6	35.34761962890625	-117.80926106770833	0.0215354034	-9.8991070962	-0.4091726646	0.3302095188	0.3086741154	0.26560330860000003	0.0305432618	-0.008552113303999999	0.057421332183999994	-0.8552113304	0.571769860896	-4.695110203895999	-0.00058	-0.80214	-0.00232	-0.44312	1.1977	-1.22032	0.1758724611	-4.7952164904	-0.07178467799999999	-0.4123340343	0.281608873796	-2.3188444358559996	-0.22185000000000002	0.19778	-0.6113200000000001	11.768	2.3536	-7.0608	0.9270614359733532	64.37
21779	0	2298011	18	-1372	-54	25	-19	54	6	-1373	-7	42	34	42	-700	468	-3843	-748	2029	-2084	448	160	-176	60.88	0.9274414014310388	67.86	0.9265729089563286	3520.857177734375	-11748.5556640625	634.2999877929688	2	12	0.6000000238418579	23.184600830078125	9	0	0.0	0.0	0.0	0.0	0.4298455444077765	0.0	0.0	-0.0108833216627986	-0.2189432679	-0.0861416136	9.8524470555	-0.5190788507461548	-0.4808545708656311	-0.5091140270233154	0.4900397360324859	6	35.34761962890625	-117.80926106770833	0.1292124204	-9.848857821600001	-0.3876372612	0.3014956476	0.24406790520000002	0.3014956476	0.0305432618	-0.023212878968	0.065973445488	-0.8552113304	0.571769860896	-4.695110203895999	0.00348	-0.79634	-0.00406	-0.43384	1.17682	-1.20872	0.21535403400000003	-4.802394958200001	-0.0430708068	-0.4123340343	0.27427849096400003	-2.3145683792039997	-0.21518	0.19023999999999996	-0.60639	13.18016	4.7072	-5.17792	0.9270071551936837	64.37
21780	0	2298117	50	-1371	-43	21	-16	51	32	-1375	1	40	32	39	-717	473	-3823	-748	2029	-2084	416	128	-144	60.87	0.9272538860103628	67.86	0.9264544781643228	3520.857177734375	-11748.5556640625	634.2999877929688	2	12	0.6000000238418579	23.217315673828125	9	0	0.0	0.0	0.0	0.0	0.4257382664135586	0.0	0.0	-0.0061926628975873	-0.1507478237999999	-0.2943171797999999	9.8560362894	-0.5186354517936707	-0.4812387824058532	-0.508669912815094	0.4905929565429687	6	35.34761962890625	-117.80926106770833	0.35892339	-9.8416793538	-0.3086741154	0.287138712	0.2297109696	0.2799602442	0.025656339912	-0.019547687552	0.062308254072	-0.875980748424	0.5778785132559999	-4.670675594456	0.01856	-0.7975	0.00058	-0.43384	1.17682	-1.20872	0.323031051	-4.8059841921	-0.01435693560000001	-0.425162204256	0.27916541285199997	-2.304183670192	-0.20764	0.18966	-0.60407	12.23872	3.76576	-4.23648	0.9268541820873428	64.365
21781	0	2298222	-18	-1387	-35	27	-5	49	-32	-1378	10	45	49	34	-717	473	-3823	-766	2030	-2093	496	144	-144	60.9	0.9273624475697014	67.87	0.926415001233654	3520.857177734375	-11748.5556640625	634.2999877929688	2	12	0.6000000238418579	23.243896484375	9	0	0.0	0.0	0.0	0.0	0.3518025091688133	0.0	0.0	-0.0721324407379354	-0.0897308474999999	0.1794616949999999	9.9242317335	-0.5188210010528564	-0.4809254109859466	-0.5092204213142395	0.4901328086853027	6	35.34761962890625	-117.80926106770833	-0.1292124204	-9.9565348386	-0.251246373	0.323031051	0.35174492220000003	0.24406790520000002	0.032986722744	-0.0061086523599999994	0.059864793128	-0.875980748424	0.5778785132559999	-4.670675594456	-0.01856	-0.79924	0.0058	-0.44428	1.1774	-1.21394	0.0969093153	-4.8023949582	-0.0035892339000000023	-0.42149701283999996	0.28588493044799995	-2.305405400664	-0.23142000000000001	0.18908000000000003	-0.60407	14.59232	4.23648	-4.23648	0.9268887244016777	64.385
21782	0	2298328	24	-1382	-69	30	-13	58	27	-1375	-20	48	38	48	-715	485	-3850	-760	2025	-2104	432	160	-80	60.87	0.9273723168023686	67.85	0.9266123858869972	3520.857177734375	-11748.5556640625	634.2999877929688	2	12	0.6000000238418579	23.152908325195312	9	0	0.0	0.0	0.0	0.0	0.2614817036275011	0.0	0.0	-0.1501462188785302	-0.3194418170999999	-0.1830509289	9.8955178623	-0.5186957716941833	-0.481125921010971	-0.5087891221046448	0.4905163049697876	6	35.34761962890625	-117.80926106770833	0.1722832272	-9.9206424996	-0.4953142782	0.3445664544	0.2727817764	0.3445664544	0.03665191416	-0.015882496136	0.070860367376	-0.8735372874799999	0.5925392789199999	-4.7036623172	0.01566	-0.7975	-0.0116	-0.4408	1.1745	-1.22032	0.2584248408	-4.8239303615999996	-0.0753739119	-0.41844268665999995	0.28832839139199995	-2.316400974912	-0.21257	0.18850000000000006	-0.6159600000000001	12.70944	4.7072	-2.3536	0.9269923513446829	64.36
21783	0	2298433	8	-1385	-47	24	-16	45	3	-1383	1	42	37	35	-745	486	-3865	-760	2025	-2104	608	256	-160	60.88	0.9273229706390328	67.86	0.9264544781643228	3520.857177734375	-11748.5556640625	634.2999877929688	2	12	0.6000000238418579	23.171310424804688	9	0	0.0	0.0	0.0	0.0	0.2784585828873849	0.0	0.0	-0.1087754775890322	-0.1651047594	-0.0394815729	9.934999435199998	-0.5184454917907715	-0.4812017679214477	-0.5088447332382202	0.4906489253044128	6	35.34761962890625	-117.80926106770833	0.0574277424	-9.942177903000001	-0.3373879866	0.3014956476	0.26560330860000003	0.251246373	0.029321531328	-0.019547687552	0.05497787124	-0.91018920164	0.5937610093919999	-4.72198827428	0.00174	-0.80214	0.00058	-0.4408	1.1745	-1.22032	0.179461695	-4.838287297200001	-0.0430708068	-0.440433835156	0.28710666092	-2.33350520152	-0.21953	0.18618000000000007	-0.60987	17.88736	7.53152	-4.7072	0.9268887244016778	64.37
21784	0	2298539	16	-1379	1	34	-7	51	8	-1369	32	51	45	36	-745	486	-3865	-766	2039	-2111	432	160	-144	60.88	0.9272834937083642	67.87	0.926296570441648	3520.857177734375	-11748.5556640625	634.2999877929688	2	12	0.6000000238418579	23.221405029296875	9	0	0.0	0.0	0.0	0.0	0.3391988797400768	0.0	0.0	-0.0236810735746422	0.1184447186999999	-0.0861416136	9.8632147572	-0.5185719728469849	-0.4810874760150909	-0.509082555770874	0.4903804063796997	6	35.34761962890625	-117.80926106770833	0.1148554848	-9.8991070962	0.0071784678	0.36610185780000004	0.323031051	0.2584248408	0.041538836047999995	-0.008552113303999999	0.062308254072	-0.91018920164	0.5937610093919999	-4.72198827428	0.00464	-0.7940200000000001	0.01856	-0.44428	1.18262	-1.22438	0.24047867130000003	-4.7880380226	0.1328016543	-0.43432518279599996	0.292604448044	-2.329840010104	-0.21982000000000002	0.19429999999999997	-0.6029100000000001	12.70944	4.7072	-4.23648	0.9267900320750061	64.375
21785	0	2298644	8	-1374	-47	28	-4	52	5	-1381	2	46	40	43	-724	482	-3880	-766	2039	-2111	400	144	-208	60.9	0.9274808783617072	67.87	0.92653343202566	3520.857177734375	-11748.5556640625	634.2999877929688	2	12	0.6000000238418579	23.216293334960938	9	0	0.0	0.0	0.0	0.0	0.2983838124607371	0.0	0.0	-0.0579442137539753	-0.1615155254999999	-0.0466600406999999	9.8883393945	-0.5186352729797363	-0.4809887111186981	-0.5091286897659302	0.4903625547885895	6	35.34761962890625	-117.80926106770833	0.0574277424	-9.8632147572	-0.3373879866	0.3302095188	0.287138712	0.3086741154	0.034208453215999995	-0.004886921888	0.063529984544	-0.8845328617279999	0.5888740875039999	-4.740314231359999	0.0029	-0.80098	0.00116	-0.44428	1.18262	-1.22438	0.19381863059999999	-4.788038022599999	-0.01435693560000001	-0.425162204256	0.291993582808	-2.3383921234079996	-0.22069	0.19082	-0.61161	11.768	4.23648	-6.11936	0.9270071551936836	64.385
21786	0	2298750	3	-1373	-41	29	-11	47	1	-1377	2	44	44	38	-724	482	-3880	-766	2033	-2131	432	224	-112	60.88	0.9273328398717	67.87	0.9263557858376512	3520.857177734375	-11748.5556640625	634.2999877929688	2	12	0.6000000238418579	23.2275390625	9	0	0.0	0.0	0.0	0.0	0.359820064493999	0.0	0.0	0.023010545998509	-0.1399801221	-0.0143569355999999	9.870393225	-0.5182777047157288	-0.4812984764575958	-0.5087945461273193	0.4907833039760589	6	35.34761962890625	-117.80926106770833	0.0215354034	-9.8560362894	-0.2943171798	0.31585258320000004	0.31585258320000004	0.2727817764	0.035430183688	-0.013439035192	0.057421332183999994	-0.8845328617279999	0.5888740875039999	-4.740314231359999	0.00058	-0.79866	0.00116	-0.44428	1.17914	-1.23598	0.1686939933	-4.7700918531	-0.010767701699999993	-0.42455133902	0.287717526156	-2.3414464495879996	-0.22185	0.19024000000000002	-0.61741	12.70944	6.59008	-3.29504	0.9268443128546756	64.375
21787	0	2298855	5	-1382	-1	37	-22	48	1	-1388	23	49	28	38	-718	490	-3826	-766	2033	-2131	432	112	-144	60.89	0.9273525783370344	67.88	0.9265433012583272	3520.857177734375	-11748.5556640625	634.2999877929688	2	12	0.6000000238418579	23.26332092285156	9	0	0.0	0.0	0.0	0.0	0.4521590952202142	0.0	0.0	0.1229278254447627	0.0789631458	-0.0215354033999999	9.942177903	-0.5180065631866455	-0.4813857972621918	-0.5088170170783997	0.4909603595733642	6	35.34761962890625	-117.80926106770833	0.035892339	-9.9206424996	-0.0071784678	0.35174492220000003	0.20099709840000002	0.2727817764	0.045204027464	-0.026878070384	0.058643062656	-0.877202478896	0.5986479312799999	-4.674340785871999	0.00058	-0.80504	0.01334	-0.44428	1.17914	-1.23598	0.1938186306	-4.8598227006	0.13280165430000002	-0.415999225716	0.28588493044799995	-2.3078488616079995	-0.22185	0.18705000000000005	-0.6113200000000001	12.70944	3.29504	-4.23648	0.9269479397976808	64.38499999999999
21788	0	2298961	48	-1372	-67	24	-9	50	38	-1373	-14	35	41	45	-718	490	-3826	-755	2034	-2079	432	176	-144	60.89	0.9272341475450284	67.87	0.9265235627929927	3520.857177734375	-11748.5556640625	634.2999877929688	2	12	0.6000000238418579	23.234695434570312	9	0	0.0	0.0	0.0	0.0	0.605723023406418	0.0	0.0	0.274086863354579	-0.2907279458999999	-0.3086741154	9.8524470555	-0.094758003950119	-0.6978105902671814	-0.0937481075525283	0.7037703394889832	6	35.34761962890625	-117.80926106770833	0.3445664544	-9.848857821600001	-0.4809573426	0.251246373	0.2943171798	0.323031051	0.029321531328	-0.010995574248	0.0610865236	-0.877202478896	0.5986479312799999	-4.674340785871999	0.02204	-0.79634	-0.00812	-0.4379	1.17972	-1.2058200000000001	0.29790641370000004	-4.7772703209000005	-0.0789631458	-0.423940473784	0.29382617851599996	-2.3066271311359996	-0.20793	0.19169000000000003	-0.60697	12.70944	5.17792	-4.23648	0.9268788551690106	64.38
21789	0	2299066	1	-1378	-56	21	-16	50	-15	-1384	-7	38	34	39	-707	481	-3866	-755	2034	-2079	512	128	-176	60.9	0.9272538860103628	67.87	0.9264248704663212	3520.857177734375	-11748.5556640625	634.2999877929688	2	12	0.6000000238418579	23.236740112304688	9	0	0.0	0.0	0.0	0.0	0.7140433471937679	0.0	0.0	0.3611416398892921	-0.2261217357	0.0502492745999999	9.9134640318	-0.0942230373620987	-0.6977856159210205	-0.093532457947731	0.703895628452301	6	35.34761962890625	-117.80926106770833	0.0071784678	-9.8919286284	-0.40199419680000004	0.2727817764	0.24406790520000002	0.2799602442	0.025656339912	-0.019547687552	0.0610865236	-0.8637634437039999	0.5876523570319999	-4.723210004752	-0.0087	-0.80272	-0.00406	-0.4379	1.17972	-1.2058200000000001	0.1399801221	-4.8239303616	-0.061016976300000025	-0.41905355189599997	0.28405233473999997	-2.3310617405759997	-0.2233	0.18850000000000006	-0.60494	15.06304	3.76576	-5.17792	0.926839378238342	64.385
21790	0	2299171	23	-1376	-11	31	-32	51	10	-1378	23	48	17	40	-707	481	-3866	-771	2035	-2116	496	240	-80	60.89	0.9272341475450284	67.86	0.9265136935603256	3520.857177734375	-11748.5556640625	634.2999877929688	2	12	0.6000000238418579	23.25923156738281	9	0	0.0	0.0	0.0	0.0	0.6753506822052696	0.0	0.0	0.2889580930699368	0.0430708068	-0.1184447186999999	9.8847501606	-0.0941137373447418	-0.6976213455200195	-0.0932937040925026	0.7041046619415283	6	35.34761962890625	-117.80926106770833	0.1651047594	-9.8775716928	-0.07896314580000001	0.3445664544	0.12203395260000001	0.287138712	0.037873644632	-0.039095375104	0.062308254072	-0.8637634437039999	0.5876523570319999	-4.723210004752	0.0058	-0.79924	0.01334	-0.44718	1.1803	-1.22728	0.2548356069	-4.8777688701	0.1040877831	-0.41294489953599994	0.274278490964	-2.33045087534	-0.22069	0.19052999999999998	-0.60697	14.59232	7.0608	-2.3536	0.926873920552677	64.375
21791	0	2299277	14	-1374	-60	28	-3	52	7	-1377	-3	47	53	43	-712	455	-3818	-771	2035	-2116	496	160	-96	60.88	0.927145324451024	67.86	0.92646434739699	3520.857177734375	-11748.5556640625	634.2999877929688	2	12	0.6000000238418579	23.222427368164062	9	0	0.0	0.0	0.0	0.0	0.7698031213240274	0.0	0.0	0.3624174527561316	-0.2261217356999999	-0.0753739118999999	9.8739824589	-0.0942865088582038	-0.6975939273834229	-0.0935702994465828	0.7040720582008362	6	35.34761962890625	-117.80926106770833	0.10049854920000001	-9.8632147572	-0.430708068	0.3373879866	0.3804587934	0.3086741154	0.034208453215999995	-0.003665191416	0.063529984544	-0.869872096064	0.55588736476	-4.664566942096	0.00406	-0.79866	-0.00174	-0.44718	1.1803	-1.22728	0.21894326790000002	-4.7413779818999995	-0.0610169763	-0.417831821424	0.276111086672	-2.300518478776	-0.22156	0.19081999999999993	-0.61451	14.59232	4.7072	-2.82432	0.9268048359240071	64.37
21792	0	2299382	-8	-1380	-63	23	-10	49	-20	-1389	-14	43	42	36	-712	455	-3818	-756	2058	-2083	400	176	-240	60.88	0.9271551936836911	67.87	0.926415001233654	3520.857177734375	-11748.5556640625	634.2999877929688	2	12	0.6000000238418579	23.23162841796875	9	0	0.0	0.0	0.0	0.0	0.807378796121833	0.0	0.0	0.3710958126188359	-0.2763710103	0.1004985491999999	9.9385886691	-0.0940329432487487	-0.6976427435874939	-0.0934320464730262	0.7040759921073914	6	35.34761962890625	-117.80926106770833	-0.0574277424	-9.906285564000001	-0.45224347140000004	0.3086741154	0.3014956476	0.2584248408	0.028099800855999998	-0.012217304719999999	0.059864793128	-0.869872096064	0.55588736476	-4.664566942096	-0.0116	-0.80562	-0.00812	-0.43848	1.19364	-1.20814	0.1256231865	-4.802394958200001	-0.09690931530000002	-0.420886147604	0.27183503002	-2.302351074484	-0.22504	0.19401000000000002	-0.60813	11.768	5.17792	-7.0608	0.9267850974586725	64.375
21793	0	2299488	2	-1373	-31	36	-20	50	-6	-1378	4	53	29	38	-697	469	-3861	-756	2058	-2083	432	208	-176	60.89	0.9273427091043672	67.88	0.9265433012583272	3520.857177734375	-11748.5556640625	634.2999877929688	2	12	0.6000000238418579	23.200958251953125	9	0	0.0	0.0	0.0	0.0	0.7055422677491273	0.0	0.0	0.2369011132248484	-0.0969093152999999	0.0143569356	9.8739824589	-0.094315692782402	-0.6976301074028015	-0.0937331393361091	0.7040106654167175	6	35.34761962890625	-117.80926106770833	0.0143569356	-9.8560362894	-0.2225325018	0.3804587934	0.2081755662	0.2727817764	0.043982296992	-0.024434609439999998	0.0610865236	-0.851546138984	0.5729915913679999	-4.717101352392	-0.00348	-0.79924	0.00232	-0.43848	1.19364	-1.20814	0.1974078645	-4.8239303616	0.025124637300000002	-0.403781920996	0.274278490964	-2.3280074143959997	-0.22097999999999998	0.19720000000000004	-0.60291	12.70944	6.11936	-5.17792	0.9269430051813472	64.38499999999999
21794	0	2299593	20	-1367	-59	26	-14	54	15	-1378	-9	45	43	40	-697	469	-3861	-750	2043	-2097	448	128	-128	60.89	0.9272933629410314	67.88	0.9263755243029854	3520.857177734375	-11748.5556640625	634.2999877929688	2	12	0.6000000238418579	23.236740112304688	9	0	0.0	0.0	0.0	0.0	0.7446622565442896	0.0	0.0	0.2588240281676596	-0.2440679052	-0.1256231864999999	9.8524470555	-0.0943560972809791	-0.6975805163383484	-0.0935756042599678	0.704075276851654	6	35.34761962890625	-117.80926106770833	0.143569356	-9.812965482600001	-0.4235296002	0.323031051	0.3086741154	0.287138712	0.031764992272	-0.017104226607999998	0.065973445488	-0.851546138984	0.5729915913679999	-4.717101352392	0.0087	-0.79924	-0.00522	-0.435	1.18494	-1.21626	0.23330020350000003	-4.7521456836	-0.0681954441	-0.409890573356	0.27794368237999995	-2.325563953452	-0.21315	0.19285000000000008	-0.61074	13.18016	3.76576	-3.76576	0.9268344436220084	64.38499999999999
21795	0	2299699	25	-1380	-28	26	-25	49	14	-1384	9	39	30	38	-719	499	-3840	-750	2043	-2097	416	80	-112	60.88	0.9270466321243525	67.86	0.9265729089563286	3520.857177734375	-11748.5556640625	634.2000122070312	2	12	0.6000000238418579	23.24287414550781	9	0	0.0	0.0	0.0	0.0	0.773719937640758	0.0	0.0	0.269169728333109	-0.0681954441	-0.1399801221	9.9206424996	-0.093994066119194	-0.6974828839302063	-0.093314491212368	0.7042550444602966	6	35.34761962890625	-117.80926106770833	0.179461695	-9.906285564000001	-0.20099709840000002	0.2799602442	0.215354034	0.2727817764	0.031764992272	-0.0305432618	0.059864793128	-0.8784242093679999	0.609643505528	-4.69144501248	0.00812	-0.80272	0.00522	-0.435	1.18494	-1.21626	0.22971096959999998	-4.845465765	0.035892338999999995	-0.42332960854799995	0.289550121864	-2.315790109676	-0.21344	0.19111000000000006	-0.60552	12.23872	2.3536	-3.29504	0.9268097705403405	64.37
21796	0	2299804	1	-1382	-51	21	-2	53	-12	-1384	-11	41	48	43	-719	499	-3840	-751	2054	-2121	448	128	-192	60.9	0.9273723168023686	67.87	0.9264248704663212	3520.857177734375	-11748.5556640625	634.2000122070312	2	12	0.6000000238418579	23.21424865722656	9	0	0.0	0.0	0.0	0.0	0.6589785889199316	0.0	0.0	0.1303334212769893	-0.2225325018	0.0394815729	9.9278209674	-0.0942094773054122	-0.6973283290863037	-0.093722254037857	0.704325258731842	6	35.34761962890625	-117.80926106770833	0.0071784678	-9.9206424996	-0.36610185780000004	0.2943171798	0.3445664544	0.3086741154	0.025656339912	-0.002443460944	0.064751715016	-0.8784242093679999	0.609643505528	-4.69144501248	-0.00696	-0.80272	-0.00638	-0.43558	1.19132	-1.23018	0.15074782379999999	-4.788038022599999	-0.02871387120000002	-0.42638393472799996	0.30360002229199995	-2.313346648732	-0.22127000000000002	0.19429999999999997	-0.61828	13.18016	3.76576	-5.64864	0.9268985936343449	64.385
21797	0	2299910	42	-1366	-50	28	-32	46	24	-1377	-5	44	16	36	-715	480	-3882	-766	2016	-2101	480	176	-144	60.9	0.9273032321736984	67.87	0.926474216629657	3520.857177734375	-11748.5556640625	634.2000122070312	2	12	0.6000000238418579	23.20709228515625	9	0	0.0	0.0	0.0	0.0	0.5727891536001891	0.0	0.0	0.0374735901751614	-0.1974078644999999	-0.2368894373999999	9.8452685877	-0.6709596514701843	-0.2484824806451797	-0.6497890949249268	0.2566003501415252	6	35.34761962890625	-117.80926106770833	0.3014956476	-9.8057870148	-0.35892339	0.31585258320000004	0.1148554848	0.2584248408	0.034208453215999995	-0.039095375104	0.056199601711999995	-0.8735372874799999	0.58643062656	-4.742757692304	0.01392	-0.79866	-0.0029	-0.44428	1.16928	-1.21858	0.3086741154	-4.845465765	-0.050249274600000005	-0.419664417132	0.273667625728	-2.343279045296	-0.21518	0.18531000000000003	-0.61074	14.1216	5.17792	-4.23648	0.9268887244016777	64.385
21798	0	2300015	0	-1377	-11	26	-11	53	-16	-1384	18	46	47	42	-715	480	-3882	-766	2016	-2101	528	160	-64	60.88	0.927145324451024	67.86	0.9264544781643228	3520.857177734375	-11748.5556640625	634.2000122070312	2	12	0.6000000238418579	23.189712524414062	9	0	0.0	0.0	0.0	0.0	0.6385009049998158	0.0	0.0	0.1109895806867816	0.0251246373	0.0574277423999999	9.9098747979	-0.6708467602729797	-0.2480815351009369	-0.6502448916435242	0.2561283111572265	6	35.34761962890625	-117.80926106770833	0.0	-9.884750160600001	-0.07896314580000001	0.3302095188	0.3373879866	0.3014956476	0.031764992272	-0.013439035192	0.064751715016	-0.8735372874799999	0.58643062656	-4.742757692304	-0.00928	-0.80272	0.01044	-0.44428	1.16928	-1.21858	0.1651047594	-4.773681087000001	0.1112662509	-0.42088614760399995	0.286495795684	-2.339002988644	-0.22678	0.18328000000000005	-0.60407	15.533760000000001	4.7072	-1.88288	0.9267999013076734	64.37
21799	0	2300120	9	-1382	-65	34	-15	56	4	-1381	-27	48	33	41	-716	477	-3900	-732	2035	-2056	400	128	-176	60.87	0.9271946706143598	67.86	0.926227485812978	3520.857177734375	-11748.5556640625	634.2000122070312	2	12	0.6000000238418579	23.225494384765625	9	0	0.0	0.0	0.0	0.0	0.7112886130676108	0.0	0.0	0.1864804561879209	-0.3302095187999999	-0.0466600407	9.917053265699998	-0.6708177328109741	-0.2483558058738708	-0.6500315070152283	0.2564800083637237	6	35.34761962890625	-117.80926106770833	0.0646062102	-9.9206424996	-0.466600407	0.3445664544	0.2368894374	0.2943171798	0.041538836047999995	-0.01832595708	0.06841690643199999	-0.874759017952	0.5827654351439999	-4.764748840799999	0.00232	-0.80098	-0.01566	-0.42456	1.1803	-1.19248	0.2045863323	-4.8418765311	-0.0861416136	-0.41661009095199997	0.282219739032	-2.348165967184	-0.21112	0.18965999999999994	-0.60407	11.768	3.76576	-5.17792	0.9267110782136689	64.365
21800	0	2300226	3	-1375	-54	24	-35	49	-4	-1375	-6	41	14	37	-716	477	-3900	-732	2035	-2056	400	144	-128	60.89	0.9272933629410314	67.87	0.926474216629657	3520.857177734375	-11748.5556640625	634.2000122070312	2	12	0.6000000238418579	23.244918823242188	9	0	0.0	0.0	0.0	0.0	0.6821364454382861	0.0	0.0	0.1425802751418324	-0.2153540339999999	0.0035892338999999	9.870393225	-0.670707106590271	-0.2480900138616562	-0.6502923369407654	0.2563656568527221	6	35.34761962890625	-117.80926106770833	0.0215354034	-9.870393225	-0.3876372612	0.2943171798	0.10049854920000001	0.26560330860000003	0.029321531328	-0.042760566519999994	0.059864793128	-0.874759017952	0.5827654351439999	-4.764748840799999	-0.00232	-0.7975	-0.00348	-0.42456	1.1803	-1.19248	0.1579262916	-4.884947337900001	-0.0610169763	-0.422718743312	0.27000243431199994	-2.3524420238359998	-0.21344	0.19139999999999996	-0.59798	11.768	4.23648	-3.76576	0.9268837897853441	64.38
21801	0	2300331	33	-1373	-46	25	-4	52	21	-1378	-1	42	47	41	-702	484	-3867	-729	2024	-2095	448	160	-128	60.89	0.9271255859856896	67.86	0.9263360473723168	3520.857177734375	-11748.5556640625	634.0999755859375	2	12	0.6000000238418579	23.25718688964844	9	0	0.0	0.0	0.0	0.0	0.7844756761974967	0.0	0.0	0.2399281977064832	-0.1686939932999999	-0.1938186305999999	9.8739824589	-0.6706982254981995	-0.2477971911430359	-0.6504430770874023	0.2562893331050873	6	35.34761962890625	-117.80926106770833	0.2368894374	-9.8560362894	-0.3302095188	0.3014956476	0.3373879866	0.2943171798	0.0305432618	-0.004886921888	0.063529984544	-0.8576547913439999	0.591317548448	-4.724431735224	0.01218	-0.79924	-0.00058	-0.42282000000000003	1.17392	-1.2151	0.2691925425	-4.7593241514	-0.017946169499999998	-0.41355576477199996	0.29321531328	-2.33045087534	-0.20532	0.18734000000000006	-0.60784	13.18016	4.7072	-3.76576	0.9267308166790031	64.375
21802	0	2300437	-14	-1373	-66	25	-21	57	-22	-1383	-9	46	34	44	-707	471	-3854	-729	2024	-2095	432	240	-80	60.9	0.9272538860103628	67.87	0.926415001233654	3520.857177734375	-11748.5556640625	634.0999755859375	2	12	0.6000000238418579	23.270477294921875	9	0	0.0	0.0	0.0	0.0	0.8848664941166966	0.0	0.0	0.3252380689718767	-0.2691925424999999	0.1292124204	9.8919286284	-0.67070472240448	-0.2476479113101959	-0.6505828499794006	0.2560619711875915	6	35.34761962890625	-117.80926106770833	-0.10049854920000001	-9.8560362894	-0.4737788748	0.3302095188	0.24406790520000002	0.31585258320000004	0.0305432618	-0.025656339912	0.06963863690399999	-0.8637634437039999	0.575435052312	-4.708549239088	-0.01276	-0.80214	-0.00522	-0.42282000000000003	1.17392	-1.2151	0.11485548479999999	-4.8059841921	-0.0789631458	-0.41661009095199997	0.2748893562	-2.319455301092	-0.21779	0.18589000000000006	-0.61016	12.70944	7.0608	-2.3536	0.9268344436220084	64.385
21803	0	2300542	10	-1370	-56	18	-17	51	7	-1382	-10	38	29	38	-707	471	-3854	-747	2024	-2077	416	128	-64	60.9	0.9273229706390328	67.86	0.9265729089563286	3520.857177734375	-11748.5556640625	634.0999755859375	2	12	0.6000000238418579	23.211181640625	9	0	0.0	0.0	0.0	0.0	0.7373349172938188	0.0	0.0	0.1429417434499024	-0.2368894373999999	-0.0610169763	9.8775716928	-0.6704853177070618	-0.2478537112474441	-0.6505448222160339	0.2565336227416992	6	35.34761962890625	-117.80926106770833	0.071784678	-9.834500886	-0.40199419680000004	0.2727817764	0.2081755662	0.2727817764	0.021991148496	-0.020769418023999998	0.062308254072	-0.8637634437039999	0.575435052312	-4.708549239088	0.00406	-0.80156	-0.0058	-0.43326	1.17392	-1.20466	0.1722832272	-4.813162659900001	-0.06460621020000001	-0.42088614760399995	0.277332817144	-2.323120492508	-0.21459999999999999	0.18618	-0.60523	12.23872	3.76576	-1.88288	0.9269479397976808	64.38
21804	0	2300648	20	-1377	4	33	-5	49	6	-1373	40	51	46	38	-725	479	-3874	-747	2024	-2077	464	144	-176	60.9	0.9273723168023686	67.88	0.92660251665433	3520.857177734375	-11748.5556640625	634.0	2	12	0.6000000238418579	23.19789123535156	9	0	0.0	0.0	0.0	0.0	0.7242283862167871	0.0	0.0	0.1207194853849272	0.1579262916	-0.0933200813999999	9.870393225	-0.6705081462860107	-0.2473665922880172	-0.6509138345718384	0.256007432937622	6	35.34761962890625	-117.80926106770833	0.143569356	-9.884750160600001	0.0287138712	0.36610185780000004	0.3302095188	0.2727817764	0.040317105576	-0.0061086523599999994	0.059864793128	-0.8857545922	0.585208896088	-4.732983848528	0.00348	-0.79634	0.0232	-0.43326	1.17392	-1.20466	0.2548356069	-4.7772703209000005	0.1507478238	-0.422718743312	0.289550121864	-2.3365595277	-0.21489	0.18879	-0.59073	13.65088	4.23648	-5.17792	0.9269874167283494	64.39
21805	0	2300753	12	-1378	-66	27	-13	53	7	-1375	-11	46	39	46	-725	479	-3874	-762	2032	-2111	400	112	-144	60.88	0.9271058475203552	67.86	0.9263952627683196	3520.857177734375	-11748.5556640625	634.0	2	12	0.6000000238418579	23.23162841796875	9	0	0.0	0.0	0.0	0.0	0.7387468228382595	0.0	0.0	0.132909985583417	-0.2763710103	-0.0681954441	9.881160926699998	-0.670612633228302	-0.246914803981781	-0.6510713696479797	0.2557691633701324	6	35.34761962890625	-117.80926106770833	0.0861416136	-9.8919286284	-0.4737788748	0.3302095188	0.2799602442	0.3302095188	0.032986722744	-0.015882496136	0.064751715016	-0.8857545922	0.585208896088	-4.732983848528	0.00406	-0.7975	-0.00638	-0.44196	1.17856	-1.22438	0.2081755662	-4.8059841921	-0.07178467800000002	-0.42638393472799996	0.284663199976	-2.3341160667559997	-0.21895	0.19053000000000003	-0.61538	11.768	3.29504	-4.23648	0.9267505551443374	64.37
21806	0	2300859	-2	-1382	-42	25	-10	47	-26	-1378	3	47	36	36	-709	478	-3872	-762	2032	-2111	560	288	-128	60.88	0.9273229706390328	67.86	0.9265038243276584	3520.857177734375	-11748.5556640625	634.0	2	12	0.6000000238418579	23.25616455078125	9	0	0.0	0.0	0.0	0.0	0.7813150136450333	0.0	0.0	0.1663597236886592	-0.1399801221	0.1004985492	9.906285564	-0.6703197360038757	-0.2473717331886291	-0.6510583758354187	0.2561284303665161	6	35.34761962890625	-117.80926106770833	-0.0143569356	-9.9206424996	-0.3014956476	0.3373879866	0.2584248408	0.2584248408	0.0305432618	-0.012217304719999999	0.057421332183999994	-0.866206904648	0.583987165616	-4.730540387584	-0.01508	-0.79924	0.00174	-0.44196	1.17856	-1.22438	0.1615155255	-4.8311088294	-0.021535403400000014	-0.417831821424	0.28588493044799995	-2.3365595277	-0.22852	0.18966000000000005	-0.61132	16.4752	8.47296	-3.76576	0.9269133974833457	64.37
21807	0	2300964	25	-1374	-21	31	-25	51	22	-1376	16	54	23	37	-709	478	-3872	-772	2049	-2077	544	208	-96	60.9	0.9271354552183568	67.86	0.9264446089316556	3520.857666015625	-11748.5556640625	634.0	2	12	0.6000000238418579	23.241851806640625	9	0	0.0	0.0	0.0	0.0	0.7693742440151371	0.0	0.0	0.1449326272891571	-0.0179461694999999	-0.1686939932999999	9.870393225	0.6573610305786133	-0.2768928110599518	0.6406519412994385	0.2842041552066803	6	35.34762776692708	-117.80926106770833	0.179461695	-9.8632147572	-0.1507478238	0.3876372612	0.1651047594	0.26560330860000003	0.037873644632	-0.0305432618	0.062308254072	-0.866206904648	0.583987165616	-4.730540387584	0.01276	-0.79808	0.00928	-0.44776	1.18842	-1.20466	0.28354947810000003	-4.8490549989	0.05742774240000001	-0.41416663000799997	0.276721951908	-2.334116066756	-0.2175	0.19517	-0.59769	16.00448	6.11936	-2.82432	0.9267900320750062	64.38
21808	0	2301069	8	-1375	-9	34	-13	56	7	-1375	28	54	44	46	-712	457	-3843	-772	2049	-2077	464	144	-176	60.9	0.9274216629657044	67.86	0.926405132000987	3520.857666015625	-11748.5556640625	634.0	2	12	0.6000000238418579	23.216293334960938	9	0	0.0	0.0	0.0	0.0	0.6822055171616399	0.0	0.0	0.0485415065852855	0.0681954441	-0.0538385084999999	9.870393225	0.6571598649024963	-0.2772277295589447	0.6405685544013977	0.2845305502414703	6	35.34762776692708	-117.80926106770833	0.0574277424	-9.870393225	-0.0646062102	0.3876372612	0.31585258320000004	0.3302095188	0.041538836047999995	-0.015882496136	0.06841690643199999	-0.869872096064	0.5583308257039999	-4.695110203895999	0.00406	-0.7975	0.01624	-0.44776	1.18842	-1.20466	0.2225325018	-4.7772703209000005	0.1328016543	-0.41416663000799997	0.27122416478399997	-2.313346648732	-0.22185	0.19546000000000002	-0.59421	13.65088	4.23648	-5.17792	0.9269133974833457	64.38
21809	0	2301175	23	-1376	-78	24	-21	48	17	-1377	-37	44	31	36	-712	457	-3843	-775	2039	-2110	480	112	-80	60.9	0.9273032321736984	67.86	0.92646434739699	3520.857666015625	-11748.5556640625	634.0	2	12	0.6000000238418579	23.233673095703125	9	0	0.0	0.0	0.0	0.0	0.6773561242654402	0.0	0.0	0.0443295850693155	-0.4127618985	-0.1435693559999999	9.881160926699998	0.6572869420051575	-0.2769175767898559	0.6407217383384705	0.2841939628124237	6	35.34762776692708	-117.80926106770833	0.1651047594	-9.8775716928	-0.5599204884	0.31585258320000004	0.2225325018	0.2584248408	0.029321531328	-0.025656339912	0.058643062656	-0.869872096064	0.5583308257039999	-4.695110203895999	0.00986	-0.79866	-0.02146	-0.4495	1.18262	-1.2238	0.2404786713	-4.8275195955	-0.15074782379999999	-0.420275282368	0.26633724289599997	-2.3182335706199995	-0.21982000000000002	0.19197999999999998	-0.62263	14.1216	3.29504	-2.3536	0.9268837897853441	64.38
21810	0	2301280	7	-1374	-28	25	-13	49	4	-1380	14	44	39	39	-739	480	-3882	-775	2039	-2110	432	144	-128	60.89	0.9275697014557118	67.86	0.9265136935603256	3520.857666015625	-11748.5556640625	633.9000244140625	2	12	0.6000000238418579	23.237762451171875	9	0	0.0	0.0	0.0	0.0	0.5741436357414199	0.0	0.0	-0.0620083832898381	-0.0502492746	-0.0394815729	9.8847501606	0.6569996476173401	-0.2770674526691437	0.6407110095024109	0.2847360968589782	6	35.34762776692708	-117.80926106770833	0.050249274600000005	-9.8632147572	-0.20099709840000002	0.31585258320000004	0.2799602442	0.2799602442	0.0305432618	-0.015882496136	0.059864793128	-0.9028588188079999	0.58643062656	-4.742757692304	0.00232	-0.8004	0.00812	-0.4495	1.18262	-1.2238	0.18305092890000002	-4.7916272565	0.039481572899999984	-0.43615777850399995	0.285274065212	-2.341446449588	-0.22359	0.19111	-0.60784	12.70944	4.23648	-3.76576	0.9270416975080187	64.375
21811	0	2301386	32	-1371	-36	30	-18	54	19	-1384	7	47	32	42	-739	480	-3882	-766	2040	-2103	464	96	-96	60.9	0.9274315321983716	67.87	0.92653343202566	3520.857666015625	-11748.5556640625	633.9000244140625	2	12	0.6000000238418579	23.253097534179688	9	0	0.0	0.0	0.0	0.0	0.5217112367179829	0.0	0.0	-0.1008325249218747	-0.1040877831	-0.1830509288999999	9.8883393945	0.6569395065307617	-0.2771679162979126	0.6407722234725952	0.2846392095088959	6	35.34762776692708	-117.80926106770833	0.2297109696	-9.8416793538	-0.2584248408	0.3373879866	0.2297109696	0.3014956476	0.03665191416	-0.021991148496	0.065973445488	-0.9028588188079999	0.58643062656	-4.742757692304	0.01102	-0.80272	0.00406	-0.44428	1.1832	-1.21974	0.28354947810000003	-4.8059841921	0.021535403400000014	-0.43310345232399994	0.282219739032	-2.338392123408	-0.21663000000000002	0.19024000000000002	-0.60784	13.65088	2.82432	-2.82432	0.9269824821120158	64.385
21812	0	2301491	1	-1383	-30	23	-11	51	4	-1378	5	40	37	38	-697	474	-3867	-753	2034	-2057	464	144	-128	60.9	0.9274315321983716	67.86	0.9265729089563286	3520.857666015625	-11748.5556640625	633.9000244140625	2	12	0.6000000238418579	23.23980712890625	9	0	0.0	0.0	0.0	0.0	0.3930852169797346	0.0	0.0	-0.2151654642392788	-0.0897308474999999	-0.0179461694999999	9.9098747979	0.6568068265914917	-0.277081161737442	0.6408450603485107	0.2848658263683319	6	35.34762776692708	-117.80926106770833	0.0071784678	-9.9278209674	-0.215354034	0.287138712	0.26560330860000003	0.2727817764	0.028099800855999998	-0.013439035192	0.062308254072	-0.851546138984	0.579100243728	-4.724431735224	0.00232	-0.79924	0.0029	-0.43674	1.17972	-1.19306	0.1471585899	-4.831108829400001	0.028713871200000005	-0.411723169064	0.282830604268	-2.331061740576	-0.21721000000000001	0.19024000000000008	-0.59508	13.65088	4.23648	-3.76576	0.92700222057735	64.38
21813	0	2301597	31	-1382	-32	30	-16	51	12	-1380	8	45	30	37	-697	474	-3867	-753	2034	-2057	544	160	-128	60.89	0.9273427091043672	67.86	0.9263952627683196	3520.857666015625	-11748.5556640625	633.9000244140625	2	12	0.6000000238418579	23.217315673828125	9	0	0.0	0.0	0.0	0.0	0.4003523079199858	0.0	0.0	-0.1742067081193279	-0.0861416136	-0.1543370577	9.9134640318	0.6566739678382874	-0.277139276266098	0.6408502459526062	0.2851038575172424	6	35.34762776692708	-117.80926106770833	0.2225325018	-9.9206424996	-0.2297109696	0.323031051	0.215354034	0.26560330860000003	0.03665191416	-0.019547687552	0.062308254072	-0.851546138984	0.579100243728	-4.724431735224	0.00696	-0.8004	0.00464	-0.43674	1.17972	-1.19306	0.2727817764	-4.8526442327999995	0.01794616950000001	-0.407447112412	0.279776278088	-2.331061740576	-0.21489	0.18966000000000005	-0.59421	16.00448	4.7072	-3.76576	0.9268689859363435	64.375
21814	0	2301702	23	-1378	-42	34	-16	50	16	-1375	5	48	36	43	-732	474	-3855	-773	2035	-2060	464	176	-112	60.91	0.9274414014310388	67.86	0.9266321243523316	3520.857666015625	-11748.5556640625	633.7999877929688	2	12	0.6000000238418579	23.209136962890625	9	0	0.0	0.0	0.0	0.0	0.3251150914331357	0.0	0.0	-0.225145095509641	-0.1328016543	-0.1399801221	9.881160926699998	0.6565420627593994	-0.2773261666297912	0.6408387422561646	0.2852514684200287	6	35.34762776692708	-117.80926106770833	0.1651047594	-9.8919286284	-0.3014956476	0.3445664544	0.2584248408	0.3086741154	0.041538836047999995	-0.019547687552	0.0610865236	-0.8943067055039999	0.579100243728	-4.70977096956	0.00928	-0.7975	0.0029	-0.44834	1.1803	-1.1948	0.2548356069	-4.8167518938	0.0035892338999999884	-0.42638393472799996	0.279776278088	-2.32434222298	-0.21953	0.19139999999999996	-0.5959500000000001	13.65088	5.17792	-3.29504	0.9270367628916851	64.38499999999999
21815	0	2301808	16	-1384	-38	30	-8	51	5	-1376	5	48	41	37	-732	474	-3855	-773	2035	-2060	400	176	-112	60.9	0.9274808783617072	67.87	0.926474216629657	3520.857666015625	-11748.5556640625	633.7999877929688	2	12	0.6000000238418579	23.237762451171875	9	0	0.0	0.0	0.0	0.0	0.3777858190808146	0.0	0.0	-0.137971982644228	-0.1184447186999999	-0.0753739118999999	9.906285564	0.6564778685569763	-0.277214378118515	0.6409247517585754	0.2853145897388458	6	35.34762776692708	-117.80926106770833	0.1148554848	-9.9349994352	-0.2727817764	0.3445664544	0.2943171798	0.26560330860000003	0.03665191416	-0.009773843776	0.062308254072	-0.8943067055039999	0.579100243728	-4.70977096956	0.0029	-0.79808	0.0029	-0.44834	1.1803	-1.1948	0.2297109696	-4.8203411277	-0.0035892338999999884	-0.42882739567199996	0.284663199976	-2.323731357744	-0.22272	0.19110999999999995	-0.5959500000000001	11.768	5.17792	-3.29504	0.9269775474956821	64.385
21816	0	2301913	5	-1376	-46	28	-19	49	2	-1373	4	46	37	40	-725	462	-3851	-765	2028	-2090	464	176	-176	60.9	0.9271946706143598	67.86	0.9265136935603256	3520.857666015625	-11748.5556640625	633.7999877929688	2	12	0.6000000238418579	23.22344970703125	9	0	0.0	0.0	0.0	0.0	0.4689213870732767	0.0	0.0	-0.0213384582504081	-0.1507478237999999	-0.0251246372999999	9.8668039911	0.7071542143821716	-0.0755032151937484	0.6988491415977478	0.076434351503849	6	35.34762776692708	-117.80926106770833	0.035892339	-9.8775716928	-0.3302095188	0.3302095188	0.26560330860000003	0.287138712	0.034208453215999995	-0.023212878968	0.059864793128	-0.8857545922	0.564439478064	-4.7048840476719995	0.00116	-0.79634	0.00232	-0.4437	1.17624	-1.2122	0.1830509289	-4.8059841921	-0.021535403399999986	-0.425773069492	0.270613299548	-2.322509627272	-0.22127	0.18994999999999995	-0.6049399999999999	13.65088	5.17792	-5.17792	0.9268541820873427	64.38
21817	0	2302018	15	-1374	-63	24	-18	51	16	-1375	-14	45	33	41	-725	462	-3851	-765	2028	-2090	480	240	-80	60.9	0.9272045398470268	67.86	0.9266913397483346	3520.857666015625	-11748.5556640625	633.7000122070312	2	12	0.6000000238418579	23.244918823242188	9	0	0.0	0.0	0.0	0.0	0.4113641604184953	0.0	0.0	-0.0690717123091248	-0.2763710103	-0.1112662508999999	9.8668039911	0.7070719599723816	-0.0754187405109405	0.6989614963531494	0.0762507170438766	6	35.34762776692708	-117.80926106770833	0.107677017	-9.8632147572	-0.45224347140000004	0.323031051	0.2368894374	0.2943171798	0.029321531328	-0.021991148496	0.062308254072	-0.8857545922	0.564439478064	-4.7048840476719995	0.00928	-0.7975	-0.00812	-0.4437	1.17624	-1.2122	0.215354034	-4.8131626599	-0.07896314580000002	-0.428216530436	0.27122416478399997	-2.3212878968	-0.21721	0.18936999999999998	-0.6101599999999999	14.1216	7.0608	-2.3536	0.9269479397976808	64.38
21818	0	2302124	5	-1372	-14	32	-9	48	3	-1374	21	48	39	39	-715	488	-3852	-756	2040	-2067	336	80	-112	60.91	0.927214409079694	67.86	0.9266814705156674	3520.857666015625	-11748.5556640625	633.7000122070312	2	12	0.6000000238418579	23.21015930175781	9	0	0.0	0.0	0.0	0.0	0.309314608294186	0.0	0.0	-0.1621083491786167	0.0251246372999999	-0.0287138711999999	9.8560362894	0.7069298624992371	-0.0753749310970306	0.6990966200828552	0.0763728246092796	6	35.34762776692708	-117.80926106770833	0.035892339	-9.848857821600001	-0.10049854920000001	0.3445664544	0.2799602442	0.2799602442	0.039095375104	-0.010995574248	0.058643062656	-0.8735372874799999	0.596204470336	-4.706105778144	0.00174	-0.79692	0.01218	-0.43848	1.1832	-1.19886	0.1902293967	-4.784448788700001	0.08973084749999999	-0.417220956188	0.292604448044	-2.3237313577439997	-0.21836999999999998	0.19314000000000003	-0.59334	9.88512	2.3536	-3.29504	0.9269479397976808	64.38499999999999
21819	0	2302229	7	-1373	-38	25	-14	55	5	-1373	3	49	44	41	-704	487	-3842	-756	2040	-2067	432	112	-112	60.9	0.9272045398470268	67.86	0.9265136935603256	3520.857666015625	-11748.5556640625	633.7000122070312	2	12	0.6000000238418579	23.19789123535156	9	0	0.0	0.0	0.0	0.0	0.301368512708065	0.0	0.0	-0.1417254874246543	-0.1256231864999999	-0.0430708068	9.8560362894	0.706792950630188	-0.0755200162529945	0.6991928219795227	0.0766155794262886	6	35.34762776692708	-117.80926106770833	0.050249274600000005	-9.8560362894	-0.2727817764	0.35174492220000003	0.31585258320000004	0.2943171798	0.0305432618	-0.017104226607999998	0.06719517595999999	-0.860098252288	0.594982739864	-4.693888473424	0.0029	-0.79634	0.00174	-0.43848	1.1832	-1.19886	0.20099709840000002	-4.7700918531	0.010767701699999993	-0.414777495244	0.28893925662799996	-2.313346648732	-0.21778999999999998	0.19343	-0.59856	12.70944	3.29504	-3.29504	0.9268591167036762	64.38
21820	0	2302335	26	-1378	-47	28	-12	52	13	-1377	1	46	34	43	-704	487	-3842	-777	2058	-2112	544	224	-96	60.89	0.9272341475450284	67.86	0.926405132000987	3520.857666015625	-11748.5556640625	633.5999755859375	2	12	0.6000000238418579	23.233673095703125	9	0	0.0	0.0	0.0	0.0	0.2120878014445863	0.0	0.0	-0.2084595142513469	-0.1651047594	-0.1399801221	9.8883393945	0.7067241668701172	-0.0752813965082168	0.6993257999420166	0.0762704834342002	6	35.34762776692708	-117.80926106770833	0.1866401628	-9.8919286284	-0.3373879866	0.3302095188	0.24406790520000002	0.3086741154	0.034208453215999995	-0.014660765664	0.063529984544	-0.860098252288	0.594982739864	-4.693888473424	0.00754	-0.79866	0.00058	-0.45066	1.19364	-1.22496	0.2584248408	-4.8239303616	-0.01435693560000001	-0.412944899536	0.2901609871	-2.31517924444	-0.22156	0.19749	-0.61219	16.00448	6.59008	-2.82432	0.9268196397730077	64.375
21821	0	2302440	11	-1382	-18	33	-13	50	4	-1381	17	47	37	38	-706	471	-3845	-777	2058	-2112	464	144	-224	60.88	0.9275104860597088	67.86	0.9263360473723168	3520.857666015625	-11748.5556640625	633.5999755859375	2	12	0.6000000238418579	23.23060607910156	9	0	0.0	0.0	0.0	0.0	0.06972954044937	0.0	0.0	-0.3263114702376351	-0.0035892339	-0.0538385084999999	9.917053265699998	0.7065840363502502	-0.0752472728490829	0.6994503736495972	0.0764599069952964	6	35.34762776692708	-117.80926106770833	0.07896314580000001	-9.9206424996	-0.1292124204	0.3373879866	0.26560330860000003	0.2727817764	0.040317105576	-0.015882496136	0.0610865236	-0.8625417132319999	0.575435052312	-4.69755366484	0.00232	-0.80098	0.00986	-0.45066	1.19364	-1.22496	0.20817556620000002	-4.8275195955	0.071784678	-0.41111230382799996	0.279776278088	-2.31823357062	-0.22417	0.19633	-0.60755	13.65088	4.23648	-6.59008	0.9269232667160128	64.37
21822	0	2302546	4	-1381	-56	28	-7	53	-2	-1371	-8	52	44	42	-706	471	-3845	-735	2052	-2064	480	224	-160	60.91	0.9274414014310388	67.86	0.9265136935603256	3520.857666015625	-11748.5556640625	633.5999755859375	2	12	0.6000000238418579	23.234695434570312	9	0	0.0	0.0	0.0	0.0	0.0435047436580856	0.0	0.0	-0.3143855971109375	-0.2297109695999999	-0.0071784677999999	9.8775716928	0.706507682800293	-0.075490266084671	0.6994733214378357	0.0767147541046142	6	35.34762776692708	-117.80926106770833	0.0287138712	-9.9134640318	-0.40199419680000004	0.3732803256	0.31585258320000004	0.3014956476	0.034208453215999995	-0.008552113303999999	0.064751715016	-0.8625417132319999	0.575435052312	-4.69755366484	-0.00116	-0.79518	-0.00464	-0.4263	1.19016	-1.19712	0.20099709840000002	-4.7988057243	-0.050249274600000005	-0.41416663000799997	0.283441469504	-2.316400974912	-0.21373	0.19749000000000005	-0.60088	14.1216	6.59008	-4.7072	0.9269775474956823	64.38499999999999
21823	0	2302651	17	-1375	-65	23	-20	50	9	-1380	-9	43	28	38	-708	472	-3871	-735	2052	-2064	448	128	-176	60.89	0.927461139896373	67.86	0.9265038243276584	3520.857666015625	-11748.5556640625	633.4000244140625	2	12	0.6000000238418579	23.26025390625	9	0	0.0	0.0	0.0	0.0	-0.0459965354568231	0.0	0.0	-0.3654783835961397	-0.2656033086	-0.0933200814	9.8883393945	0.706456184387207	-0.0753310844302177	0.6995700001716614	0.0764640122652053	6	35.34762776692708	-117.80926106770833	0.12203395260000001	-9.870393225	-0.466600407	0.3086741154	0.20099709840000002	0.2727817764	0.028099800855999998	-0.024434609439999998	0.0610865236	-0.864985174176	0.576656782784	-4.729318657112	0.00522	-0.8004	-0.00522	-0.4263	1.19016	-1.19712	0.215354034	-4.8346980633	-0.09690931529999999	-0.41844268666	0.276111086672	-2.3341160667559997	-0.21054	0.19488000000000005	-0.60117	13.18016	3.76576	-5.17792	0.9269824821120157	64.375
21824	0	2302757	24	-1380	-21	32	-8	49	6	-1382	17	51	42	38	-708	472	-3871	-764	2042	-2047	544	256	-80	60.9	0.9273032321736984	67.86	0.9265136935603256	3520.857666015625	-11748.5556640625	633.4000244140625	2	12	0.6000000238418579	23.212203979492188	9	0	0.0	0.0	0.0	0.0	-0.0838193948749652	0.0	0.0	-0.3572817109182792	-0.0143569355999999	-0.107677017	9.9134640318	0.7062875628471375	-0.0753491893410682	0.6997140645980835	0.0766850858926773	6	35.34762776692708	-117.80926106770833	0.1722832272	-9.906285564000001	-0.1507478238	0.36610185780000004	0.3014956476	0.2727817764	0.039095375104	-0.009773843776	0.059864793128	-0.864985174176	0.576656782784	-4.729318657112	0.00348	-0.80156	0.00986	-0.44312	1.18436	-1.18726	0.2691925425	-4.802394958200001	0.0610169763	-0.412944899536	0.283441469504	-2.334726931992	-0.21982000000000002	0.19140000000000001	-0.5887	16.00448	7.53152	-2.3536	0.926908462867012	64.38
21825	0	2302862	10	-1379	-52	28	-11	52	5	-1375	-15	47	41	41	-684	452	-3861	-764	2042	-2047	384	128	-176	60.9	0.9274808783617072	67.86	0.9266222551196645	3520.857666015625	-11748.5556640625	633.4000244140625	2	12	0.6000000238418579	23.2357177734375	9	0	0.0	0.0	0.0	0.0	-0.1575321190093524	0.0	0.0	-0.3882441371425343	-0.2404786712999999	-0.0538385084999999	9.8847501606	0.7062265872955322	-0.0754217654466629	0.6997523307800293	0.0768266767263412	6	35.34762776692708	-117.80926106770833	0.071784678	-9.8991070962	-0.3732803256	0.3373879866	0.2943171798	0.2943171798	0.034208453215999995	-0.013439035192	0.063529984544	-0.835663642848	0.5522221733439999	-4.717101352392	0.0029	-0.7975	-0.0087	-0.44312	1.18436	-1.18726	0.2045863323	-4.8023949582	-0.03948157290000001	-0.400727594816	0.269391569076	-2.3267856839239998	-0.22011	0.19343000000000005	-0.59798	11.29728	3.76576	-5.17792	0.9270515667406858	64.38
21826	0	2302968	4	-1373	-42	29	-25	57	-7	-1377	3	49	24	38	-684	452	-3861	-763	2037	-2047	464	160	-160	60.9	0.9273624475697014	67.86	0.9265038243276584	3520.857666015625	-11748.5556640625	633.2999877929688	2	12	0.6000000238418579	23.21424865722656	9	0	0.0	0.0	0.0	0.0	-0.0950050017180439	0.0	0.0	-0.2768115914237519	-0.1399801221	0.0107677017	9.870393225	-0.7158775925636292	-0.0500773824751377	-0.6945065855979919	0.0516939647495746	6	35.34762776692708	-117.80926106770833	0.0287138712	-9.8560362894	-0.3014956476	0.35174492220000003	0.1722832272	0.2727817764	0.035430183688	-0.0305432618	0.06963863690399999	-0.835663642848	0.5522221733439999	-4.717101352392	-0.00406	-0.79866	0.00174	-0.44254	1.18146	-1.18726	0.19022939670000003	-4.8418765311000005	-0.01435693560000001	-0.40011672958	0.26083945577199996	-2.3237313577439997	-0.2233	0.19139999999999996	-0.59276	13.65088	4.7072	-4.7072	0.9269331359486799	64.38
21827	0	2303073	38	-1370	-26	20	-21	46	26	-1376	20	37	29	36	-711	462	-3846	-758	2048	-2077	512	160	-80	60.9	0.9273723168023686	67.85	0.9263853935356526	3520.857666015625	-11748.5556640625	633.2999877929688	2	12	0.6000000238418579	23.26229858398437	9	0	0.0	0.0	0.0	0.0	-0.1262252337734177	0.0	0.0	-0.2677352796411965	-0.0215354034	-0.2297109695999999	9.8560362894	-0.7156501412391663	-0.0508116595447063	-0.6946337223052979	0.0524127334356308	6	35.34762776692708	-117.80926106770833	0.2727817764	-9.834500886	-0.1866401628	0.26560330860000003	0.2081755662	0.2584248408	0.024434609439999998	-0.025656339912	0.056199601711999995	-0.8686503655919999	0.564439478064	-4.6987753953119995	0.01508	-0.79808	0.0116	-0.43964	1.18784	-1.20466	0.2691925425	-4.813162659900001	0.035892338999999995	-0.422107878076	0.269391569076	-2.3212878968	-0.21228	0.19488	-0.59653	15.06304	4.7072	-2.3536	0.9268788551690106	64.375
