timestampMs,pressurePa,tempK,accelX,accelY,accelZ,gyroX,gyroY,gyroZ,imuTemp,battV,altitudeM,velocityMS,accelerationMSS,unfiltAlt,flightState,drogueCont,drogueFired,mainCont,mainFired,tiltMagnitudeDeg,angularVelRadS_x,angularVelRadS_y,angularVelRadS_z,quaternion_a,quaternion_b,quaternion_c,quaternion_d
5116,101779.812500,278.13,9.844957,-0.440533,0.536301,-0.046825,0.012770,0.035119,283.60,4.07,0.52,0.07,0.04,-36.444351,0,1,0,1,0,,,,,,,,
10116,101769.796875,278.25,9.854534,-0.316034,0.383072,-0.046825,0.020220,0.029798,283.60,4.05,0.78,0.26,0.04,-35.643218,0,1,0,1,0,,,,,,,,
15116,101755.828125,278.35,9.868899,-0.306457,0.344765,-0.045761,0.020220,0.025541,283.60,4.07,1.11,0.32,0.05,-34.525768,0,1,0,1,0,,,,,,,,
20116,101745.781250,278.47,9.868899,-0.287304,0.325611,-0.046825,0.019156,0.026605,283.60,4.04,0.93,0.00,0.05,-33.721981,0,1,0,1,0,,,,,,,,
25116,101754.468750,278.58,9.840168,-0.292092,0.311246,-0.046825,0.020220,0.027669,283.70,4.07,1.31,0.26,0.04,-34.417018,0,1,0,1,0,,,,,,,,
30116,101763.156250,278.70,9.859322,-0.354341,0.301669,-0.048954,0.020220,0.028734,283.80,4.07,0.94,-0.28,0.05,-35.112007,0,1,0,1,0,,,,,,,,
35116,101749.125000,278.80,9.821015,-0.354341,0.296881,-0.050018,0.014899,0.029798,284.19,4.05,1.82,0.40,0.04,-33.989501,0,1,0,1,0,,,,,,,,
40116,101753.875000,278.90,9.902418,-0.277727,0.325611,-0.046825,0.021284,0.026605,284.14,4.07,1.60,-0.03,0.05,-34.369518,0,1,0,1,0,,,,,,,,
45116,101739.812500,279.00,9.844957,-0.306457,0.330399,-0.044697,0.018091,0.028734,284.04,4.05,2.22,0.51,0.05,-33.244426,0,1,0,1,0,,,,,,,,
50116,101744.531250,279.10,9.883264,-0.311246,0.325611,-0.045761,0.020220,0.028734,284.44,4.07,2.22,0.30,0.04,-33.621971,0,1,0,1,0,,,,,,,,
55116,101749.234375,279.20,9.859322,-0.292092,0.320823,-0.044697,0.021284,0.027669,284.44,4.04,-0.48,-0.58,0.05,-34.154388,0,1,0,1,0,,,,,,,,
60116,101735.156250,279.30,9.830592,-0.296881,0.339976,-0.046825,0.020220,0.026605,284.68,4.07,0.37,0.39,0.04,-33.022830,0,1,0,1,0,,,,,,,,
65116,101735.906250,279.38,9.849745,-0.287304,0.330399,-0.047890,0.020220,0.027669,284.53,4.07,0.66,0.53,0.05,-33.083118,0,1,0,1,0,,,,,,,,
70116,101736.671875,279.47,9.888052,-0.320823,0.354341,-0.045761,0.020220,0.025541,284.88,4.04,0.37,0.15,0.05,-33.144660,0,1,0,1,0,,,,,,,,
75116,101756.234375,279.55,9.864110,-0.277727,0.311246,-0.044697,0.021284,0.026605,284.68,4.07,0.35,-0.01,0.05,-34.716976,0,1,0,1,0,,,,,,,,
80116,101738.187500,279.63,9.849745,-0.311246,0.339976,-0.045761,0.017027,0.026605,284.93,4.04,0.40,-0.08,0.05,-33.266487,0,1,0,1,0,,,,,,,,
85116,101738.921875,279.72,9.859322,-0.296881,0.349553,-0.046825,0.021284,0.027669,285.12,4.07,0.49,-0.02,0.05,-33.325515,0,1,0,1,0,,,,,,,,
90116,101735.750000,279.78,9.878476,-0.282515,0.344765,-0.044697,0.022348,0.028734,285.07,4.04,0.79,0.14,0.05,-33.070560,0,1,0,1,0,,,,,,,,
95116,101736.468750,279.87,9.844957,-0.316034,0.354341,-0.045761,0.020220,0.028734,285.07,4.06,0.86,0.10,0.05,-33.128334,0,1,0,1,0,,,,,,,,
100116,101733.281250,279.93,9.849745,-0.316034,0.311246,-0.043633,0.019156,0.025541,285.12,4.05,1.25,0.39,0.04,-32.872116,0,1,0,1,0,,,,,,,,
105116,101711.265625,280.00,9.859322,-0.339976,0.325611,-0.044697,0.019156,0.028734,285.42,4.04,1.30,0.38,0.04,-31.102291,0,1,0,1,0,,,,,,,,
110116,101745.703125,280.07,9.854534,-0.282515,0.339976,-0.045761,0.019156,0.027669,285.27,4.06,0.77,-0.23,0.05,-33.870567,0,1,0,1,0,,,,,,,,
115116,101719.765625,280.12,9.883264,-0.292092,0.320823,-0.046825,0.019156,0.028734,285.46,4.03,1.43,0.26,0.05,-31.785638,0,1,0,1,0,,,,,,,,
120116,101735.406250,280.18,9.859322,-0.325611,0.325611,-0.046825,0.019156,0.029798,285.61,4.06,1.23,-0.01,0.05,-33.042926,0,1,0,1,0,,,,,,,,
125116,101732.187500,280.25,9.849745,-0.320823,0.330399,-0.046825,0.021284,0.029798,285.66,4.04,1.32,0.00,0.05,-32.784198,0,1,0,1,0,,,,,,,,
130116,101728.953125,280.32,9.859322,-0.306457,0.316034,-0.044697,0.020220,0.027669,285.61,4.06,1.16,-0.19,0.05,-32.524204,0,1,0,1,0,,,,,,,,
135116,101721.859375,280.37,9.849745,-0.277727,0.363918,-0.045761,0.015963,0.027669,285.81,4.06,1.72,0.19,0.05,-31.953956,0,1,0,1,0,,,,,,,,
140116,101737.453125,280.43,9.854534,-0.316034,0.330399,-0.042569,0.020220,0.026605,285.81,4.03,1.02,-0.56,0.05,-33.207458,0,1,0,1,0,,,,,,,,
145116,101730.328125,280.48,9.873687,-0.282515,0.330399,-0.047890,0.018091,0.027669,285.66,4.06,1.54,0.00,0.05,-32.634735,0,1,0,1,0,,,,,,,,
150116,101723.187500,280.53,9.844957,-0.397437,0.454898,-0.046825,0.020220,0.027669,286.15,4.03,1.78,0.14,0.05,-32.060722,0,1,0,1,0,,,,,,,,
155116,101716.046875,280.58,9.816226,-0.268150,0.349553,-0.043633,0.022348,0.026605,286.05,4.06,2.09,0.39,0.04,-31.486679,0,1,0,1,0,,,,,,,,
160116,101727.750000,280.63,9.883264,-0.325611,0.330399,-0.043633,0.019156,0.027669,285.95,4.03,1.93,0.18,0.05,-32.427490,0,1,0,1,0,,,,,,,,
165116,101739.437500,280.68,9.892841,-0.272938,0.325611,-0.046825,0.020220,0.027669,285.95,4.06,1.70,-0.15,0.05,-33.366958,0,1,0,1,0,,,,,,,,
170116,101713.437500,280.73,9.859322,-0.301669,0.349553,-0.040440,0.020220,0.028734,286.05,4.05,2.10,0.21,0.04,-31.276901,0,1,0,1,0,,,,,,,,
175116,101725.140625,280.78,9.854534,-0.301669,0.316034,-0.044697,0.023412,0.026605,286.15,4.03,-0.65,-0.34,0.04,-32.400512,0,1,0,1,0,,,,,,,,
180116,101717.968750,280.83,9.844957,-0.306457,0.320823,-0.047890,0.018091,0.029798,286.30,4.06,-0.27,-0.01,0.05,-31.820693,0,1,0,1,0,,,,,,,,
185116,101725.765625,280.87,9.844957,-0.320823,0.320823,-0.044697,0.021284,0.026605,286.54,4.03,-0.37,-0.15,0.05,-32.451038,0,1,0,1,0,,,,,,,,
190116,101718.609375,280.92,9.844957,-0.354341,0.363918,-0.039376,0.019156,0.027669,286.49,4.06,-0.39,-0.18,0.05,-31.872486,0,1,0,1,0,,,,,,,,
195116,101711.421875,280.97,9.859322,-0.191536,0.392649,-0.048954,0.018091,0.024477,286.54,4.03,0.10,0.20,0.05,-31.291376,0,1,0,1,0,,,,,,,,
200116,101738.109375,281.00,9.821015,-0.205901,0.114921,-0.032990,0.021284,0.028734,286.35,4.06,-0.52,-0.53,0.05,-33.448898,0,1,0,1,0,,,,,,,,
205116,101712.031250,281.05,9.868899,-0.603338,0.536301,-0.038312,0.015963,0.027669,286.69,4.06,-0.10,-0.10,0.05,-31.340644,0,1,0,1,0,,,,,,,,
210116,101704.859375,281.10,9.868899,-0.253785,0.320823,-0.046825,0.019156,0.027669,286.49,4.03,0.81,0.77,0.05,-30.760766,0,1,0,1,0,,,,,,,,
215116,101712.656250,281.13,9.849745,-0.292092,0.354341,-0.043633,0.019156,0.028734,286.59,4.06,0.38,0.20,0.05,-31.391178,0,1,0,1,0,,,,,,,,
220116,101720.437500,281.17,9.859322,-0.316034,0.325611,-0.046825,0.021284,0.026605,286.54,4.03,0.23,0.01,0.05,-32.020286,0,1,0,1,0,,,,,,,,
225116,101713.250000,281.22,9.854534,-0.306457,0.330399,-0.044697,0.018091,0.026605,286.88,4.05,0.01,-0.20,0.05,-31.439184,0,1,0,1,0,,,,,,,,
230116,101721.062500,281.25,9.844957,-0.277727,0.301669,-0.046825,0.019156,0.027669,286.49,4.03,0.33,0.12,0.05,-32.070816,0,1,0,1,0,,,,,,,,
235116,101709.968750,281.28,9.854534,-0.325611,0.359130,-0.046825,0.020220,0.026605,286.74,4.06,0.57,0.26,0.05,-31.173885,0,1,0,1,0,,,,,,,,
240116,101721.640625,281.33,9.864110,-0.311246,0.354341,-0.050018,0.019156,0.028734,286.88,4.06,0.21,-0.10,0.05,-32.117553,0,1,0,1,0,,,,,,,,
245116,101710.546875,281.37,9.854534,-0.306457,0.339976,-0.047890,0.021284,0.026605,286.88,4.03,0.66,0.26,0.05,-31.220628,0,1,0,1,0,,,,,,,,
250116,101718.343750,281.40,9.859322,-0.306457,0.335188,-0.044697,0.020220,0.027669,286.93,4.06,0.46,0.13,0.05,-31.851011,0,1,0,1,0,,,,,,,,
255116,101711.125000,281.45,9.825803,-0.306457,0.359130,-0.044697,0.020220,0.025541,286.93,4.03,0.49,0.05,0.04,-31.267372,0,1,0,1,0,,,,,,,,
260116,101700.015625,281.48,9.859322,-0.277727,0.325611,-0.044697,0.020220,0.027669,286.88,4.05,1.20,0.71,0.05,-30.369108,0,1,0,1,0,,,,,,,,
265116,101703.890625,281.50,9.868899,-0.320823,0.339976,-0.044697,0.020220,0.026605,287.03,4.03,0.28,-0.28,0.05,-30.682435,0,1,0,1,0,,,,,,,,
270116,101696.687500,281.55,9.864110,-0.292092,0.344765,-0.044697,0.021284,0.026605,286.93,4.05,0.67,0.13,0.05,-30.099992,0,1,0,1,0,,,,,,,,
275116,101704.484375,281.58,9.883264,-0.287304,0.335188,-0.046825,0.021284,0.027669,286.93,4.05,0.54,-0.11,0.05,-30.730445,0,1,0,1,0,,,,,,,,
280116,101716.156250,281.63,9.844957,-0.306457,0.330399,-0.044697,0.017027,0.025541,286.93,4.03,0.43,-0.20,0.05,-31.674154,0,1,0,1,0,,,,,,,,
285116,101720.062500,281.65,9.859322,-0.277727,0.316034,-0.044697,0.021284,0.027669,286.93,4.05,0.64,-0.07,0.05,-31.989969,0,1,0,1,0,,,,,,,,
290116,101708.921875,281.68,9.883264,-0.306457,0.339976,-0.043633,0.018091,0.028734,287.13,4.03,0.99,0.17,0.05,-31.089242,0,1,0,1,0,,,,,,,,
295116,101697.796875,281.72,9.868899,-0.292092,0.339976,-0.045761,0.019156,0.027669,287.13,4.05,1.07,0.29,0.05,-30.189699,0,1,0,1,0,,,,,,,,
300116,101705.578125,281.75,9.849745,-0.316034,0.349553,-0.043633,0.020220,0.026605,287.28,4.03,1.02,0.13,0.05,-30.818881,0,1,0,1,0,,,,,,,,
305116,101713.375000,281.78,9.825803,-0.330399,0.339976,-0.045761,0.020220,0.026605,287.13,4.06,0.56,-0.17,0.05,-31.449289,0,1,0,1,0,,,,,,,,
310116,101702.250000,281.82,9.844957,-0.282515,0.339976,-0.043633,0.020220,0.027669,287.37,4.05,0.97,0.03,0.04,-30.549777,0,1,0,1,0,,,,,,,,
315116,101710.046875,281.85,9.878476,-0.282515,0.330399,-0.043633,0.019156,0.026605,287.47,4.03,0.28,-0.63,0.06,-31.180202,0,1,0,1,0,,,,,,,,
320116,101698.890625,281.88,9.868899,-0.301669,0.339976,-0.043633,0.021284,0.028734,287.47,4.05,1.10,0.20,0.05,-30.278141,0,1,0,1,0,,,,,,,,
325116,101725.593750,281.92,9.868899,-0.301669,0.373495,-0.045761,0.020220,0.028734,287.42,4.03,0.47,-0.53,0.05,-32.437145,0,1,0,1,0,,,,,,,,
330116,101714.468750,281.95,9.844957,-0.277727,0.363918,-0.043633,0.018091,0.028734,287.23,4.05,1.18,0.14,0.05,-31.537719,0,1,0,1,0,,,,,,,,
335116,101699.437500,281.97,9.878476,-0.311246,0.349553,-0.043633,0.020220,0.027669,287.37,4.03,1.04,-0.03,0.06,-30.322360,0,1,0,1,0,,,,,,,,
340116,101726.125000,282.00,9.849745,-0.311246,0.359130,-0.044697,0.018091,0.026605,287.62,4.05,1.35,0.17,0.05,-32.480091,0,1,0,1,0,,,,,,,,
345116,101696.062500,282.03,9.835380,-0.277727,0.373495,-0.047890,0.021284,0.024477,287.28,4.05,0.80,-0.39,0.05,-30.049453,0,1,0,1,0,,,,,,,,
350116,101703.859375,282.07,9.907206,-0.359130,0.339976,-0.044697,0.019156,0.028734,287.62,4.03,1.31,0.06,0.05,-30.679908,0,1,0,1,0,,,,,,,,
355116,101688.796875,282.08,9.844957,-0.330399,0.258573,-0.046825,0.019156,0.028734,287.62,4.05,1.52,0.17,0.04,-29.461921,0,1,0,1,0,,,,,,,,
360116,101700.500000,282.13,9.859322,-0.316034,0.344765,-0.043633,0.017027,0.029798,287.42,4.03,1.41,0.12,0.05,-30.408275,0,1,0,1,0,,,,,,,,
365116,101704.359375,282.15,9.902418,-0.316034,0.335188,-0.044697,0.019156,0.026605,287.62,4.05,1.38,0.02,0.05,-30.720338,0,1,0,1,0,,,,,,,,
370116,101708.265625,282.17,9.854534,-0.282515,0.311246,-0.043633,0.021284,0.028734,287.81,4.03,1.55,0.10,0.05,-31.036182,0,1,0,1,0,,,,,,,,
375116,101697.093750,282.20,9.892841,-0.301669,0.363918,-0.046825,0.021284,0.026605,287.77,4.05,2.08,0.62,0.05,-30.132843,0,1,0,1,0,,,,,,,,
380116,101704.875000,282.23,9.878476,-0.320823,0.311246,-0.044697,0.019156,0.025541,287.62,4.05,1.19,-0.22,0.05,-30.762029,0,1,0,1,0,,,,,,,,
385116,101712.656250,282.27,9.868899,-0.316034,0.349553,-0.044697,0.020220,0.027669,287.67,4.03,1.51,-0.07,0.05,-31.391178,0,1,0,1,0,,,,,,,,
390116,101701.500000,282.30,9.859322,-0.320823,0.373495,-0.046825,0.018091,0.026605,287.67,4.05,1.58,-0.03,0.05,-30.489133,0,1,0,1,0,,,,,,,,
395116,101686.453125,282.32,9.849745,-0.292092,0.349553,-0.046825,0.017027,0.026605,287.91,4.03,2.10,0.33,0.05,-29.272386,0,1,0,1,0,,,,,,,,
400116,101713.171875,282.35,9.868899,-0.287304,0.339976,-0.044697,0.019156,0.029798,287.81,4.05,1.38,-0.29,0.05,-31.432867,0,1,0,1,0,,,,,,,,
405116,101701.984375,282.38,9.888052,-0.253785,0.359130,-0.043633,0.020220,0.029798,287.81,4.03,1.53,-0.21,0.05,-30.528301,0,1,0,1,0,,,,,,,,
410116,101690.812500,282.42,9.849745,-0.263362,0.330399,-0.044697,0.020220,0.027669,287.67,4.05,2.20,0.43,0.05,-29.624917,0,1,0,1,0,,,,,,,,
415116,101694.718750,282.43,9.854534,-0.311246,0.349553,-0.044697,0.018091,0.026605,287.96,4.05,2.06,0.30,0.04,-29.940795,0,1,0,1,0,,,,,,,,
420116,101702.484375,282.47,9.873687,-0.282515,0.325611,-0.045761,0.019156,0.027669,288.01,4.03,1.43,-0.28,0.05,-30.568729,0,1,0,1,0,,,,,,,,
425116,101710.265625,282.50,9.864110,-0.296881,0.330399,-0.044697,0.020220,0.027669,288.11,4.05,-0.70,-0.50,0.05,-31.391298,0,1,0,1,0,,,,,,,,
430116,101695.187500,282.52,9.849745,-0.263362,0.339976,-0.043633,0.018091,0.026605,288.11,4.03,-0.22,0.06,0.05,-30.164550,0,1,0,1,0,,,,,,,,
435116,101702.968750,282.55,9.849745,-0.292092,0.339976,-0.044697,0.020220,0.026605,288.11,4.06,-0.71,-0.36,0.04,-30.797647,0,1,0,1,0,,,,,,,,
440116,101695.656250,282.60,9.888052,-0.282515,0.316034,-0.045761,0.020220,0.028734,288.01,4.03,-0.21,0.02,0.05,-30.202690,0,1,0,1,0,,,,,,,,
445116,101703.437500,282.63,9.854534,-0.325611,0.330399,-0.043633,0.020220,0.028734,288.11,4.05,-0.20,0.00,0.05,-30.835784,0,1,0,1,0,,,,,,,,
450116,101707.328125,282.65,9.816226,-0.306457,0.354341,-0.044697,0.022348,0.026605,288.16,4.05,-0.31,-0.11,0.05,-31.152317,0,1,0,1,0,,,,,,,,
455116,101696.140625,282.68,9.864110,-0.316034,0.354341,-0.044697,0.020220,0.026605,288.16,4.03,-0.52,-0.39,0.05,-30.242101,0,1,0,1,0,,,,,,,,
460116,101700.015625,282.70,9.849745,-0.282515,0.349553,-0.045761,0.019156,0.027669,288.21,4.05,0.01,0.05,0.06,-30.557380,0,1,0,1,0,,,,,,,,
465116,101688.828125,282.73,9.883264,-0.296881,0.349553,-0.043633,0.019156,0.028734,288.21,4.03,-0.42,-0.34,0.05,-29.647111,0,1,0,1,0,,,,,,,,
470116,101696.609375,282.77,9.888052,-0.306457,0.311246,-0.042569,0.020220,0.027669,288.35,4.05,0.22,0.25,0.06,-30.280241,0,1,0,1,0,,,,,,,,
475116,101685.421875,282.80,9.897629,-0.311246,0.363918,-0.045761,0.019156,0.026605,288.35,4.03,-0.04,-0.01,0.05,-29.369945,0,1,0,1,0,,,,,,,,
480116,101693.187500,282.83,9.926360,-0.287304,0.325611,-0.042569,0.020220,0.026605,288.35,4.05,0.04,-0.00,0.06,-30.001821,0,1,0,1,0,,,,,,,,
485116,101700.937500,282.87,9.864110,-0.316034,0.339976,-0.043633,0.018091,0.027669,288.35,4.05,-0.24,-0.23,0.05,-30.632385,0,1,0,1,0,,,,,,,,
490116,101704.812500,282.88,9.840168,-0.296881,0.311246,-0.042569,0.019156,0.028734,288.30,4.03,-0.09,-0.09,0.04,-30.947652,0,1,0,1,0,,,,,,,,
495116,101674.656250,282.92,9.849745,-0.316034,0.344765,-0.042569,0.021284,0.024477,288.45,4.05,0.84,0.76,0.05,-28.493902,0,1,0,1,0,,,,,,,,
500116,101682.421875,282.95,9.849745,-0.296881,0.339976,-0.044697,0.018091,0.028734,288.65,4.03,0.54,0.41,0.05,-29.125831,0,1,0,1,0,,,,,,,,
505116,101690.187500,282.98,9.835380,-0.282515,0.359130,-0.041504,0.020220,0.026605,288.50,4.05,0.07,-0.01,0.05,-29.757720,0,1,0,1,0,,,,,,,,
510116,101697.953125,283.02,9.844957,-0.325611,0.354341,-0.045761,0.020220,0.028734,288.55,4.03,-0.16,-0.31,0.05,-30.389572,0,1,0,1,0,,,,,,,,
515116,101686.750000,283.05,9.859322,-0.311246,0.339976,-0.045761,0.019156,0.027669,288.50,4.05,0.44,0.15,0.05,-29.478015,0,1,0,1,0,,,,,,,,
520116,101694.515625,283.08,9.844957,-0.320823,0.325611,-0.044697,0.018091,0.027669,288.70,4.05,-0.18,-0.38,0.05,-30.109884,0,1,0,1,0,,,,,,,,
525116,101683.281250,283.12,9.878476,-0.306457,0.359130,-0.045761,0.021284,0.028734,288.70,4.03,0.72,0.25,0.05,-29.195760,0,1,0,1,0,,,,,,,,
530116,101691.031250,283.15,9.830592,-0.330399,0.359130,-0.045761,0.020220,0.027669,288.74,4.05,0.36,0.03,0.04,-29.826374,0,1,0,1,0,,,,,,,,
535116,101679.812500,283.18,9.849745,-0.316034,0.330399,-0.045761,0.019156,0.027669,288.74,4.03,0.35,-0.01,0.04,-28.913497,0,1,0,1,0,,,,,,,,
540116,101706.546875,283.22,9.859322,-0.325611,0.325611,-0.045761,0.019156,0.027669,288.65,4.05,0.05,-0.38,0.06,-31.088756,0,1,0,1,0,,,,,,,,
545116,101672.484375,283.23,9.844957,-0.282515,0.349553,-0.045761,0.017027,0.027669,288.84,4.03,0.59,0.15,0.05,-28.317159,0,1,0,1,0,,,,,,,,
550116,101684.125000,283.28,9.849745,-0.320823,0.320823,-0.041504,0.020220,0.027669,288.99,4.05,0.82,0.17,0.04,-29.264417,0,1,0,1,0,,,,,,,,
555116,101669.000000,283.30,9.868899,-0.306457,0.330399,-0.044697,0.020220,0.028734,288.84,4.05,0.96,0.36,0.04,-28.033599,0,1,0,1,0,,,,,,,,
560116,101676.765625,283.33,9.859322,-0.311246,0.349553,-0.045761,0.020220,0.026605,288.74,4.03,0.74,0.08,0.05,-28.665557,0,1,0,1,0,,,,,,,,
565116,101703.500000,283.37,9.864110,-0.296881,0.320823,-0.043633,0.017027,0.027669,288.74,4.05,0.28,-0.35,0.05,-30.840869,0,1,0,1,0,,,,,,,,
570116,101673.281250,283.40,9.840168,-0.325611,0.349553,-0.042569,0.018091,0.026605,289.19,4.03,0.75,0.18,0.04,-28.382007,0,1,0,1,0,,,,,,,,
575116,101681.046875,283.43,9.864110,-0.296881,0.368707,-0.041504,0.018091,0.026605,289.04,4.05,0.85,0.09,0.05,-29.013942,0,1,0,1,0,,,,,,,,
580116,101684.906250,283.45,9.849745,-0.330399,0.330399,-0.044697,0.019156,0.027669,288.89,4.03,0.67,-0.05,0.04,-29.327989,0,1,0,1,0,,,,,,,,
585116,101692.656250,283.48,9.888052,-0.306457,0.368707,-0.044697,0.021284,0.030862,289.19,4.05,0.98,0.10,0.05,-29.958595,0,1,0,1,0,,,,,,,,
590116,101700.406250,283.52,9.859322,-0.325611,0.339976,-0.041504,0.020220,0.028734,288.99,4.05,0.67,-0.18,0.04,-30.589162,0,1,0,1,0,,,,,,,,
595116,101689.187500,283.55,9.864110,-0.287304,0.330399,-0.042569,0.020220,0.025541,289.04,4.03,0.46,-0.31,0.05,-29.676353,0,1,0,1,0,,,,,,,,
600116,101696.937500,283.58,9.868899,-0.292092,0.335188,-0.043633,0.019156,0.026605,289.04,4.05,0.74,-0.10,0.05,-30.306938,0,1,0,1,0,,,,,,,,
605116,101700.812500,283.60,9.873687,-0.301669,0.330399,-0.045761,0.017027,0.026605,289.23,4.03,0.66,-0.28,0.04,-30.622215,0,1,0,1,0,,,,,,,,
610116,101689.562500,283.63,9.849745,-0.268150,0.344765,-0.044697,0.018091,0.027669,289.23,4.05,0.38,-0.43,0.05,-29.706865,0,1,0,1,0,,,,,,,,
615116,101678.312500,283.67,9.840168,-0.292092,0.335188,-0.045761,0.019156,0.027669,289.38,4.03,1.02,0.07,0.05,-28.791435,0,1,0,1,0,,,,,,,,
620116,101686.062500,283.70,9.849745,-0.301669,0.316034,-0.043633,0.019156,0.026605,289.19,4.05,0.79,-0.21,0.04,-29.422073,0,1,0,1,0,,,,,,,,
623436,101651.953125,283.72,155.675781,1.187524,-3.385401,0.041504,-0.017027,-0.023412,289.28,4.03,4.81,22.82,115.58,-26.646209,1,1,0,1,0,,,,,,,,
623446,101594.968750,283.72,155.675781,2.044648,-0.670376,0.261799,-0.118128,0.076624,289.23,4.03,5.72,24.88,118.46,-22.007062,1,1,0,1,0,,,,,,,,
623456,101594.968750,283.72,155.675781,3.347093,-0.287304,0.608736,-0.133028,0.093651,289.43,4.05,6.42,26.72,121.06,-22.007062,1,1,0,1,0,,,,,,,,
623466,101632.953125,283.72,155.675781,-0.780509,-2.284068,0.664076,0.065981,0.133028,289.09,4.05,6.20,27.65,123.42,-25.099636,1,1,0,1,0,,,,,,,,
623476,101575.968750,283.72,155.675781,4.625597,0.995987,0.590645,-0.109615,0.155376,289.23,4.05,7.19,29.76,125.55,-20.459789,1,1,0,1,0,,,,,,,,
623486,101572.093750,283.70,155.675781,1.058237,-2.815581,0.617250,-0.073431,0.229872,289.19,4.05,8.03,31.70,127.48,-20.144197,1,1,0,1,0,,,,,,,,
623496,101575.968750,283.72,155.675781,1.470039,-1.249773,0.640663,-0.138349,0.273505,289.23,4.05,8.61,33.37,129.23,-20.459789,1,1,0,1,0,,,,,,,,
623506,101594.968750,283.72,155.675781,2.834734,-0.818816,0.689617,-0.166019,0.341616,289.23,4.05,8.66,34.52,130.81,-22.007062,1,1,0,1,0,,,,,,,,
623516,101556.968750,283.72,155.675781,1.029506,-1.862688,0.734315,-0.185175,0.389506,289.09,4.05,9.49,36.41,132.24,-18.912279,1,1,0,1,0,,,,,,,,
623526,101553.093750,283.70,155.675781,3.366247,0.306457,0.777948,-0.218166,0.413983,289.23,4.05,10.20,38.18,133.53,-18.596639,1,1,0,1,0,,,,,,,,
623536,101556.968750,283.72,155.675781,2.030282,-2.264914,0.815196,-0.213909,0.460809,289.23,4.05,10.67,39.70,134.70,-18.912279,1,1,0,1,0,,,,,,,,
623546,101537.968750,283.72,155.675781,2.240972,-0.823605,0.860958,-0.212845,0.485286,289.23,4.05,11.43,41.47,135.76,-17.364536,1,1,0,1,0,,,,,,,,
623556,101553.093750,283.70,155.675781,3.222595,-1.115697,0.907784,-0.196881,0.520406,289.28,4.05,11.70,42.77,136.72,-18.596639,1,1,0,1,0,,,,,,,,
623566,101518.968750,283.72,155.675781,2.877830,-1.580173,0.948224,-0.174532,0.547011,289.38,4.05,12.61,44.67,137.59,-15.816558,1,1,0,1,0,,,,,,,,
623576,101499.968750,283.72,155.675781,3.141192,-0.349553,0.992922,-0.158569,0.559782,289.19,4.05,13.69,46.72,138.38,-14.268346,1,1,0,1,0,,,,,,,,
623586,101499.968750,283.72,155.675781,3.706224,-1.604115,1.038683,-0.138349,0.576810,289.04,4.05,14.52,48.51,139.09,-14.268346,1,1,0,1,0,,,,,,,,
623596,101480.984375,283.72,155.675781,2.978386,-0.397437,1.107858,-0.081945,0.572553,289.28,4.05,15.54,50.48,139.73,-12.721173,1,1,0,1,0,,,,,,,,
623606,101461.984375,283.72,155.675781,4.347870,-0.933738,1.158941,-0.020220,0.558718,289.43,4.05,16.71,52.56,140.31,-11.172491,1,1,0,1,0,,,,,,,,
623616,101442.984375,283.72,155.675781,4.932055,-1.805227,1.219602,0.022348,0.549140,289.04,4.03,17.99,54.73,140.83,-9.623575,1,1,0,1,0,,,,,,,,
623626,101423.984375,283.72,155.675781,4.012681,-0.718260,1.306868,0.083009,0.520406,289.38,4.02,19.35,56.97,141.31,-8.074423,1,1,0,1,0,,,,,,,,
623636,101423.984375,283.72,155.675781,4.826710,-1.752555,1.365400,0.105358,0.493800,289.58,4.01,20.39,58.87,141.74,-8.074423,1,1,0,1,0,,,,,,,,
623646,101385.984375,283.72,155.675781,4.965574,-1.489193,1.414355,0.156441,0.468259,289.38,4.01,21.96,61.27,142.13,-4.975415,1,1,0,1,0,,,,,,,,
623656,101367.000000,283.72,155.675781,5.066130,-1.680729,1.472887,0.205395,0.431011,289.23,4.01,23.54,63.65,142.48,-3.426833,1,1,0,1,0,,,,,,,,
623666,101348.000000,283.72,155.675781,5.324704,-2.197877,1.566539,0.175597,0.383121,289.19,4.01,25.14,66.02,142.80,-1.876741,1,1,0,1,0,,,,,,,,
623676,101329.000000,283.72,155.675781,5.090072,-0.670376,1.617622,0.232001,0.308625,289.38,4.01,26.73,68.38,143.09,-0.326414,1,1,0,1,0,,,,,,,,
623686,101310.000000,283.72,155.675781,5.956773,-2.360682,1.659126,0.235193,0.206459,289.28,4.01,28.34,70.72,143.35,1.224147,1,1,0,1,0,,,,,,,,
623696,101329.000000,283.72,155.675781,5.612008,-1.848323,1.703824,0.249028,0.126642,289.09,4.01,29.18,72.30,143.59,-0.326414,1,1,0,1,0,,,,,,,,
623706,101291.000000,283.72,155.675781,5.884947,-2.274491,1.777256,0.230936,0.029798,289.28,4.01,30.59,74.41,143.80,2.774945,1,1,0,1,0,,,,,,,,
623716,101272.000000,283.72,155.675781,5.516240,-2.183511,1.827274,0.213909,-0.048954,289.43,4.01,32.05,76.56,143.99,4.325979,1,1,0,1,0,,,,,,,,
623726,101253.015625,283.72,155.675781,5.315127,-1.848323,1.875164,0.224551,-0.124514,289.09,4.01,33.56,78.72,144.17,5.875972,1,1,0,1,0,,,,,,,,
623736,101253.015625,283.72,155.675781,5.204994,-3.145981,1.910284,0.196881,-0.200074,289.19,4.00,34.70,80.52,144.33,5.875972,1,1,0,1,0,,,,,,,,
623746,101253.015625,283.72,155.675781,5.501875,-2.849099,1.978394,0.167083,-0.261799,289.28,4.01,35.57,82.03,144.47,5.875972,1,1,0,1,0,,,,,,,,
623756,101215.015625,283.72,155.675781,4.371812,-2.786850,2.028413,0.142606,-0.313946,289.28,4.01,37.01,84.08,144.60,8.979217,1,1,0,1,0,,,,,,,,
623766,101215.015625,283.72,155.675781,3.562572,-3.303998,2.117808,0.074495,-0.346937,289.28,4.01,38.11,85.78,144.72,8.979217,1,1,0,1,0,,,,,,,,
623776,101215.015625,283.72,155.675781,4.175487,-3.016694,2.165698,0.029798,-0.372478,289.23,4.01,38.95,87.21,144.83,8.979217,1,1,0,1,0,,,,,,,,
623786,101196.015625,283.72,155.675781,2.528276,-4.098873,2.208267,-0.002128,-0.358643,289.43,4.01,39.97,88.81,144.93,10.531194,1,1,0,1,0,,,,,,,,
623796,101177.015625,283.72,155.675781,2.413355,-3.572148,2.248707,-0.056403,-0.365029,289.38,4.01,41.14,90.53,145.02,12.083406,1,1,0,1,0,,,,,,,,
623806,101177.015625,283.72,155.675781,1.862688,-2.489969,2.278506,-0.091523,-0.326717,289.23,4.01,42.03,91.97,145.10,12.083406,1,1,0,1,0,,,,,,,,
623816,101177.015625,283.72,155.675781,1.829170,-3.754108,2.300854,-0.130899,-0.271377,289.23,4.03,42.71,93.18,145.17,12.083406,1,1,0,1,0,,,,,,,,
623826,101158.015625,283.72,155.675781,1.714248,-2.782062,2.327460,-0.159633,-0.216037,289.19,4.03,43.62,94.61,145.24,13.635854,1,1,0,1,0,,,,,,,,
623836,101139.031250,283.72,155.675781,1.091755,-2.580949,2.323203,-0.156441,-0.138349,289.04,4.04,44.69,96.19,145.30,15.187262,1,1,0,1,0,,,,,,,,
623846,101139.031250,283.72,155.675781,1.321599,-2.906560,2.327460,-0.159633,-0.064917,289.19,4.04,45.51,97.50,145.35,15.187262,1,1,0,1,0,,,,,,,,
623856,101101.031250,283.72,155.675781,0.809240,-1.225831,2.340231,-0.151119,0.024477,289.23,4.05,46.91,99.36,145.40,18.293340,1,1,0,1,0,,,,,,,,
623866,101063.031250,283.72,155.675781,0.924161,-2.461239,2.343423,-0.127707,0.096844,289.19,4.05,48.75,101.64,145.44,21.400362,1,1,0,1,0,,,,,,,,
623876,101063.031250,283.72,155.675781,1.800439,-0.469263,2.363644,-0.048954,0.156441,289.23,4.04,50.15,103.46,145.48,21.400362,1,1,0,1,0,,,,,,,,
623886,101044.031250,283.72,155.675781,1.680729,-1.742978,2.401956,-0.028734,0.205395,289.38,4.05,51.60,105.31,145.51,22.954229,1,1,0,1,0,,,,,,,,
623896,101006.046875,283.72,155.675781,1.527500,-2.135627,2.405148,0.063853,0.221358,289.19,4.05,53.48,107.56,145.54,26.061393,1,1,0,1,0,,,,,,,,
623906,100964.203125,283.70,155.675781,4.357447,-1.474828,2.471130,0.105358,0.228808,289.28,4.05,55.76,110.18,145.57,29.485353,1,1,0,1,0,,,,,,,,
623916,100968.046875,283.72,155.675781,2.140416,-2.762908,2.489222,0.177725,0.241579,289.23,4.05,57.41,112.17,145.60,29.170782,1,1,0,1,0,,,,,,,,
623926,100968.046875,283.72,155.675781,3.629609,-1.776497,2.534984,0.247964,0.213909,289.28,4.05,58.67,113.75,145.62,29.170782,1,1,0,1,0,,,,,,,,
623936,100930.046875,283.72,155.675781,3.481169,-3.045424,2.592452,0.284148,0.222423,289.28,4.05,60.40,115.78,145.64,32.281120,1,1,0,1,0,,,,,,,,
623946,100888.203125,283.70,155.675781,3.629609,-4.199429,2.639278,0.319267,0.195817,289.58,4.05,62.57,118.21,145.66,35.707168,1,1,0,1,0,,,,,,,,
623956,100869.218750,283.70,155.675781,4.817133,-4.860229,2.699939,0.267120,0.137285,289.38,4.05,64.60,120.49,145.67,37.261932,1,1,0,1,0,,,,,,,,
623966,100854.062500,283.72,155.675781,3.500322,-3.964797,2.755279,0.252221,0.109615,289.28,4.05,66.45,122.57,145.69,38.503356,1,1,0,1,0,,,,,,,,
623976,100816.062500,283.72,155.675781,3.232172,-4.726153,2.829774,0.256478,0.067046,288.99,4.05,68.64,124.95,145.70,41.616542,1,1,0,1,0,,,,,,,,
623986,100812.218750,283.70,155.675781,3.691859,-3.859452,2.919169,0.181982,0.029798,289.04,4.05,70.37,126.87,145.72,41.931495,1,1,0,1,0,,,,,,,,
623996,100797.078125,283.72,155.675781,4.371812,-6.023811,2.970252,0.173468,0.027669,289.04,4.05,72.00,128.67,145.73,43.172210,1,1,0,1,0,,,,,,,,
624006,100778.078125,283.72,155.675781,3.088520,-4.601655,3.024528,0.152184,0.022348,289.28,4.05,73.62,130.45,145.74,44.729393,1,1,0,1,0,,,,,,,,
624016,100759.078125,283.72,155.675781,3.189076,-5.382165,3.071353,0.076624,-0.019156,289.28,4.03,75.24,132.20,145.75,46.286819,1,1,0,1,0,,,,,,,,
624026,100736.234375,283.70,155.599166,1.939303,-4.299986,3.127757,0.104294,0.005321,289.23,4.02,76.94,134.02,145.75,48.159626,1,1,0,1,0,,,,,,,,
624036,100736.234375,283.70,155.139480,2.293645,-5.377377,3.175647,0.032990,0.000000,289.38,4.02,78.23,135.41,145.71,48.159626,1,1,0,1,0,,,,,,,,
624046,100683.093750,283.72,155.316650,2.576160,-6.675034,3.191611,0.030862,0.029798,289.38,4.01,80.29,137.55,145.69,52.517608,1,1,0,1,0,,,,,,,,
624056,100641.250000,283.70,151.643951,0.502782,-5.540182,3.225666,-0.034055,0.069174,289.23,4.01,82.71,139.99,145.32,55.950462,1,1,0,1,0,,,,,,,,
624066,100664.093750,283.72,146.376693,1.814804,-3.993528,3.279942,-0.106422,0.118128,289.28,4.01,84.09,141.34,144.49,54.076221,1,1,0,1,0,,,,,,,,
624076,100607.093750,283.72,143.163681,1.647210,-4.213794,3.365080,-0.081945,0.159633,289.43,4.01,86.30,143.46,143.43,58.753490,1,1,0,1,0,,,,,,,,
624086,100584.265625,283.70,140.826934,2.226607,-3.471592,3.437447,-0.100037,0.197945,289.38,4.01,88.44,145.47,142.24,60.627307,1,1,0,1,0,,,,,,,,
624096,100531.109375,283.72,138.777511,1.168370,-5.918466,3.436383,-0.083009,0.225615,289.23,4.01,91.16,148.00,140.98,64.991905,1,1,0,1,0,,,,,,,,
624106,100512.109375,283.72,135.133529,1.843535,-2.935291,3.454474,-0.078752,0.249028,289.38,4.01,93.60,150.21,139.49,66.552421,1,1,0,1,0,,,,,,,,
624116,100508.281250,283.70,131.240554,3.529053,-3.098096,3.500236,-0.065981,0.283083,289.38,4.01,95.54,151.87,137.77,66.866867,1,1,0,1,0,,,,,,,,
624126,100474.109375,283.72,128.937332,3.548206,-2.968810,3.524713,-0.064917,0.290533,289.23,4.01,97.70,153.72,135.99,69.674186,1,1,0,1,0,,,,,,,,
624136,100451.281250,283.70,127.357162,4.232948,-2.308010,3.641778,-0.022348,0.289469,289.23,4.01,99.81,155.47,134.24,71.550010,1,1,0,1,0,,,,,,,,
624146,100413.296875,283.70,125.786567,3.782838,-2.633621,3.690732,0.008513,0.272441,289.38,4.01,102.18,157.45,132.50,74.672012,1,1,0,1,0,,,,,,,,
624156,100375.296875,283.70,121.256736,4.309563,-2.767697,3.735430,0.036183,0.243707,289.38,4.01,104.76,159.57,130.49,77.796257,1,1,0,1,0,,,,,,,,
624166,100360.125000,283.72,121.290252,5.037400,-2.920926,3.748201,0.030862,0.206459,289.38,4.01,107.02,161.36,128.68,79.043914,1,1,0,1,0,,,,,,,,
624176,100341.140625,283.72,119.202514,6.038176,-2.418143,3.767357,0.097908,0.166019,289.23,4.01,109.12,162.96,126.85,80.605300,1,1,0,1,0,,,,,,,,
624186,100299.312500,283.70,118.297500,5.473145,-2.724601,3.833339,0.092587,0.114936,289.43,4.01,111.56,164.86,125.10,84.046340,1,1,0,1,0,,,,,,,,
624196,100265.140625,283.72,115.683036,7.455543,-2.336740,3.914220,0.079816,0.058532,289.43,4.01,114.11,166.82,123.27,86.858390,1,1,0,1,0,,,,,,,,
624206,100261.312500,283.70,114.284820,5.396530,-4.333505,3.979137,0.079816,0.015963,289.38,4.01,116.12,168.23,121.48,87.173461,1,1,0,1,0,,,,,,,,
624216,100227.156250,283.72,110.090179,4.663904,-4.453215,3.989780,0.063853,-0.038312,289.19,4.03,118.34,169.78,119.46,89.985092,1,1,0,1,0,,,,,,,,
624226,100185.328125,283.70,112.292846,4.434061,-4.161122,4.017450,0.091523,-0.079816,289.23,4.03,120.88,171.65,117.84,93.429298,1,1,0,1,0,,,,,,,,
624236,100189.156250,283.72,111.411781,3.940855,-3.380612,4.084496,-0.008513,-0.129835,288.99,4.04,122.71,172.80,116.30,93.114036,1,1,0,1,0,,,,,,,,
624246,100147.343750,283.70,110.832382,3.835510,-4.630385,4.116423,0.029798,-0.130899,289.43,4.05,124.96,174.34,114.85,96.558013,1,1,0,1,0,,,,,,,,
624256,100132.156250,283.72,105.191642,2.097320,-3.830722,4.120679,-0.028734,-0.138349,289.28,4.05,126.97,175.58,112.99,97.809257,1,1,0,1,0,,,,,,,,
624266,100128.343750,283.70,101.308250,2.772485,-4.592078,4.124937,-0.076624,-0.083009,289.38,4.05,128.57,176.38,110.95,98.123374,1,1,0,1,0,,,,,,,,
624276,100109.343750,283.70,105.656120,1.910572,-4.371812,4.150478,-0.119193,-0.039376,289.23,4.05,130.17,177.19,109.52,99.688980,1,1,0,1,0,,,,,,,,
624286,100090.343750,283.70,101.729629,0.028730,-5.023035,4.164313,-0.204331,0.025541,289.28,4.05,131.76,177.97,107.84,101.254821,1,1,0,1,0,,,,,,,,
624296,100037.171875,283.72,8.676587,2.882618,1.144428,4.281377,-0.114936,0.131963,289.23,4.05,134.14,178.73,97.48,105.638145,1,1,0,1,0,,,,,,,,
624306,100018.171875,283.72,115.012657,-10.405200,-5.430049,4.083432,-0.128771,0.219230,289.23,4.05,136.21,180.04,98.22,107.204902,1,1,0,1,0,,,,,,,,
624316,99995.359375,283.70,70.068702,7.623137,-14.384363,4.220716,-0.106422,0.278826,289.09,4.05,138.29,180.98,94.61,109.086357,1,1,0,1,0,,,,,,,,
624326,99957.375000,283.70,45.523349,2.030282,0.962469,4.276056,-0.117064,0.245836,289.43,4.05,140.66,181.98,89.01,112.219886,1,1,0,1,0,,,,,,,,
624336,99919.375000,283.70,31.914707,5.894524,-3.687070,4.303726,-0.097908,0.294790,289.43,4.05,143.24,183.05,82.64,115.355674,1,1,0,1,0,,,,,,,,
624346,99900.390625,283.70,26.642675,5.736507,3.768473,4.314368,0.080881,0.233065,289.28,4.05,145.57,183.82,76.39,116.922637,1,1,0,1,0,,,,,,,,
624356,99881.390625,283.70,27.092786,6.205770,-1.757344,4.293084,0.086202,0.184110,289.43,4.05,147.70,184.39,70.77,118.491127,1,1,0,1,0,,,,,,,,
624366,99866.203125,283.72,26.867731,6.306327,-0.703895,4.270735,0.092587,0.048954,288.99,4.05,149.62,184.73,65.66,119.745071,1,1,0,1,0,,,,,,,,
624376,99843.390625,283.70,26.422409,5.315127,-2.274491,4.307983,0.111743,0.031926,289.09,4.05,151.53,185.04,61.00,121.628845,1,1,0,1,0,,,,,,,,
624386,99828.203125,283.72,25.421632,6.325480,-2.600102,4.352680,0.050018,-0.059596,289.28,4.05,153.27,185.17,56.68,122.883171,1,1,0,1,0,,,,,,,,
624396,99805.406250,283.70,25.397691,4.199429,-2.825157,4.331396,0.032990,-0.064917,289.38,4.05,155.05,185.32,52.78,124.766235,1,1,0,1,0,,,,,,,,
624406,99786.406250,283.70,25.172636,5.214570,-3.778050,4.392057,-0.046825,-0.045761,289.23,4.05,156.77,185.41,49.22,126.335937,1,1,0,1,0,,,,,,,,
624416,99790.218750,283.72,23.913286,2.772485,-2.255337,4.433562,-0.104294,-0.035119,289.28,4.03,157.98,184.99,45.88,126.020942,1,1,0,1,0,,,,,,,,
624426,99767.406250,283.70,23.635559,3.394978,-1.570596,4.469745,-0.173468,-0.020220,289.23,4.02,159.35,184.72,42.84,127.905883,1,1,0,1,0,,,,,,,,
624436,99729.406250,283.70,23.300371,2.466027,0.732625,4.385671,-0.130899,0.000000,288.99,4.02,161.16,184.87,40.05,131.046508,1,1,0,1,0,,,,,,,,
624446,99695.218750,283.72,22.658723,2.662352,0.612915,4.438883,-0.114936,0.053211,289.09,4.01,163.23,185.25,37.46,133.872848,1,1,0,1,0,,,,,,,,
624456,99672.421875,283.70,22.730550,2.293645,1.848323,4.333525,-0.035119,0.086202,289.38,4.01,165.24,185.59,35.13,135.757949,1,1,0,1,0,,,,,,,,
624466,99634.437500,283.70,22.309171,2.537853,0.952892,4.307983,0.067046,0.109615,289.23,4.01,167.54,186.18,32.98,138.899703,1,1,0,1,0,,,,,,,,
624476,99634.437500,283.70,22.026655,2.446874,0.852335,4.345231,0.123450,0.103229,289.09,4.01,169.27,186.21,31.00,138.899703,1,1,0,1,0,,,,,,,,
624486,99615.437500,283.70,21.964406,3.725377,1.192312,4.250515,0.178789,0.122385,289.43,4.01,170.96,186.19,29.21,140.471588,1,1,0,1,0,,,,,,,,
624496,99558.437500,283.70,21.830329,4.017470,-0.076614,4.262221,0.228808,0.101101,289.38,4.01,173.40,186.91,27.58,145.188690,1,1,0,1,0,,,,,,,,
624506,99558.437500,283.70,21.739351,2.815581,-1.537077,4.282442,0.221358,0.086202,289.43,4.01,175.23,187.02,26.09,145.188690,1,1,0,1,0,,,,,,,,
624516,99558.437500,283.70,20.824766,3.308786,-0.354341,4.310111,0.247964,0.077688,289.63,4.01,176.61,186.68,24.66,145.188690,1,1,0,1,0,,,,,,,,
624526,99539.453125,283.70,20.551826,2.772485,-2.523488,4.312240,0.203267,0.064917,289.19,4.01,178.04,186.38,23.34,146.760253,1,1,0,1,0,,,,,,,,
624536,99520.453125,283.70,19.574993,5.176263,-3.002328,4.346295,0.168147,0.079816,289.09,4.01,179.50,186.11,22.05,148.333358,1,1,0,1,0,,,,,,,,
624546,99501.453125,283.70,20.930110,2.954444,-2.782062,4.359066,0.118128,0.079816,289.23,4.01,180.98,185.87,21.01,149.906692,1,1,0,1,0,,,,,,,,
624556,99482.453125,283.70,19.369091,5.161898,-3.950432,4.381414,0.059596,0.054275,289.28,4.01,182.48,185.64,19.92,151.480285,1,1,0,1,0,,,,,,,,
624566,99482.453125,283.70,19.886238,3.988739,-3.912125,4.426112,-0.026605,0.071303,289.19,4.01,183.61,185.05,18.99,151.480285,1,1,0,1,0,,,,,,,,
624576,99463.453125,283.70,19.646818,5.099649,-3.620033,4.468681,-0.107486,0.035119,289.38,4.01,184.84,184.56,18.12,153.054107,1,1,0,1,0,,,,,,,,
624586,99444.468750,283.70,19.589357,4.649539,-5.070919,4.506993,-0.229872,0.019156,289.09,4.01,186.15,184.16,17.33,154.626892,1,1,0,1,0,,,,,,,,
624596,99425.468750,283.70,17.812860,3.988739,-0.909796,4.528278,-0.191560,0.022348,289.09,4.01,187.53,183.80,16.45,156.201202,1,1,0,1,0,,,,,,,,
624606,99406.468750,283.70,17.511190,3.342305,-1.695094,4.506993,-0.244771,0.038312,288.99,4.01,188.95,183.49,15.62,157.775772,1,1,0,1,0,,,,,,,,
624616,99368.484375,283.70,17.808071,3.993528,-0.780509,4.492094,-0.240514,0.029798,289.23,4.03,190.80,183.60,14.89,160.924316,1,1,0,1,0,,,,,,,,
624626,99330.484375,283.70,17.266983,3.442862,0.708683,4.482516,-0.162826,0.036183,289.28,4.03,192.97,184.01,14.18,164.075149,1,1,0,1,0,,,,,,,,
624636,99311.484375,283.70,16.974889,4.625597,-0.225054,4.472938,-0.146863,0.022348,289.38,4.03,195.00,184.28,13.52,165.650924,1,1,0,1,0,,,,,,,,
624646,99292.484375,283.70,16.989255,4.371812,0.344765,4.454846,-0.095780,-0.002128,289.38,4.04,196.92,184.43,12.91,167.226943,1,1,0,1,0,,,,,,,,
624656,99273.500000,283.70,16.797718,3.098096,0.962469,4.400571,-0.039376,-0.009578,289.28,4.04,198.75,184.50,12.35,168.801910,1,1,0,1,0,,,,,,,,
624666,99235.500000,283.70,16.644489,4.596867,0.009576,4.361194,0.022348,-0.041504,289.09,4.04,200.91,184.88,11.82,171.955184,1,1,0,1,0,,,,,,,,
624676,99231.718750,283.68,15.988478,4.649539,0.756567,4.383543,0.037247,-0.053211,289.04,4.05,202.61,184.82,11.29,172.269012,1,1,0,1,0,,,,,,,,
624686,99212.734375,283.68,17.056293,2.782062,0.852335,4.408020,0.103229,-0.053211,289.28,4.05,204.28,184.72,10.90,173.844757,1,1,0,1,0,,,,,,,,
624696,99193.734375,283.68,16.242263,2.983175,0.162805,4.422919,0.081945,-0.054275,289.28,4.05,205.93,184.60,10.48,175.422058,1,1,0,1,0,,,,,,,,
624706,99174.734375,283.68,15.969325,2.547430,-1.671152,4.439947,0.054275,-0.056403,289.04,4.05,207.56,184.46,10.07,176.999588,1,1,0,1,0,,,,,,,,
624716,99159.515625,283.70,16.050727,3.471592,0.167594,4.418663,0.067046,-0.026605,289.38,4.05,209.09,184.23,9.71,178.263351,1,1,0,1,0,,,,,,,,
624726,99140.515625,283.70,15.926229,1.819593,-1.048660,4.502737,0.114936,0.012770,289.23,4.05,210.64,184.00,9.37,179.841323,1,1,0,1,0,,,,,,,,
624736,99098.750000,283.68,15.193603,2.308010,-1.043871,4.433562,0.077688,0.039376,289.28,4.04,212.66,184.24,8.99,183.310882,1,1,0,1,0,,,,,,,,
624746,99098.750000,283.68,15.241487,2.082955,0.339976,4.459103,0.065981,0.070238,289.28,4.05,214.18,183.99,8.65,183.310882,1,1,0,1,0,,,,,,,,
624756,99060.765625,283.68,13.369221,2.844311,-2.327163,4.479323,0.094716,0.101101,289.38,4.05,216.11,184.12,8.17,186.467361,1,1,0,1,0,,,,,,,,
624766,99041.765625,283.68,12.296619,2.987963,-0.761356,4.496351,0.040440,0.108550,289.38,4.05,217.95,184.15,7.63,188.046615,1,1,0,1,0,,,,,,,,
624776,99060.765625,283.68,10.998962,2.312798,-0.948103,4.484644,0.004256,0.108550,289.38,4.05,218.94,183.35,7.02,186.467361,1,1,0,1,0,,,,,,,,
624786,99007.546875,283.70,8.441954,3.284844,-1.024718,4.486773,0.015963,0.138349,289.23,4.05,220.78,183.36,6.22,190.891448,1,1,0,1,0,,,,,,,,
624796,98984.781250,283.68,6.124367,3.663128,-0.785298,4.514442,0.005321,0.125578,289.19,4.05,222.64,183.36,5.28,192.784545,1,1,0,1,0,,,,,,,,
624806,98965.781250,283.68,4.453215,3.040636,-1.335964,4.532535,-0.042569,0.098972,289.23,4.05,224.43,183.28,4.27,194.364776,1,1,0,1,0,,,,,,,,
624816,98946.781250,283.68,0.507570,4.175487,0.493205,4.514442,0.001064,0.101101,289.38,4.03,226.17,183.12,2.98,195.945251,1,1,0,1,0,,,,,,,,
624826,98927.781250,283.68,-1.939303,2.451662,-1.455674,4.541048,0.032990,0.071303,289.19,4.02,227.86,182.91,1.58,197.525985,1,1,0,1,0,,,,,,,,
624836,98908.796875,283.68,-4.970362,3.126827,0.373495,4.537856,0.004256,0.065981,289.19,4.02,229.53,182.63,0.02,199.105651,1,1,0,1,0,,,,,,,,
624846,98908.796875,283.68,-7.335834,2.868253,-0.167594,4.498479,-0.072367,0.044697,289.28,4.01,230.79,181.93,-1.60,199.105651,1,1,0,1,0,,,,,,,,
624856,98889.796875,283.68,-8.259995,1.594538,-0.723048,4.528278,0.022348,0.041504,289.23,4.01,232.11,181.31,-3.16,200.686859,1,1,0,1,0,,,,,,,,
624866,98851.796875,283.68,-11.008539,2.863465,-0.167594,4.532535,0.004256,0.030862,289.23,4.01,233.90,181.10,-4.84,203.850036,1,1,0,1,0,,,,,,,,
624876,98832.812500,283.68,-12.655750,2.250549,-0.464475,4.469745,-0.036183,0.037247,289.19,4.01,235.63,180.83,-6.51,205.430694,1,1,0,1,0,,,,,,,,
624886,98832.812500,283.68,-14.638149,2.020706,-0.105344,4.446332,-0.020220,0.021284,289.19,4.01,236.92,180.12,-8.21,205.430694,1,1,0,1,0,,,,,,,,
624896,98813.812500,283.68,-16.141708,1.958456,0.119710,4.481452,-0.038312,0.044697,289.23,4.01,238.29,179.47,-9.90,207.012893,1,1,0,1,0,,,,,,,,
624906,98813.812500,283.68,-17.223886,2.102108,1.450886,4.432497,0.009578,0.053211,289.19,4.01,239.30,178.48,-11.52,207.012893,1,1,0,1,0,,,,,,,,
624916,98775.828125,283.68,-18.511966,2.360682,0.636857,4.460167,0.002128,0.048954,289.28,4.01,240.85,177.99,-13.12,210.176727,1,1,0,1,0,,,,,,,,
624926,98756.828125,283.68,-20.594923,2.935291,1.642422,4.396314,0.001064,0.071303,289.43,4.01,242.40,177.50,-14.76,211.759674,1,1,0,1,0,,,,,,,,
624936,98756.828125,283.68,-20.676324,2.499546,-0.225054,4.415470,-0.028734,0.054275,289.28,4.01,243.56,176.62,-16.25,211.759674,1,1,0,1,0,,,,,,,,
624946,98737.828125,283.68,-19.048269,2.542642,0.866701,4.443140,0.002128,0.068110,289.23,4.00,244.81,175.86,-17.45,213.342864,1,1,0,1,0,,,,,,,,
624956,98699.843750,283.68,-17.951723,1.570596,0.311246,4.430369,0.005321,0.047890,289.19,4.01,246.54,175.57,-18.43,216.508666,1,1,0,1,0,,,,,,,,
624966,98699.843750,283.68,-21.193473,3.179499,0.579396,4.472938,-0.014899,0.044697,289.23,4.01,247.83,174.83,-19.62,216.508666,1,1,0,1,0,,,,,,,,
624976,98680.843750,283.68,-21.619640,3.083731,0.703895,4.518700,-0.064917,0.041504,289.19,4.01,249.19,174.17,-20.74,218.092605,1,1,0,1,0,,,,,,,,
624986,98677.078125,283.67,-20.685901,2.786850,0.617704,4.604902,-0.067046,0.017027,289.53,4.01,250.28,173.25,-21.66,218.406555,1,1,0,1,0,,,,,,,,
624996,98639.078125,283.67,-21.351490,2.585737,1.034295,4.655985,-0.101101,0.001064,289.28,4.01,251.88,172.83,-22.57,221.575241,1,1,0,1,0,,,,,,,,
625006,98639.078125,283.67,-21.025878,2.734178,1.431732,4.721967,-0.085138,-0.005321,289.28,4.01,253.08,172.02,-23.35,221.575241,1,1,0,1,0,,,,,,,,
625016,98601.093750,283.67,-20.930110,2.126051,1.733402,4.762407,-0.112807,-0.017027,289.23,4.03,254.77,171.69,-24.05,224.743621,1,1,0,1,0,,,,,,,,
625026,98582.093750,283.67,-20.436904,2.212242,1.910572,4.776242,-0.107486,-0.010642,289.23,4.04,256.42,171.34,-24.64,226.328826,1,1,0,1,0,,,,,,,,
625036,98582.093750,283.67,-20.848707,2.245761,2.825157,4.737930,-0.063853,-0.002128,289.19,4.04,257.66,170.59,-25.21,226.328826,1,1,0,1,0,,,,,,,,
625046,98544.109375,283.67,-21.346702,1.958456,2.327163,4.783691,-0.022348,-0.001064,289.23,4.04,259.37,170.30,-25.77,229.498687,1,1,0,1,0,,,,,,,,
625056,98544.109375,283.67,-21.294029,2.183511,2.121262,4.796463,-0.003192,0.006385,289.43,4.04,260.66,169.59,-26.28,229.498687,1,1,0,1,0,,,,,,,,
625066,98506.125000,283.67,-21.480777,1.819593,2.432508,4.818811,-0.011706,-0.009578,289.28,4.05,262.41,169.34,-26.75,232.669540,1,1,0,1,0,,,,,,,,
625076,98506.125000,283.67,-21.447257,2.068590,1.963245,4.830518,0.006385,-0.001064,289.43,4.05,263.72,168.67,-27.18,232.669540,1,1,0,1,0,,,,,,,,
625086,98487.125000,283.67,-20.958841,1.680729,1.776497,4.861380,0.041504,-0.002128,289.23,4.05,265.09,168.06,-27.52,234.255996,1,1,0,1,0,,,,,,,,
625096,98468.125000,283.67,-20.733785,2.212242,1.608903,4.814554,0.059596,-0.001064,289.23,4.05,266.51,167.51,-27.80,235.842681,1,1,0,1,0,,,,,,,,
625106,98468.125000,283.67,-20.226215,1.091755,2.351105,4.787949,0.065981,0.007449,289.23,4.05,267.58,166.62,-28.01,235.842681,1,1,0,1,0,,,,,,,,
625116,98449.140625,283.67,-20.752939,1.120486,1.776497,4.792205,0.041504,-0.001064,289.09,4.05,268.76,165.86,-28.25,237.428329,1,1,0,1,0,,,,,,,,
625126,98430.140625,283.67,-21.102493,2.030282,1.000776,4.812426,0.030862,0.009578,289.09,4.05,270.04,165.19,-28.50,239.015518,1,1,0,1,0,,,,,,,,
625136,98430.140625,283.67,-20.819976,1.221042,1.484405,4.795398,-0.007449,0.012770,289.28,4.05,271.00,164.21,-28.70,239.015518,1,1,0,1,0,,,,,,,,
625146,98411.140625,283.67,-20.690690,1.125274,1.498770,4.792205,0.000000,0.020220,289.38,4.05,272.11,163.39,-28.87,240.602966,1,1,0,1,0,,,,,,,,
625156,98373.156250,283.67,-21.083339,1.589749,1.417367,4.775178,-0.029798,0.019156,289.19,4.05,273.72,163.07,-29.06,243.777282,1,1,0,1,0,,,,,,,,
625166,98373.156250,283.67,-20.575769,1.771709,1.446097,4.724095,-0.006385,0.034055,289.09,4.05,274.93,162.36,-29.19,243.777282,1,1,0,1,0,,,,,,,,
625176,98354.156250,283.67,-21.068975,2.197877,0.976834,4.779435,-0.035119,0.034055,289.19,4.05,276.23,161.74,-29.34,245.365463,1,1,0,1,0,,,,,,,,
625186,98335.156250,283.67,-20.743362,1.915361,1.618480,4.736865,-0.017027,0.041504,289.23,4.05,277.60,161.19,-29.46,246.953903,1,1,0,1,0,,,,,,,,
625196,98312.437500,283.65,-20.293252,1.120486,1.896207,4.726223,-0.041504,0.035119,289.28,4.05,279.09,160.78,-29.52,248.853561,1,1,0,1,0,,,,,,,,
625206,98293.453125,283.65,-20.202274,1.800439,1.388636,4.749637,-0.055339,0.014899,289.38,4.05,280.60,160.39,-29.56,250.441223,1,1,0,1,0,,,,,,,,
625216,98278.171875,283.67,-20.848707,1.996764,1.690306,4.748572,-0.005321,0.040440,289.23,4.03,282.06,159.94,-29.67,251.719390,1,1,0,1,0,,,,,,,,
625226,98278.171875,283.67,-19.828777,1.541865,2.135627,4.760279,-0.014899,0.020220,289.28,4.02,283.14,159.15,-29.66,251.719390,1,1,0,1,0,,,,,,,,
625236,98236.468750,283.65,-20.015525,2.154781,1.637633,4.719839,-0.030862,-0.002128,289.04,4.01,284.82,158.94,-29.68,255.208358,1,1,0,1,0,,,,,,,,
625246,98240.187500,283.67,-20.001161,1.939303,2.595314,4.682590,0.040440,-0.006385,289.19,4.01,286.00,158.25,-29.69,254.897186,1,1,0,1,0,,,,,,,,
625256,98198.468750,283.65,-20.163967,1.805227,2.868253,4.677269,0.046825,-0.019156,289.04,4.01,287.76,158.11,-29.71,258.388549,1,1,0,1,0,,,,,,,,
625266,98217.468750,283.65,-19.852720,1.546654,2.073378,4.614480,0.022348,-0.031926,289.19,4.01,288.68,157.18,-29.71,256.798339,1,1,0,1,0,,,,,,,,
625276,98179.484375,283.65,-20.417751,1.283292,1.407790,4.663434,0.028734,-0.047890,289.28,4.01,290.15,156.78,-29.75,259.977722,1,1,0,1,0,,,,,,,,
625286,98160.484375,283.65,-20.403387,0.933738,2.025494,4.598516,0.076624,-0.025541,289.09,4.01,291.65,156.42,-29.80,261.568450,1,1,0,1,0,,,,,,,,
625296,98160.484375,283.65,-19.704278,1.163581,1.403002,4.598516,0.029798,-0.038312,289.23,4.01,292.77,155.69,-29.77,261.568450,1,1,0,1,0,,,,,,,,
625306,98141.484375,283.65,-19.819200,0.234631,2.154781,4.617672,0.067046,-0.010642,289.28,4.01,294.01,155.09,-29.75,263.159423,1,1,0,1,0,,,,,,,,
625316,98122.500000,283.65,-19.914968,1.216254,1.675941,4.592131,0.046825,0.001064,289.23,4.01,295.33,154.57,-29.75,264.749328,1,1,0,1,0,,,,,,,,
625326,98103.500000,283.65,-19.646818,1.412578,2.408566,4.549562,0.041504,-0.002128,289.09,4.01,296.71,154.11,-29.72,266.340789,1,1,0,1,0,,,,,,,,
625336,98103.500000,283.65,-19.962854,0.440533,2.887407,4.543177,0.068110,0.021284,289.19,4.01,297.75,153.33,-29.72,266.340789,1,1,0,1,0,,,,,,,,
625346,98084.500000,283.65,-19.493589,1.972822,2.035071,4.506993,0.086202,0.014899,288.99,4.01,298.91,152.68,-29.68,267.932525,1,1,0,1,0,,,,,,,,
625356,98084.500000,283.65,-19.072210,1.393425,1.685518,4.547434,0.100037,0.019156,289.04,4.01,299.78,151.75,-29.60,267.932525,1,1,0,1,0,,,,,,,,
625366,98046.515625,283.65,-19.699491,0.670376,2.245761,4.532535,0.116000,0.017027,289.28,4.01,301.22,151.38,-29.59,271.115386,1,1,0,1,0,,,,,,,,
625376,98027.531250,283.65,-19.340360,2.379836,1.206677,4.521892,0.084073,-0.005321,289.23,4.01,302.70,151.06,-29.55,272.706542,1,1,0,1,0,,,,,,,,
625386,98027.531250,283.65,-19.484012,1.589749,1.704671,4.545306,0.101101,-0.005321,289.04,4.01,303.81,150.37,-29.52,272.706542,1,1,0,1,0,,,,,,,,
625396,97989.531250,283.65,-19.464859,2.331952,1.058237,4.572975,0.063853,-0.023412,289.23,4.01,305.42,150.19,-29.50,275.892242,1,1,0,1,0,,,,,,,,
625406,97989.531250,283.65,-19.273323,1.805227,1.671152,4.542112,0.051082,-0.036183,289.04,4.00,306.64,149.62,-29.46,275.892242,1,1,0,1,0,,,,,,,,
625416,97970.546875,283.65,-19.622877,0.536301,1.177947,4.544241,0.043633,-0.030862,289.23,4.03,307.94,149.14,-29.45,277.484161,1,1,0,1,0,,,,,,,,
625426,97951.546875,283.65,-19.527109,1.546654,1.225831,4.542112,0.005321,-0.038312,289.19,4.03,309.31,148.73,-29.44,279.077606,1,1,0,1,0,,,,,,,,
625436,97932.546875,283.65,-19.067422,1.699883,2.873042,4.542112,0.019156,-0.056403,289.28,4.04,310.74,148.38,-29.39,280.671325,1,1,0,1,0,,,,,,,,
625446,97913.562500,283.65,-19.335573,0.952892,1.326387,4.493158,0.019156,-0.065981,289.38,4.04,312.20,148.07,-29.36,282.264007,1,1,0,1,0,,,,,,,,
625456,97913.562500,283.65,-19.115306,2.355894,3.007117,4.536791,0.043633,-0.062789,289.09,4.04,313.30,147.41,-29.32,282.264007,1,1,0,1,0,,,,,,,,
625466,97875.562500,283.65,-19.081787,1.532289,0.852335,4.483581,0.024477,-0.050018,289.23,4.05,314.91,147.26,-29.28,285.452697,1,1,0,1,0,,,,,,,,
625476,97875.562500,283.65,-18.669984,1.067813,1.661575,4.498479,0.026605,-0.069174,289.09,4.05,316.12,146.72,-29.20,285.452697,1,1,0,1,0,,,,,,,,
625486,97875.562500,283.65,-18.947711,1.819593,1.005564,4.484644,0.025541,-0.053211,289.38,4.05,317.03,145.89,-29.15,285.452697,1,1,0,1,0,,,,,,,,
625496,97856.578125,283.65,-18.990808,0.833182,2.212242,4.462296,0.023412,-0.043633,289.23,4.05,318.10,145.22,-29.12,287.046081,1,1,0,1,0,,,,,,,,
625506,97837.578125,283.65,-18.684349,2.025494,2.346317,4.469745,0.050018,-0.055339,288.99,4.05,319.29,144.69,-29.06,288.641052,1,1,0,1,0,,,,,,,,
625516,97833.828125,283.63,-18.104953,1.891419,1.608903,4.441011,0.020220,-0.053211,289.04,4.05,320.26,143.95,-28.95,288.955902,1,1,0,1,0,,,,,,,,
625526,97799.593750,283.65,-19.115306,1.307234,2.355894,4.428240,0.057468,-0.064917,289.28,4.05,321.70,143.66,-28.94,291.830444,1,1,0,1,0,,,,,,,,
625536,97799.593750,283.65,-18.124107,1.824381,2.169146,4.441011,0.065981,-0.088330,289.28,4.05,322.78,143.03,-28.85,291.830444,1,1,0,1,0,,,,,,,,
625546,97780.593750,283.65,-18.373104,1.168370,1.704671,4.444204,0.107486,-0.092587,289.09,4.05,323.99,142.53,-28.78,293.426177,1,1,0,1,0,,,,,,,,
625556,97757.859375,283.63,-18.325220,1.661575,2.619256,4.425048,0.108550,-0.110679,289.23,4.05,325.36,142.20,-28.72,295.335845,1,1,0,1,0,,,,,,,,
625566,97738.859375,283.63,-17.994819,1.072602,1.326387,4.404828,0.095780,-0.116000,289.38,4.05,326.79,141.93,-28.63,296.932128,1,1,0,1,0,,,,,,,,
625576,97700.875000,283.63,-18.124107,1.039083,1.886630,4.381414,0.079816,-0.096844,289.09,4.05,328.66,142.08,-28.57,300.124114,1,1,0,1,0,,,,,,,,
625586,97723.609375,283.65,-17.817647,0.263362,1.177947,4.347359,0.098972,-0.065981,289.09,4.05,329.58,141.33,-28.47,298.213531,1,1,0,1,0,,,,,,,,
625596,97700.875000,283.63,-17.650054,0.574608,1.814804,4.373965,0.061725,-0.068110,289.23,4.05,330.75,140.81,-28.38,300.124114,1,1,0,1,0,,,,,,,,
625606,97681.875000,283.63,-17.970878,0.469263,0.689530,4.354809,0.034055,-0.037247,289.38,4.05,332.02,140.40,-28.32,301.721160,1,1,0,1,0,,,,,,,,
625616,97681.875000,283.63,-17.353174,1.675941,1.335964,4.359066,0.010642,-0.036183,289.23,4.03,332.97,139.68,-28.21,301.721160,1,1,0,1,0,,,,,,,,
625626,97662.890625,283.63,-18.066646,0.713472,1.110909,4.318625,0.020220,-0.001064,289.09,4.02,334.07,139.12,-28.17,303.317108,1,1,0,1,0,,,,,,,,
625636,97643.890625,283.63,-17.961301,0.320823,1.977610,4.311176,0.007449,0.014899,289.28,4.02,335.30,138.68,-28.13,304.914642,1,1,0,1,0,,,,,,,,
625646,97643.890625,283.63,-18.229452,1.489193,1.393425,4.310111,0.042569,0.035119,289.23,4.01,336.21,137.95,-28.12,304.914642,1,1,0,1,0,,,,,,,,
625656,97624.906250,283.63,-17.539920,0.124498,1.776497,4.287763,0.042569,0.036183,289.43,4.01,337.29,137.38,-28.05,306.511138,1,1,0,1,0,,,,,,,,
625666,97605.906250,283.63,-17.434576,1.379060,1.187524,4.310111,0.044697,0.051082,289.38,4.01,338.50,136.95,-27.97,308.109161,1,1,0,1,0,,,,,,,,
625676,97586.906250,283.63,-17.132907,0.569819,1.561019,4.280313,0.043633,0.076624,289.43,4.01,339.79,136.61,-27.87,309.707458,1,1,0,1,0,,,,,,,,
625686,97567.921875,283.63,-17.583017,0.445321,1.244984,4.299469,0.022348,0.060660,289.23,4.01,341.17,136.34,-27.82,311.304687,1,1,0,1,0,,,,,,,,
625696,97548.921875,283.63,-16.730680,1.747767,0.914585,4.276056,0.060660,0.072367,289.04,4.01,342.59,136.13,-27.70,312.903472,1,1,0,1,0,,,,,,,,
625706,97529.937500,283.63,-17.041927,0.699106,1.599326,4.311176,0.059596,0.041504,289.28,4.01,344.06,135.97,-27.62,314.501190,1,1,0,1,0,,,,,,,,
625716,97548.921875,283.63,-16.759410,1.905784,0.574608,4.287763,0.042569,0.041504,289.38,4.01,344.76,135.06,-27.52,312.903472,1,1,0,1,0,,,,,,,,
625726,97510.937500,283.63,-17.094600,1.441309,2.288856,4.294148,0.058532,0.021284,289.09,4.01,346.08,134.76,-27.46,316.100494,1,1,0,1,0,,,,,,,,
625736,97529.937500,283.63,-16.826448,2.001552,0.474051,4.282442,0.020220,0.000000,289.43,4.01,346.67,133.76,-27.38,314.501190,1,1,0,1,0,,,,,,,,
625746,97472.953125,283.63,-16.845602,1.819593,1.297657,4.269671,0.039376,-0.007449,289.19,4.01,348.30,133.77,-27.31,319.298522,1,1,0,1,0,,,,,,,,
625756,97472.953125,283.63,-16.931793,1.474828,1.144428,4.262221,0.041504,-0.028734,289.09,4.00,349.52,133.40,-27.25,319.298522,1,1,0,1,0,,,,,,,,
625766,97472.953125,283.63,-16.759410,1.230619,1.225831,4.280313,0.020220,-0.025541,289.28,4.01,350.44,132.73,-27.19,319.298522,1,1,0,1,0,,,,,,,,
625776,97453.953125,283.63,-16.486473,2.178723,1.048660,4.270735,0.021284,-0.034055,289.23,4.01,351.52,132.22,-27.10,320.898590,1,1,0,1,0,,,,,,,,
625786,97434.968750,283.63,-16.630125,1.757344,1.043871,4.299469,0.007449,-0.064917,288.99,4.01,352.72,131.85,-27.04,322.497558,1,1,0,1,0,,,,,,,,
625796,97415.968750,283.63,-16.883909,0.919373,0.517147,4.264350,-0.012770,-0.063853,289.23,4.01,354.03,131.56,-27.00,324.098114,1,1,0,1,0,,,,,,,,
625806,97415.968750,283.63,-16.706739,2.039859,1.307234,4.253707,-0.009578,-0.067046,289.23,4.01,355.00,130.97,-26.95,324.098114,1,1,0,1,0,,,,,,,,
625816,97396.968750,283.63,-16.256629,1.029506,1.436521,4.256900,-0.045761,-0.080881,289.28,4.03,356.13,130.53,-26.87,325.698944,1,1,0,1,0,,,,,,,,
625826,97377.984375,283.63,-16.103401,1.019929,1.101332,4.245194,-0.048954,-0.084073,289.28,4.03,357.37,130.21,-26.78,327.298675,1,1,0,1,0,,,,,,,,
625836,97358.984375,283.63,-16.357185,1.503558,2.207453,4.236680,-0.037247,-0.081945,289.23,4.04,358.70,129.97,-26.72,328.899993,1,1,0,1,0,,,,,,,,
625846,97358.984375,283.63,-16.136919,0.785298,1.470039,4.207946,-0.012770,-0.072367,289.19,4.04,359.69,129.42,-26.64,328.899993,1,1,0,1,0,,,,,,,,
625856,97340.000000,283.63,-16.165649,0.814028,1.517923,4.201560,-0.017027,-0.063853,289.23,4.05,360.83,129.01,-26.58,330.500244,1,1,0,1,0,,,,,,,,
625866,97317.312500,283.62,-15.931017,1.230619,2.317587,4.170698,-0.023412,-0.056403,289.09,4.05,362.17,128.79,-26.50,332.412994,1,1,0,1,0,,,,,,,,
625876,97302.000000,283.63,-16.376338,-0.766144,2.236184,4.168570,0.015963,-0.029798,289.23,4.05,363.49,128.56,-26.47,333.704162,1,1,0,1,0,,,,,,,,
625886,97298.312500,283.62,-15.902287,1.364694,1.771709,4.166441,0.026605,-0.023412,289.09,4.05,364.55,128.09,-26.39,334.015106,1,1,0,1,0,,,,,,,,
625896,97260.328125,283.62,-15.643713,0.354341,0.842759,4.156863,0.037247,-0.011706,289.09,4.05,366.15,128.14,-26.30,337.218811,1,1,0,1,0,,,,,,,,
625906,97279.328125,283.62,-15.844826,-0.392649,1.742978,4.136643,0.042569,-0.005321,289.23,4.05,366.95,127.42,-26.24,335.616180,1,1,0,1,0,,,,,,,,
625916,97241.343750,283.62,-15.571887,2.403778,1.244984,4.120679,0.088330,0.002128,288.99,4.05,368.34,127.28,-26.16,338.820373,1,1,0,1,0,,,,,,,,
625926,97222.343750,283.62,-15.447388,0.416591,1.130063,4.135579,0.064917,0.013834,289.23,4.05,369.78,127.19,-26.07,340.423522,1,1,0,1,0,,,,,,,,
625936,97241.343750,283.62,-15.322890,0.272938,1.948880,4.140900,0.062789,0.013834,289.28,4.05,370.47,126.37,-25.98,338.820373,1,1,0,1,0,,,,,,,,
625946,97222.343750,283.62,-16.103401,1.561019,1.403002,4.123872,0.080881,0.013834,289.09,4.05,371.38,125.77,-25.97,340.423522,1,1,0,1,0,,,,,,,,
625956,97184.359375,283.62,-15.672444,1.182735,1.249773,4.099395,0.073431,0.036183,289.19,4.05,372.85,125.72,-25.93,343.629241,1,1,0,1,0,,,,,,,,
625966,97184.359375,283.62,-15.270217,1.690306,1.422155,4.117487,0.035119,0.004256,289.04,4.05,373.96,125.33,-25.84,343.629241,1,1,0,1,0,,,,,,,,
625976,97165.375000,283.62,-14.997279,1.024718,0.675164,4.139835,0.038312,0.017027,289.19,4.05,375.19,125.05,-25.74,345.231811,1,1,0,1,0,,,,,,,,
625986,97146.375000,283.62,-15.806519,0.905008,1.704671,4.120679,0.007449,-0.002128,289.04,4.05,376.51,124.87,-25.73,346.835968,1,1,0,1,0,,,,,,,,
625996,97127.375000,283.62,-14.848838,1.795651,0.646434,4.101523,0.002128,-0.001064,289.23,4.05,377.89,124.75,-25.63,348.440368,1,1,0,1,0,,,,,,,,
626006,97127.375000,283.62,-15.093047,0.378283,0.732625,4.146221,-0.013834,-0.003192,289.09,4.05,378.94,124.31,-25.56,348.440368,1,1,0,1,0,,,,,,,,
626016,97108.390625,283.62,-14.829685,1.541865,0.598550,4.112165,-0.020220,-0.023412,289.23,4.03,380.11,124.00,-25.47,350.043701,1,1,0,1,0,,,,,,,,
626026,97089.390625,283.62,-14.753070,1.460463,1.522712,4.124937,-0.031926,-0.021284,289.28,4.02,381.40,123.79,-25.38,351.648620,1,1,0,1,0,,,,,,,,
626036,97089.390625,283.62,-15.701174,0.531512,1.786074,4.098330,-0.018091,-0.030862,289.09,4.01,382.36,123.27,-25.39,351.648620,1,1,0,1,0,,,,,,,,
626046,97051.406250,283.62,-14.532804,2.489969,1.503558,4.071725,0.006385,-0.032990,289.28,4.02,383.88,123.30,-25.29,354.857910,1,1,0,1,0,,,,,,,,
626056,97051.406250,283.62,-14.638149,0.679953,1.082179,4.091945,-0.028734,-0.030862,289.38,4.01,385.02,122.97,-25.21,354.857910,1,1,0,1,0,,,,,,,,
626066,97051.406250,283.62,-14.743494,1.244984,0.603338,4.067468,-0.026605,-0.024477,289.04,4.01,385.87,122.36,-25.15,354.857910,1,1,0,1,0,,,,,,,,
626076,97032.421875,283.62,-14.705186,0.675164,1.407790,4.053633,-0.022348,-0.034055,289.19,4.01,386.91,121.93,-25.09,356.462249,1,1,0,1,0,,,,,,,,
626086,97013.421875,283.62,-14.638149,0.588973,1.517923,4.047248,0.003192,-0.015963,288.99,4.01,388.08,121.64,-25.02,358.068206,1,1,0,1,0,,,,,,,,
626096,96994.437500,283.62,-14.417881,1.498770,0.584185,4.045119,-0.020220,-0.024477,289.23,4.01,389.36,121.46,-24.95,359.673065,1,1,0,1,0,,,,,,,,
626106,96975.437500,283.62,-14.456189,0.000000,2.121262,4.021707,-0.008513,0.002128,289.28,4.01,390.72,121.36,-24.88,361.279510,1,1,0,1,0,,,,,,,,
626116,96975.437500,283.62,-14.762647,1.584961,0.689530,4.008936,-0.006385,-0.002128,289.09,4.01,391.74,120.93,-24.85,361.279510,1,1,0,1,0,,,,,,,,
626126,96956.437500,283.62,-14.106636,0.636857,0.948103,3.998294,0.009578,0.003192,289.23,4.01,392.90,120.64,-24.76,362.886199,1,1,0,1,0,,,,,,,,
626136,96937.453125,283.62,-14.542381,0.258573,0.847547,3.986587,-0.007449,0.012770,289.09,4.01,394.17,120.46,-24.72,364.491821,1,1,0,1,0,,,,,,,,
626146,96937.453125,283.62,-13.996502,1.503558,0.531512,3.992972,-0.002128,0.001064,289.09,4.01,395.13,119.98,-24.63,364.491821,1,1,0,1,0,,,,,,,,
626156,96918.453125,283.62,-14.676456,0.287304,0.603338,3.965302,-0.021284,0.018091,289.19,4.01,396.24,119.65,-24.62,366.099029,1,1,0,1,0,,,,,,,,
626166,96918.453125,283.62,-14.087482,0.531512,0.857124,3.941890,0.013834,0.024477,289.19,4.01,397.07,119.06,-24.55,366.099029,1,1,0,1,0,,,,,,,,
626176,96899.468750,283.62,-13.670891,1.920149,0.641646,3.940825,0.001064,0.028734,289.23,4.01,398.09,118.66,-24.45,367.705169,1,1,0,1,0,,,,,,,,
626186,96861.484375,283.62,-13.852850,0.799663,1.106121,3.935504,-0.002128,0.039376,289.09,4.01,399.66,118.79,-24.37,370.919555,1,1,0,1,0,,,,,,,,
626196,96861.484375,283.62,-13.982137,1.077390,1.115697,3.925926,0.004256,0.023412,289.23,4.01,400.83,118.54,-24.32,370.919555,1,1,0,1,0,,,,,,,,
626206,96842.484375,283.62,-13.713987,1.225831,1.177947,3.929119,0.010642,0.022348,289.09,4.01,402.11,118.39,-24.24,372.527770,1,1,0,1,0,,,,,,,,
626216,96842.484375,283.62,-13.958195,0.387860,0.694318,3.914220,-0.010642,0.018091,289.04,4.03,403.08,117.94,-24.19,372.527770,1,1,0,1,0,,,,,,,,
626226,96838.796875,283.60,-13.579912,1.388636,1.264138,3.925926,-0.012770,0.011706,289.09,4.03,403.87,117.33,-24.11,372.839935,1,1,0,1,0,,,,,,,,
626236,96838.796875,283.60,-13.709198,0.890643,1.053448,3.922734,0.002128,0.023412,289.28,4.04,404.47,116.54,-24.06,372.839935,1,1,0,1,0,,,,,,,,
626246,96819.812500,283.60,-13.522451,0.186747,1.039083,3.896128,-0.018091,0.023412,289.09,4.04,405.31,115.99,-23.98,374.447143,1,1,0,1,0,,,,,,,,
626256,96800.812500,283.60,-13.546393,1.106121,0.746990,3.888678,-0.022348,0.011706,289.23,4.05,406.33,115.63,-23.92,376.055938,1,1,0,1,0,,,,,,,,
626266,96762.828125,283.60,-13.790601,0.694318,1.173158,3.862073,-0.001064,0.032990,289.28,4.04,407.90,115.79,-23.89,379.272949,1,1,0,1,0,,,,,,,,
626276,96762.828125,283.60,-13.091494,0.617704,1.106121,3.857816,-0.003192,0.031926,289.04,4.05,409.08,115.58,-23.80,379.272949,1,1,0,1,0,,,,,,,,
626286,96743.843750,283.60,-13.972560,0.818816,0.785298,3.852495,-0.018091,0.011706,289.28,4.05,410.37,115.47,-23.80,380.881195,1,1,0,1,0,,,,,,,,
626296,96743.843750,283.60,-13.402740,1.091755,0.737414,3.849302,-0.003192,0.038312,289.43,4.05,411.33,115.06,-23.74,380.881195,1,1,0,1,0,,,,,,,,
626306,96724.843750,283.60,-13.608642,0.392649,0.972045,3.823760,-0.002128,0.041504,289.23,4.05,412.46,114.79,-23.71,382.490997,1,1,0,1,0,,,,,,,,
626316,96724.843750,283.60,-12.943054,1.613691,0.890643,3.821632,-0.006385,0.009578,289.28,4.05,413.30,114.27,-23.62,382.490997,1,1,0,1,0,,,,,,,,
626326,96686.859375,283.60,-13.101071,0.292092,0.526724,3.826953,0.006385,0.050018,289.09,4.05,414.72,114.32,-23.55,385.710052,1,1,0,1,0,,,,,,,,
626336,96686.859375,283.60,-13.335702,1.043871,1.412578,3.806733,-0.018091,0.028734,288.99,4.05,415.80,114.02,-23.51,385.710052,1,1,0,1,0,,,,,,,,
626346,96648.875000,283.60,-13.125013,0.842759,0.253785,3.804605,-0.027669,0.023412,289.09,4.05,417.40,114.24,-23.46,388.930145,1,1,0,1,0,,,,,,,,
626356,96667.875000,283.60,-13.718775,1.283292,1.077390,3.803540,-0.007449,0.035119,288.99,4.05,418.21,113.68,-23.46,387.319305,1,1,0,1,0,,,,,,,,
626366,96648.875000,283.60,-12.866439,0.488417,0.368707,3.805669,-0.014899,0.011706,289.28,4.05,419.21,113.32,-23.38,388.930145,1,1,0,1,0,,,,,,,,
626376,96629.890625,283.60,-13.158532,1.527500,0.785298,3.795027,-0.028734,-0.008513,289.23,4.05,420.36,113.11,-23.34,390.539916,1,1,0,1,0,,,,,,,,
626386,96610.890625,283.60,-13.445836,0.612915,0.445321,3.779063,-0.011706,0.027669,289.19,4.05,421.63,113.01,-23.34,392.151275,1,1,0,1,0,,,,,,,,
626396,96610.890625,283.60,-12.794613,0.373495,1.273715,3.757779,-0.008513,-0.010642,289.28,4.05,422.58,112.61,-23.26,392.151275,1,1,0,1,0,,,,,,,,
626406,96610.890625,283.60,-12.861651,1.881842,0.699106,3.746072,-0.025541,-0.021284,289.19,4.05,423.29,111.97,-23.21,392.151275,1,1,0,1,0,,,,,,,,
626416,96572.906250,283.60,-12.818555,0.076614,0.881066,3.764164,-0.003192,0.002128,289.23,4.03,424.62,111.95,-23.15,395.373413,1,1,0,1,0,,,,,,,,
626426,96572.906250,283.60,-12.694057,1.086967,1.192312,3.731173,-0.011706,-0.019156,289.19,4.02,425.61,111.61,-23.09,395.373413,1,1,0,1,0,,,,,,,,
626436,96572.906250,283.60,-12.674903,0.612915,0.378283,3.722659,-0.005321,-0.012770,289.28,4.02,426.36,111.03,-23.03,395.373413,1,1,0,1,0,,,,,,,,
626446,96534.921875,283.60,-12.909535,0.612915,1.201889,3.726916,0.006385,0.012770,289.19,4.01,427.72,111.04,-23.00,398.596588,1,1,0,1,0,,,,,,,,
626456,96534.921875,283.60,-12.650961,0.052672,0.770932,3.718402,0.006385,-0.011706,289.23,4.01,428.74,110.73,-22.95,398.596588,1,1,0,1,0,,,,,,,,
626466,96515.937500,283.60,-12.114660,1.307234,0.541089,3.721595,-0.005321,0.021284,289.09,4.01,429.91,110.57,-22.85,400.207885,1,1,0,1,0,,,,,,,,
626476,96496.937500,283.60,-13.034033,-0.038307,1.096544,3.683283,-0.008513,0.025541,288.99,4.01,431.19,110.51,-22.85,401.820770,1,1,0,1,0,,,,,,,,
626486,96496.937500,283.60,-12.698845,0.622492,1.273715,3.690732,0.010642,0.027669,289.23,4.01,432.14,110.14,-22.82,401.820770,1,1,0,1,0,,,,,,,,
626496,96496.937500,283.60,-12.358868,0.421379,0.823605,3.665191,-0.006385,0.043633,289.28,4.01,432.86,109.54,-22.75,401.820770,1,1,0,1,0,,,,,,,,
626506,96477.953125,283.60,-12.478579,0.316034,1.235408,3.677962,0.002128,0.047890,289.23,4.01,433.79,109.17,-22.71,403.432586,1,1,0,1,0,,,,,,,,
626516,96477.953125,283.60,-12.459424,0.454898,0.459686,3.661998,0.000000,0.059596,289.09,4.01,434.49,108.56,-22.66,403.432586,1,1,0,1,0,,,,,,,,
626526,96439.968750,283.60,-11.765107,0.852335,1.010353,3.666255,0.009578,0.056403,289.04,4.01,435.82,108.58,-22.56,406.658325,1,1,0,1,0,,,,,,,,
626536,96439.968750,283.60,-12.004527,0.708683,1.240196,3.663063,0.027669,0.057468,289.23,4.01,436.81,108.27,-22.49,406.658325,1,1,0,1,0,,,,,,,,
626546,96420.968750,283.60,-12.689269,0.636857,0.842759,3.647099,0.029798,0.058532,289.23,4.01,437.96,108.11,-22.49,408.272247,1,1,0,1,0,,,,,,,,
626556,96420.968750,283.60,-11.678915,0.981622,0.584185,3.643906,0.011706,0.039376,288.89,4.01,438.82,107.68,-22.39,408.272247,1,1,0,1,0,,,,,,,,
626566,96401.984375,283.60,-11.870451,1.158793,0.574608,3.649228,0.041504,0.058532,289.09,4.01,439.86,107.43,-22.32,409.885101,1,1,0,1,0,,,,,,,,
626576,96379.312500,283.58,-12.186486,1.628057,0.995987,3.646035,0.002128,0.025541,289.04,4.01,441.12,107.39,-22.29,411.811553,1,1,0,1,0,,,,,,,,
626586,96360.312500,283.58,-12.009315,-0.081402,0.043095,3.657742,0.029798,0.039376,289.04,4.01,442.47,107.44,-22.25,413.426300,1,1,0,1,0,,,,,,,,
626596,96382.984375,283.60,-12.301407,1.115697,0.526724,3.649228,0.001064,0.039376,289.23,4.01,443.01,106.70,-22.23,411.499542,1,1,0,1,0,,,,,,,,
626606,96345.000000,283.60,-11.367669,1.268926,0.229843,3.627943,-0.018091,0.014899,289.38,4.01,444.21,106.61,-22.13,414.727844,1,1,0,1,0,,,,,,,,
626616,96345.000000,283.60,-11.549629,0.004788,0.699106,3.641778,-0.009578,0.029798,289.23,4.03,445.11,106.24,-22.06,414.727844,1,1,0,1,0,,,,,,,,
626626,96326.015625,283.60,-11.836933,1.537077,0.900219,3.633264,0.002128,0.024477,289.19,4.03,446.18,106.03,-22.02,416.341705,1,1,0,1,0,,,,,,,,
626636,96303.343750,283.58,-12.334926,-0.383072,1.393425,3.593888,-0.010642,0.026605,289.09,4.04,447.47,106.03,-22.03,418.269409,1,1,0,1,0,,,,,,,,
626646,96307.015625,283.60,-11.654973,1.541865,0.483628,3.605594,-0.022348,0.021284,288.84,4.04,448.36,105.65,-21.97,417.957183,1,1,0,1,0,,,,,,,,
626656,96284.359375,283.58,-12.330138,0.603338,0.938527,3.594952,-0.013834,0.030862,289.09,4.04,449.50,105.51,-21.99,419.883850,1,1,0,1,0,,,,,,,,
626666,96269.031250,283.60,-11.425129,0.895431,0.818816,3.566218,-0.021284,0.013834,289.23,4.05,450.68,105.42,-21.92,421.187561,1,1,0,1,0,,,,,,,,
626676,96265.359375,283.58,-11.286266,1.177947,0.895431,3.559833,0.006385,0.015963,289.09,4.05,451.65,105.13,-21.84,421.499877,1,1,0,1,0,,,,,,,,
626686,96246.375000,283.58,-11.329361,0.296881,1.532289,3.552383,0.009578,0.017027,289.09,4.05,452.77,104.99,-21.77,423.114837,1,1,0,1,0,,,,,,,,
626696,96231.046875,283.60,-11.104307,1.187524,0.766144,3.544934,0.029798,0.036183,289.09,4.05,453.94,104.89,-21.69,424.418975,1,1,0,1,0,,,,,,,,
626706,96208.390625,283.58,-11.578359,0.746990,1.235408,3.524713,0.026605,0.018091,289.23,4.05,455.30,104.98,-21.66,426.346862,1,1,0,1,0,,,,,,,,
626716,96208.390625,283.58,-11.875240,1.043871,1.316810,3.502364,0.022348,0.006385,289.19,4.05,456.32,104.73,-21.66,426.346862,1,1,0,1,0,,,,,,,,
626726,96189.390625,283.58,-11.501745,0.588973,0.814028,3.506622,0.039376,0.030862,289.19,4.05,457.48,104.64,-21.63,427.963928,1,1,0,1,0,,,,,,,,
626736,96193.062500,283.60,-11.473014,0.359130,1.259350,3.475759,0.046825,0.011706,289.23,4.05,458.28,104.18,-21.59,427.651397,1,1,0,1,0,,,,,,,,
626746,96189.390625,283.58,-10.936713,0.976834,0.622492,3.481080,0.044697,0.007449,289.19,4.05,458.95,103.61,-21.51,427.963928,1,1,0,1,0,,,,,,,,
626756,96189.390625,283.58,-10.998962,0.258573,0.565031,3.461924,0.079816,0.024477,289.38,4.05,459.45,102.89,-21.44,427.963928,1,1,0,1,0,,,,,,,,
626766,96170.406250,283.58,-10.955866,0.885854,0.622492,3.464052,0.057468,-0.004256,289.09,4.05,460.23,102.43,-21.38,429.579925,1,1,0,1,0,,,,,,,,
626776,96151.406250,283.58,-11.128249,0.090979,1.058237,3.458731,0.063853,0.013834,289.09,4.05,461.21,102.18,-21.33,431.197509,1,1,0,1,0,,,,,,,,
626786,96113.421875,283.58,-11.482591,0.948103,0.957680,3.453410,0.068110,0.020220,289.04,4.05,462.75,102.47,-21.33,434.432098,1,1,0,1,0,,,,,,,,
626796,96113.421875,283.58,-11.477803,0.201112,0.943315,3.434254,0.073431,0.005321,289.09,4.05,463.91,102.39,-21.33,434.432098,1,1,0,1,0,,,,,,,,
626806,96113.421875,283.58,-11.396399,0.167594,0.435744,3.445960,0.046825,0.030862,289.04,4.05,464.78,102.03,-21.31,434.432098,1,1,0,1,0,,,,,,,,
626816,96094.437500,283.58,-10.797849,0.660799,0.952892,3.440639,0.071303,0.038312,289.04,4.03,465.83,101.85,-21.25,436.049133,1,1,0,1,0,,,,,,,,
626826,96075.453125,283.58,-10.745177,0.383072,0.905008,3.422548,0.047890,0.023412,289.04,4.02,467.02,101.82,-21.18,437.666412,1,1,0,1,0,,,,,,,,
626836,96075.453125,283.58,-10.907982,1.197100,0.818816,3.452346,0.059596,0.042569,289.23,4.02,467.92,101.49,-21.13,437.666412,1,1,0,1,0,,,,,,,,
626846,96075.453125,283.58,-11.185709,-0.143652,0.292092,3.438511,0.022348,0.041504,289.09,4.01,468.59,100.94,-21.12,437.666412,1,1,0,1,0,,,,,,,,
626856,96056.453125,283.58,-10.941501,0.000000,1.134851,3.438511,0.019156,0.032990,289.23,4.01,469.49,100.63,-21.08,439.285308,1,1,0,1,0,,,,,,,,
626866,96056.453125,283.58,-11.200075,1.393425,0.167594,3.421483,0.044697,0.063853,289.23,4.01,470.16,100.10,-21.07,439.285308,1,1,0,1,0,,,,,,,,
626876,96037.468750,283.58,-10.970232,0.469263,1.422155,3.406584,0.035119,0.045761,288.99,4.01,471.07,99.80,-21.05,440.903106,1,1,0,1,0,,,,,,,,
626886,96018.468750,283.58,-10.678139,0.301669,0.234631,3.411906,0.006385,0.035119,289.23,4.01,472.15,99.68,-20.99,442.522491,1,1,0,1,0,,,,,,,,
626896,95999.484375,283.58,-10.754754,0.814028,0.924161,3.414034,0.028734,0.054275,289.04,4.01,473.36,99.68,-20.95,444.140808,1,1,0,1,0,,,,,,,,
626906,95980.484375,283.58,-10.979808,0.866701,0.627280,3.405520,0.003192,0.036183,289.28,4.01,474.68,99.79,-20.94,445.760711,1,1,0,1,0,,,,,,,,
626916,95980.484375,283.58,-10.515334,0.459686,0.933738,3.403392,0.012770,0.027669,289.09,4.00,475.67,99.57,-20.88,445.760711,1,1,0,1,0,,,,,,,,
626926,95980.484375,283.58,-10.606313,0.972045,0.402225,3.409777,-0.020220,0.027669,288.84,4.01,476.41,99.12,-20.83,445.760711,1,1,0,1,0,,,,,,,,
626936,95961.500000,283.58,-10.247182,0.531512,0.612915,3.379979,-0.004256,0.024477,289.09,4.01,477.36,98.89,-20.76,447.379577,1,1,0,1,0,,,,,,,,
626946,95957.859375,283.57,-10.419565,0.732625,1.235408,3.354437,-0.002128,0.018091,289.04,4.01,478.16,98.49,-20.71,447.690032,1,1,0,1,0,,,,,,,,
626956,95942.500000,283.58,-10.419565,0.225054,0.857124,3.355502,0.009578,0.025541,288.99,4.01,479.08,98.23,-20.66,449.000000,1,1,0,1,0,,,,,,,,
626966,95923.515625,283.58,-10.232817,0.526724,1.249773,3.351245,0.008513,0.020220,289.19,4.00,480.17,98.13,-20.60,450.619354,1,1,0,1,0,,,,,,,,
626976,95923.515625,283.58,-10.060435,-0.019153,0.981622,3.326767,0.018091,0.043633,289.38,4.01,480.99,97.78,-20.53,450.619354,1,1,0,1,0,,,,,,,,
626986,95923.515625,283.58,-10.275913,0.392649,0.823605,3.312932,0.040440,0.011706,289.38,4.01,481.60,97.22,-20.49,450.619354,1,1,0,1,0,,,,,,,,
626996,95904.515625,283.58,-10.251971,0.186747,0.622492,3.312932,0.038312,0.034055,288.89,4.01,482.46,96.91,-20.44,452.240295,1,1,0,1,0,,,,,,,,
627006,95904.515625,283.58,-10.448295,-0.258573,1.283292,3.305483,0.048954,0.064917,289.09,4.01,483.10,96.39,-20.42,452.240295,1,1,0,1,0,,,,,,,,
627016,95885.531250,283.58,-10.194510,0.905008,0.474051,3.294841,0.042569,0.038312,289.04,4.03,483.98,96.11,-20.38,453.860168,1,1,0,1,0,,,,,,,,
627026,95866.531250,283.58,-10.146626,0.052672,0.253785,3.295905,0.046825,0.064917,289.23,4.03,485.05,96.02,-20.34,455.481658,1,1,0,1,0,,,,,,,,
627036,95866.531250,283.58,-10.165780,0.263362,1.297657,3.278877,0.057468,0.065981,288.99,4.04,485.85,95.66,-20.31,455.481658,1,1,0,1,0,,,,,,,,
627046,95847.546875,283.58,-9.907206,0.651222,1.091755,3.275685,0.061725,0.073431,289.04,4.04,486.85,95.50,-20.25,457.102050,1,1,0,1,0,,,,,,,,
627056,95824.921875,283.57,-9.773131,0.023942,0.948103,3.273556,0.055339,0.072367,289.38,4.04,488.08,95.58,-20.19,459.033538,1,1,0,1,0,,,,,,,,
627066,95809.562500,283.58,-9.916783,1.345541,0.526724,3.274620,0.064917,0.073431,289.23,4.04,489.33,95.67,-20.14,460.344970,1,1,0,1,0,,,,,,,,
627076,95809.562500,283.58,-9.710882,0.574608,0.924161,3.260785,0.064917,0.073431,289.28,4.05,490.27,95.46,-20.08,460.344970,1,1,0,1,0,,,,,,,,
627086,95809.562500,283.58,-10.046070,0.876277,0.818816,3.275685,0.072367,0.057468,289.43,4.05,490.98,95.02,-20.06,460.344970,1,1,0,1,0,,,,,,,,
627096,95790.578125,283.58,-9.916783,0.799663,0.469263,3.270364,0.056403,0.054275,289.09,4.05,491.91,94.80,-20.03,461.966125,1,1,0,1,0,,,,,,,,
627106,95771.578125,283.58,-9.648633,0.474051,0.737414,3.252272,0.053211,0.044697,289.23,4.05,493.01,94.75,-19.97,463.588897,1,1,0,1,0,,,,,,,,
627116,95771.578125,283.58,-9.773131,0.612915,0.574608,3.250143,0.028734,0.041504,289.28,4.04,493.83,94.44,-19.93,463.588897,1,1,0,1,0,,,,,,,,
627126,95752.593750,283.58,-9.533711,1.403002,0.584185,3.236308,0.037247,0.019156,289.19,4.05,494.86,94.32,-19.88,465.210601,1,1,0,1,0,,,,,,,,
627136,95752.593750,283.58,-9.821015,0.919373,0.541089,3.238437,0.022348,0.011706,289.23,4.05,495.62,93.95,-19.85,465.210601,1,1,0,1,0,,,,,,,,
627146,95729.968750,283.57,-9.442730,0.699106,0.354341,3.235244,0.013834,0.008513,289.09,4.05,496.68,93.87,-19.80,467.143646,1,1,0,1,0,,,,,,,,
627156,95714.609375,283.58,-9.548076,1.211466,0.794874,3.225666,0.034055,0.006385,289.09,4.05,497.79,93.85,-19.75,468.456115,1,1,0,1,0,,,,,,,,
627166,95710.984375,283.57,-9.366116,0.914585,0.344765,3.201189,0.006385,-0.001064,289.23,4.05,498.71,93.64,-19.70,468.765899,1,1,0,1,0,,,,,,,,
627176,95695.609375,283.58,-9.672574,0.421379,0.421379,3.216088,0.024477,0.003192,289.23,4.05,499.72,93.52,-19.68,470.079925,1,1,0,1,0,,,,,,,,
627186,95695.609375,283.58,-9.528923,1.244984,0.833182,3.197996,0.009578,-0.012770,289.09,4.05,500.49,93.16,-19.64,470.079925,1,1,0,1,0,,,,,,,,
627196,95676.625000,283.58,-9.284713,0.464475,0.397437,3.188418,0.014899,-0.020220,289.09,4.05,501.46,93.01,-19.59,471.702667,1,1,0,1,0,,,,,,,,
627206,95676.625000,283.58,-9.552865,0.804451,1.077390,3.201189,0.024477,-0.014899,288.99,4.05,502.19,92.62,-19.57,471.702667,1,1,0,1,0,,,,,,,,
627216,95654.000000,283.57,-9.706093,0.387860,0.995987,3.186290,0.009578,-0.022348,289.28,4.03,503.21,92.52,-19.56,473.636962,1,1,0,1,0,,,,,,,,
627226,95635.015625,283.57,-9.380481,0.627280,0.550666,3.179904,0.006385,-0.017027,288.99,4.02,504.39,92.57,-19.53,475.260253,1,1,0,1,0,,,,,,,,
627236,95638.640625,283.58,-9.169792,0.617704,0.402225,3.152234,-0.004256,-0.008513,289.23,4.02,505.19,92.26,-19.47,474.950286,1,1,0,1,0,,,,,,,,
627246,95600.656250,283.58,-9.246406,0.033518,0.957680,3.150106,0.013834,-0.008513,288.99,4.01,506.60,92.55,-19.44,478.198913,1,1,0,1,0,,,,,,,,
627256,95600.656250,283.58,-9.385270,0.933738,0.656011,3.137335,0.019156,-0.002128,289.09,4.01,507.67,92.49,-19.41,478.198913,1,1,0,1,0,,,,,,,,
627266,95600.656250,283.58,-9.294290,-0.301669,0.914585,3.137335,0.021284,0.004256,289.19,4.01,508.46,92.18,-19.38,478.198913,1,1,0,1,0,,,,,,,,
627276,95581.671875,283.58,-9.088389,0.828393,0.905008,3.122436,0.038312,-0.001064,289.09,4.01,509.46,92.06,-19.34,479.822967,1,1,0,1,0,,,,,,,,
627286,95581.671875,283.58,-8.954314,1.130063,1.029506,3.123501,0.032990,0.003192,289.19,4.01,510.21,91.71,-19.28,479.822967,1,1,0,1,0,,,,,,,,
627296,95562.671875,283.58,-8.997409,-0.028730,1.254561,3.128822,0.041504,0.002128,289.28,4.01,511.18,91.57,-19.23,481.448608,1,1,0,1,0,,,,,,,,
627306,95562.671875,283.58,-9.117119,0.316034,0.349553,3.096895,0.029798,0.005321,289.19,4.01,511.90,91.19,-19.20,481.448608,1,1,0,1,0,,,,,,,,
627316,95559.046875,283.57,-8.848969,1.067813,0.976834,3.087317,0.041504,0.011706,289.19,4.01,512.52,90.72,-19.15,481.758789,1,1,0,1,0,,,,,,,,
627326,95524.687500,283.58,-8.853757,-0.220266,1.144428,3.089445,0.060660,0.001064,289.19,4.01,513.72,90.81,-19.10,484.699340,1,1,0,1,0,,,,,,,,
627336,95521.078125,283.57,-8.978256,1.455674,0.354341,3.085188,0.041504,-0.004256,289.04,4.01,514.69,90.69,-19.07,485.008300,1,1,0,1,0,,,,,,,,
627346,95505.703125,283.58,-9.093177,0.000000,0.905008,3.084124,0.060660,-0.001064,289.19,4.01,515.75,90.65,-19.06,486.324432,1,1,0,1,0,,,,,,,,
627356,95502.078125,283.57,-8.815450,0.670376,0.316034,3.083060,0.039376,-0.010642,289.04,4.01,516.62,90.43,-19.01,486.634796,1,1,0,1,0,,,,,,,,
627366,95483.093750,283.57,-8.643068,0.885854,0.881066,3.088381,0.056403,-0.014899,289.19,4.01,517.68,90.39,-18.96,488.260192,1,1,0,1,0,,,,,,,,
627376,95502.078125,283.57,-8.810662,0.545877,0.272938,3.091574,0.050018,-0.026605,288.99,4.01,518.07,89.71,-18.93,486.634796,1,1,0,1,0,,,,,,,,
627386,95464.093750,283.57,-8.686163,1.067813,0.368707,3.095830,0.032990,-0.021284,289.38,4.01,519.16,89.72,-18.89,489.887176,1,1,0,1,0,,,,,,,,
627396,95445.109375,283.57,-8.743624,0.483628,1.019929,3.087317,0.052147,-0.017027,289.04,4.01,520.39,89.85,-18.85,491.513122,1,1,0,1,0,,,,,,,,
627406,95445.109375,283.57,-8.978256,0.067037,0.579396,3.080931,0.060660,-0.017027,289.09,4.01,521.32,89.69,-18.85,491.513122,1,1,0,1,0,,,,,,,,
627416,95445.109375,283.57,-8.853757,0.799663,1.158793,3.063904,0.054275,-0.010642,289.04,4.03,522.01,89.31,-18.83,491.513122,1,1,0,1,0,,,,,,,,
627426,95448.718750,283.58,-8.513781,-0.057460,0.450109,3.054326,0.046825,-0.006385,288.99,4.03,522.45,88.68,-18.78,491.203979,1,1,0,1,0,,,,,,,,
627436,95426.125000,283.57,-8.643068,0.866701,1.340752,3.041555,0.048954,-0.003192,289.04,4.04,523.26,88.42,-18.75,493.139312,1,1,0,1,0,,,,,,,,
627446,95410.734375,283.58,-8.485051,0.488417,0.718260,3.036234,0.034055,-0.006385,289.19,4.04,524.19,88.29,-18.70,494.457855,1,1,0,1,0,,,,,,,,
627456,95388.140625,283.57,-8.508993,0.181959,0.426167,3.038362,0.032990,-0.001064,289.19,4.05,525.37,88.39,-18.67,496.393798,1,1,0,1,0,,,,,,,,
627466,95369.140625,283.57,-8.427589,1.072602,0.871489,3.007500,0.040440,-0.005321,289.04,4.04,526.67,88.61,-18.63,498.022125,1,1,0,1,0,,,,,,,,
627476,95369.140625,283.57,-8.599972,0.177170,1.197100,3.011757,0.056403,0.003192,289.09,4.05,527.64,88.51,-18.61,498.022125,1,1,0,1,0,,,,,,,,
627486,95369.140625,283.57,-8.398859,0.435744,1.048660,3.008564,0.043633,-0.009578,289.04,4.05,528.37,88.18,-18.57,498.022125,1,1,0,1,0,,,,,,,,
627496,95350.156250,283.57,-8.686163,0.928950,0.076614,2.994729,0.043633,0.003192,289.09,4.05,529.32,88.06,-18.56,499.649353,1,1,0,1,0,,,,,,,,
627506,95350.156250,283.57,-8.212111,-0.474051,1.106121,2.991537,0.039376,0.005321,288.99,4.05,530.03,87.72,-18.51,499.649353,1,1,0,1,0,,,,,,,,
627516,95331.156250,283.57,-8.255207,0.837970,0.095768,2.989408,0.043633,0.009578,289.04,4.05,530.97,87.60,-18.46,501.278198,1,1,0,1,0,,,,,,,,
627526,95312.171875,283.57,-8.312667,0.416591,0.679953,2.989408,0.043633,0.011706,289.09,4.05,532.08,87.64,-18.43,502.905975,1,1,0,1,0,,,,,,,,
627536,95312.171875,283.57,-8.202534,0.143652,0.885854,2.992601,0.040440,0.013834,288.99,4.05,532.91,87.42,-18.39,502.905975,1,1,0,1,0,,,,,,,,
627546,95293.187500,283.57,-8.130708,0.828393,0.095768,2.990472,0.026605,0.002128,289.23,4.05,533.94,87.39,-18.35,504.533996,1,1,0,1,0,,,,,,,,
627556,95293.187500,283.57,-8.322244,0.430956,1.091755,2.984087,0.035119,0.008513,289.23,4.05,534.72,87.11,-18.33,504.533996,1,1,0,1,0,,,,,,,,
627566,95274.187500,283.57,-7.982268,0.339976,0.584185,2.968123,0.035119,0.009578,289.09,4.05,535.70,87.05,-18.28,506.163635,1,1,0,1,0,,,,,,,,
627576,95274.187500,283.57,-8.164227,0.325611,0.837970,2.974509,0.044697,0.008513,289.23,4.05,536.44,86.74,-18.25,506.163635,1,1,0,1,0,,,,,,,,
627586,95255.203125,283.57,-8.015787,0.756567,0.967257,2.963867,0.035119,0.005321,289.09,4.05,537.40,86.65,-18.20,507.792175,1,1,0,1,0,,,,,,,,
627596,95274.187500,283.57,-8.020575,0.799663,0.684741,2.969188,0.041504,0.000000,289.09,4.05,537.71,85.93,-18.17,506.163635,1,1,0,1,0,,,,,,,,
627606,95236.203125,283.57,-7.594407,0.253785,0.641646,2.968123,0.035119,-0.010642,289.23,4.05,538.75,85.93,-18.09,509.422332,1,1,0,1,0,,,,,,,,
627616,95217.218750,283.57,-7.929595,0.751779,0.402225,2.954288,0.029798,-0.012770,289.23,4.03,539.94,86.08,-18.06,511.051391,1,1,0,1,0,,,,,,,,
627626,95217.218750,283.57,-7.996633,0.196324,0.924161,2.933004,0.031926,-0.012770,288.99,4.02,540.83,85.93,-18.04,511.051391,1,1,0,1,0,,,,,,,,
627636,95198.234375,283.57,-7.661445,0.746990,0.014365,2.908527,0.039376,-0.019156,289.38,4.02,541.91,85.96,-17.98,512.680725,1,1,0,1,0,,,,,,,,
627646,95198.234375,283.57,-7.920019,0.177170,1.168370,2.903206,0.032990,-0.009578,289.19,4.01,542.72,85.74,-17.96,512.680725,1,1,0,1,0,,,,,,,,
627656,95198.234375,283.57,-7.718905,0.483628,0.507570,2.902142,0.026605,-0.013834,289.23,4.01,543.32,85.32,-17.91,512.680725,1,1,0,1,0,,,,,,,,
627666,95179.234375,283.57,-7.613561,0.636857,0.895431,2.888307,0.029798,-0.015963,288.99,4.01,544.18,85.15,-17.87,514.311706,1,1,0,1,0,,,,,,,,
627676,95160.250000,283.57,-7.991845,0.033518,1.144428,2.874472,0.046825,-0.012770,289.23,4.01,545.23,85.16,-17.86,515.941528,1,1,0,1,0,,,,,,,,
627686,95160.250000,283.57,-7.762001,0.756567,0.550666,2.872343,0.056403,-0.015963,289.19,4.01,546.01,84.92,-17.83,515.941528,1,1,0,1,0,,,,,,,,
627696,95160.250000,283.57,-7.920019,0.833182,0.818816,2.881921,0.048954,-0.011706,289.23,4.01,546.60,84.49,-17.82,515.941528,1,1,0,1,0,,,,,,,,
627706,95141.250000,283.57,-7.738059,0.119710,0.483628,2.862765,0.041504,-0.008513,289.19,4.01,547.45,84.32,-17.79,517.573059,1,1,0,1,0,,,,,,,,
627716,95141.250000,283.57,-7.694963,1.321599,0.890643,2.860637,0.046825,-0.026605,289.19,4.01,548.08,83.94,-17.77,517.573059,1,1,0,1,0,,,,,,,,
627726,95103.281250,283.57,-7.407660,0.426167,0.579396,2.856380,0.054275,-0.028734,289.09,4.01,549.37,84.20,-17.71,520.834106,1,1,0,1,0,,,,,,,,
627736,95122.265625,283.57,-7.800309,0.584185,0.220266,2.857444,0.042569,-0.034055,289.38,4.01,549.93,83.75,-17.70,519.203430,1,1,0,1,0,,,,,,,,
627746,95103.281250,283.57,-7.441178,0.775721,0.258573,2.861701,0.035119,-0.039376,288.89,4.00,550.75,83.57,-17.66,520.834106,1,1,0,1,0,,,,,,,,
627756,95084.281250,283.57,-7.733271,0.373495,0.694318,2.865958,0.040440,-0.041504,289.09,4.01,551.78,83.58,-17.65,522.466369,1,1,0,1,0,,,,,,,,
627766,95084.281250,283.57,-7.599195,0.656011,0.474051,2.858508,0.038312,-0.046825,289.04,4.00,552.55,83.34,-17.62,522.466369,1,1,0,1,0,,,,,,,,
627776,95084.281250,283.57,-7.460332,0.464475,0.268150,2.854251,0.025541,-0.040440,289.19,4.01,553.12,82.92,-17.59,522.466369,1,1,0,1,0,,,,,,,,
627786,95080.640625,283.55,-7.426813,0.138863,0.708683,2.832967,0.020220,-0.034055,288.99,4.01,553.63,82.43,-17.55,522.779113,1,1,0,1,0,,,,,,,,
627796,95065.296875,283.57,-7.551311,1.072602,-0.483628,2.841481,0.002128,-0.042569,288.99,4.01,554.34,82.14,-17.53,524.097534,1,1,0,1,0,,,,,,,,
627806,95027.312500,283.57,-7.364564,-0.129286,0.794874,2.817003,0.011706,-0.024477,288.99,4.01,555.68,82.47,-17.50,527.362060,1,1,0,1,0,,,,,,,,
627816,95027.312500,283.57,-7.158662,0.387860,0.033518,2.820196,0.007449,-0.027669,289.23,4.03,556.69,82.48,-17.45,527.362060,1,1,0,1,0,,,,,,,,
627826,95046.296875,283.57,-7.570465,0.517147,0.440533,2.819132,-0.003192,-0.013834,289.19,4.03,557.04,81.85,-17.44,525.730346,1,1,0,1,0,,,,,,,,
627836,95027.312500,283.57,-7.316680,0.258573,0.459686,2.821260,-0.003192,-0.009578,289.04,4.03,557.70,81.53,-17.41,527.362060,1,1,0,1,0,,,,,,,,
627846,95008.312500,283.57,-7.182604,0.186747,0.383072,2.815939,-0.004256,-0.002128,289.09,4.04,558.61,81.45,-17.37,528.995361,1,1,0,1,0,,,,,,,,
627856,95008.312500,283.57,-7.340622,0.378283,0.248996,2.804233,-0.012770,0.010642,289.38,4.05,559.29,81.15,-17.35,528.995361,1,1,0,1,0,,,,,,,,
627866,94989.328125,283.57,-7.345410,0.124498,0.569819,2.803169,-0.009578,0.010642,289.28,4.05,560.20,81.07,-17.33,530.627624,1,1,0,1,0,,,,,,,,
627876,94989.328125,283.57,-7.431602,0.162805,0.541089,2.798912,-0.003192,0.023412,288.99,4.04,560.88,80.78,-17.32,530.627624,1,1,0,1,0,,,,,,,,
627886,94970.343750,283.57,-7.105990,0.517147,0.612915,2.791462,-0.004256,0.028734,289.04,4.05,561.80,80.72,-17.28,532.260070,1,1,0,1,0,,,,,,,,
627896,94951.343750,283.57,-7.134720,0.248996,0.780509,2.786141,-0.009578,0.032990,289.19,4.05,562.90,80.83,-17.25,533.894226,1,1,0,1,0,,,,,,,,
627906,94932.359375,283.57,-7.278373,0.359130,0.914585,2.780820,0.005321,0.036183,289.23,4.05,564.13,81.07,-17.23,535.527221,1,1,0,1,0,,,,,,,,
627916,94951.343750,283.57,-7.053318,0.560243,0.129286,2.777627,-0.003192,0.037247,289.19,4.05,564.65,80.62,-17.20,533.894226,1,1,0,1,0,,,,,,,,
627926,94932.359375,283.57,-7.240066,0.215478,1.048660,2.777627,0.015963,0.041504,289.04,4.05,565.45,80.44,-17.18,535.527221,1,1,0,1,0,,,,,,,,
627936,94932.359375,283.57,-7.139509,0.311246,0.277727,2.754214,0.005321,0.044697,289.09,4.05,566.04,80.07,-17.16,535.527221,1,1,0,1,0,,,,,,,,
627946,94913.359375,283.57,-6.847416,0.387860,0.770932,2.756343,0.028734,0.047890,289.23,4.05,566.89,79.95,-17.11,537.161865,1,1,0,1,0,,,,,,,,
627956,94894.375000,283.57,-7.029376,0.383072,0.464475,2.740379,0.019156,0.043633,289.38,4.05,567.94,80.02,-17.08,538.795471,1,1,0,1,0,,,,,,,,
627966,94894.375000,283.57,-6.794744,0.962469,0.248996,2.727609,0.024477,0.044697,289.19,4.05,568.72,79.84,-17.04,538.795471,1,1,0,1,0,,,,,,,,
627976,94871.750000,283.55,-6.943184,0.632069,0.665588,2.737187,0.035119,0.032990,289.28,4.05,569.79,79.94,-17.01,540.742614,1,1,0,1,0,,,,,,,,
627986,94875.390625,283.57,-6.943184,0.584185,0.938527,2.730801,0.028734,0.024477,289.04,4.05,570.52,79.70,-16.99,540.429260,1,1,0,1,0,,,,,,,,
627996,94875.390625,283.57,-7.024587,1.225831,0.344765,2.730801,0.036183,0.021284,288.99,4.05,571.07,79.29,-16.97,540.429260,1,1,0,1,0,,,,,,,,
628006,94856.390625,283.57,-6.871358,0.143652,0.651222,2.725480,0.032990,0.013834,289.04,4.05,571.88,79.14,-16.94,542.064697,1,1,0,1,0,,,,,,,,
628016,94837.406250,283.57,-6.823474,0.488417,0.134075,2.716966,0.014899,0.007449,289.23,4.02,572.90,79.19,-16.91,543.699096,1,1,0,1,0,,,,,,,,
628026,94818.406250,283.57,-6.933608,1.244984,0.790086,2.737187,0.036183,0.002128,289.04,4.02,574.07,79.40,-16.90,545.335021,1,1,0,1,0,,,,,,,,
628036,94814.781250,283.55,-6.823474,0.095768,0.225054,2.733994,0.002128,-0.005321,288.99,4.02,575.03,79.39,-16.87,545.647216,1,1,0,1,0,,,,,,,,
628046,94818.406250,283.57,-6.732494,1.345541,0.210689,2.729737,0.020220,-0.013834,289.09,4.01,575.67,79.08,-16.84,545.335021,1,1,0,1,0,,,,,,,,
628056,94818.406250,283.57,-6.694187,0.282515,0.339976,2.721223,0.009578,-0.010642,289.28,4.01,576.15,78.61,-16.81,545.335021,1,1,0,1,0,,,,,,,,
628066,94776.796875,283.55,-6.660668,0.598550,0.584185,2.719095,0.007449,-0.022348,289.09,4.01,577.40,78.90,-16.77,548.918701,1,1,0,1,0,,,,,,,,
628076,94799.421875,283.57,-6.579266,1.048660,-0.100556,2.713774,-0.010642,-0.032990,289.23,4.01,577.86,78.41,-16.74,546.969909,1,1,0,1,0,,,,,,,,
628086,94780.437500,283.57,-6.775590,0.373495,0.756567,2.703131,-0.001064,-0.036183,289.09,4.01,578.60,78.21,-16.72,548.605102,1,1,0,1,0,,,,,,,,
628096,94780.437500,283.57,-6.904877,0.861912,0.402225,2.697810,-0.003192,-0.029798,289.23,4.01,579.16,77.82,-16.72,548.605102,1,1,0,1,0,,,,,,,,
628106,94761.437500,283.57,-6.536170,0.469263,0.387860,2.701003,-0.021284,-0.035119,289.23,4.01,579.98,77.70,-16.68,550.241882,1,1,0,1,0,,,,,,,,
628116,94761.437500,283.57,-6.521805,-0.019153,0.555454,2.686104,-0.026605,-0.031926,289.09,4.01,580.60,77.39,-16.65,550.241882,1,1,0,1,0,,,,,,,,
628126,94742.453125,283.57,-6.430825,0.469263,0.248996,2.680783,-0.030862,-0.031926,289.28,4.01,581.47,77.32,-16.61,551.877563,1,1,0,1,0,,,,,,,,
628136,94742.453125,283.57,-6.732494,-0.067037,0.876277,2.673333,-0.039376,-0.026605,289.19,4.01,582.12,77.03,-16.60,551.877563,1,1,0,1,0,,,,,,,,
628146,94719.828125,283.55,-6.488286,0.502782,0.521935,2.662691,-0.026605,-0.021284,289.23,4.01,583.10,77.07,-16.57,553.827270,1,1,0,1,0,,,,,,,,
628156,94723.453125,283.57,-6.344634,0.742202,0.708683,2.644599,-0.015963,-0.020220,289.19,4.01,583.75,76.79,-16.53,553.514831,1,1,0,1,0,,,,,,,,
628166,94704.468750,283.57,-6.301538,-0.363918,0.991199,2.632893,-0.022348,-0.011706,289.09,4.01,584.64,76.76,-16.49,555.151062,1,1,0,1,0,,,,,,,,
628176,94704.468750,283.57,-6.564900,0.632069,0.229843,2.627571,-0.026605,-0.007449,289.09,4.01,585.32,76.50,-16.48,555.151062,1,1,0,1,0,,,,,,,,
628186,94685.484375,283.57,-6.368576,0.215478,0.598550,2.627571,-0.024477,-0.003192,289.09,4.01,586.23,76.48,-16.45,556.787536,1,1,0,1,0,,,,,,,,
628196,94681.843750,283.55,-6.402095,-0.311246,0.497993,2.607351,-0.017027,0.004256,289.19,4.01,586.99,76.32,-16.43,557.101379,1,1,0,1,0,,,,,,,,
628206,94662.859375,283.55,-6.311115,0.526724,0.746990,2.612672,-0.002128,0.017027,289.09,4.01,587.97,76.36,-16.40,558.738159,1,1,0,1,0,,,,,,,,
628216,94647.500000,283.57,-6.287173,0.100556,1.063025,2.597773,-0.008513,0.022348,289.23,4.03,589.03,76.50,-16.37,560.062622,1,1,0,1,0,,,,,,,,
628226,94647.500000,283.57,-6.301538,0.086191,0.632069,2.594580,0.004256,0.021284,289.09,4.04,589.83,76.37,-16.34,560.062622,1,1,0,1,0,,,,,,,,
628236,94666.484375,283.57,-6.382941,0.497993,0.967257,2.588195,0.007449,0.032990,289.28,4.04,590.03,75.65,-16.33,558.425598,1,1,0,1,0,,,,,,,,
628246,94624.875000,283.55,-6.282385,0.038307,0.694318,2.569039,0.009578,0.029798,289.23,4.04,591.06,75.76,-16.30,562.013916,1,1,0,1,0,,,,,,,,
628256,94624.875000,283.55,-6.234500,0.483628,0.316034,2.566911,0.012770,0.030862,289.38,4.05,591.84,75.62,-16.28,562.013916,1,1,0,1,0,,,,,,,,
628266,94609.515625,283.57,-6.200982,-0.014365,1.000776,2.570103,0.018091,0.035119,289.23,4.04,592.75,75.61,-16.25,563.338806,1,1,0,1,0,,,,,,,,
628276,94609.515625,283.57,-5.908889,0.258573,0.354341,2.565846,0.022348,0.035119,289.09,4.05,593.43,75.38,-16.20,563.338806,1,1,0,1,0,,,,,,,,
628286,94609.515625,283.57,-6.009446,0.172382,0.502782,2.564782,0.029798,0.038312,289.04,4.05,593.95,74.99,-16.16,563.338806,1,1,0,1,0,,,,,,,,
628296,94567.906250,283.55,-6.181828,0.253785,0.588973,2.555204,0.025541,0.039376,289.09,4.05,595.22,75.34,-16.15,566.928833,1,1,0,1,0,,,,,,,,
628306,94571.531250,283.57,-6.320692,0.191536,0.450109,2.555204,0.030862,0.041504,289.04,4.05,596.11,75.31,-16.15,566.616027,1,1,0,1,0,,,,,,,,
628316,94567.906250,283.55,-5.971138,0.272938,0.464475,2.554140,0.024477,0.034055,289.23,4.05,596.85,75.14,-16.11,566.928833,1,1,0,1,0,,,,,,,,
628326,94571.531250,283.57,-5.846640,0.344765,0.407014,2.552011,0.022348,0.035119,289.23,4.05,597.32,74.72,-16.07,566.616027,1,1,0,1,0,,,,,,,,
628336,94552.546875,283.57,-6.157886,-0.253785,0.857124,2.550947,0.026605,0.043633,289.19,4.05,598.09,74.57,-16.06,568.254394,1,1,0,1,0,,,,,,,,
628346,94571.531250,283.57,-5.937620,1.005564,0.090979,2.557333,0.010642,0.030862,289.04,4.05,598.25,73.85,-16.02,566.616027,1,1,0,1,0,,,,,,,,
628356,94533.546875,283.57,-6.057330,0.359130,0.330399,2.542433,0.019156,0.041504,288.99,4.05,599.18,73.88,-16.01,569.894348,1,1,0,1,0,,,,,,,,
628366,94529.921875,283.55,-5.798756,0.067037,0.277727,2.541369,0.005321,0.034055,289.19,4.05,599.96,73.77,-15.97,570.207275,1,1,0,1,0,,,,,,,,
628376,94514.562500,283.57,-5.975927,0.689530,0.062249,2.529663,0.009578,0.041504,289.28,4.05,600.88,73.78,-15.95,571.533203,1,1,0,1,0,,,,,,,,
628386,94510.937500,283.55,-5.865794,-0.009576,0.550666,2.519021,0.007449,0.035119,289.23,4.05,601.64,73.65,-15.93,571.846191,1,1,0,1,0,,,,,,,,
628396,94495.562500,283.57,-5.712564,0.153228,-0.148440,2.523277,-0.006385,0.036183,289.09,4.05,602.55,73.66,-15.89,573.173706,1,1,0,1,0,,,,,,,,
628406,94495.562500,283.57,-5.904101,0.071826,0.799663,2.521149,0.001064,0.039376,289.19,4.05,603.23,73.44,-15.87,573.173706,1,1,0,1,0,,,,,,,,
628416,94495.562500,283.57,-5.841852,0.287304,-0.143652,2.527534,-0.006385,0.039376,288.99,4.03,603.74,73.07,-15.85,573.173706,1,1,0,1,0,,,,,,,,
628426,94472.953125,283.55,-5.765237,0.239420,0.392649,2.511571,-0.017027,0.041504,289.23,4.02,604.60,73.04,-15.82,575.126220,1,1,0,1,0,,,,,,,,
628436,94457.593750,283.57,-5.679046,0.373495,0.474051,2.508378,-0.007449,0.039376,289.19,4.02,605.58,73.13,-15.79,576.452819,1,1,0,1,0,,,,,,,,
628446,94476.578125,283.57,-5.693411,-0.090979,0.301669,2.497736,-0.015963,0.042569,289.09,4.01,605.91,72.59,-15.76,574.813110,1,1,0,1,0,,,,,,,,
628456,94457.593750,283.57,-5.837063,0.531512,0.105344,2.469002,-0.011706,0.038312,289.19,4.01,606.56,72.36,-15.75,576.452819,1,1,0,1,0,,,,,,,,
628466,94457.593750,283.57,-5.564124,-0.019153,0.397437,2.459424,-0.013834,0.043633,289.19,4.01,607.05,71.97,-15.71,576.452819,1,1,0,1,0,,,,,,,,
628476,94419.609375,283.57,-5.645527,-0.167594,0.603338,2.440268,-0.015963,0.048954,289.09,4.01,608.23,72.27,-15.69,579.734313,1,1,0,1,0,,,,,,,,
628486,94419.609375,283.57,-5.439626,0.488417,0.339976,2.422176,-0.031926,0.051082,289.38,4.01,609.11,72.27,-15.65,579.734313,1,1,0,1,0,,,,,,,,
628496,94400.609375,283.57,-5.511452,-0.019153,0.593762,2.459424,-0.013834,0.057468,289.23,4.01,610.19,72.46,-15.62,581.376159,1,1,0,1,0,,,,,,,,
628506,94400.609375,283.57,-5.631162,0.478840,1.086967,2.480709,-0.009578,0.056403,289.04,4.01,611.00,72.39,-15.60,581.376159,1,1,0,1,0,,,,,,,,
628516,94400.609375,283.57,-5.640738,0.028730,0.229843,2.481773,-0.003192,0.060660,289.19,4.01,611.61,72.13,-15.58,581.376159,1,1,0,1,0,,,,,,,,
628526,94378.015625,283.55,-5.588066,0.598550,1.225831,2.474323,0.011706,0.064917,289.19,4.01,612.55,72.18,-15.57,583.328857,1,1,0,1,0,,,,,,,,
628536,94378.015625,283.55,-5.449203,-0.158017,0.474051,2.475387,0.005321,0.067046,289.19,4.01,613.26,72.02,-15.54,583.328857,1,1,0,1,0,,,,,,,,
628546,94381.625000,283.57,-5.358223,0.847547,0.814028,2.470066,0.039376,0.051082,289.19,4.01,613.71,71.60,-15.50,583.016845,1,1,0,1,0,,,,,,,,
628556,94340.031250,283.55,-5.477933,0.263362,0.723048,2.461552,0.035119,0.056403,289.23,4.00,614.94,71.95,-15.48,586.612609,1,1,0,1,0,,,,,,,,
628566,94343.640625,283.57,-5.315127,0.033518,1.086967,2.460488,0.068110,0.035119,289.09,4.01,615.79,71.93,-15.45,586.300537,1,1,0,1,0,,,,,,,,
628576,94343.640625,283.57,-5.363011,0.354341,0.426167,2.458360,0.054275,0.039376,289.09,4.01,616.43,71.70,-15.42,586.300537,1,1,0,1,0,,,,,,,,
628586,94343.640625,283.57,-5.492298,-0.191536,0.828393,2.445589,0.090459,0.041504,289.28,4.01,616.90,71.31,-15.41,586.300537,1,1,0,1,0,,,,,,,,
628596,94324.656250,283.57,-5.525817,0.507570,0.837970,2.442396,0.075559,0.032990,289.23,4.01,617.67,71.21,-15.40,587.942077,1,1,0,1,0,,,,,,,,
628606,94324.656250,283.57,-5.353435,0.067037,0.569819,2.430690,0.078752,0.030862,288.99,4.01,618.24,70.92,-15.38,587.942077,1,1,0,1,0,,,,,,,,
628616,94305.656250,283.57,-5.300762,-0.081402,0.957680,2.425369,0.076624,0.032990,289.28,4.03,619.08,70.90,-15.35,589.585205,1,1,0,1,0,,,,,,,,
628626,94305.656250,283.57,-5.185840,0.445321,0.316034,2.430690,0.090459,0.035119,289.19,4.03,619.71,70.67,-15.32,589.585205,1,1,0,1,0,,,,,,,,
628636,94286.671875,283.57,-5.315127,0.138863,0.837970,2.426433,0.097908,0.041504,289.04,4.04,620.59,70.69,-15.30,591.227294,1,1,0,1,0,,,,,,,,
628646,94286.671875,283.57,-5.358223,-0.181959,0.823605,2.418983,0.107486,0.037247,289.23,4.04,621.25,70.49,-15.28,591.227294,1,1,0,1,0,,,,,,,,
628656,94286.671875,283.57,-5.248090,0.268150,0.215478,2.424304,0.095780,0.040440,289.09,4.05,621.74,70.14,-15.26,591.227294,1,1,0,1,0,,,,,,,,
628666,94267.671875,283.57,-5.391742,-0.258573,0.871489,2.410470,0.108550,0.051082,289.09,4.04,622.52,70.06,-15.25,592.871032,1,1,0,1,0,,,,,,,,
628676,94267.671875,283.57,-5.243301,0.134075,0.349553,2.403020,0.094716,0.048954,288.89,4.05,623.10,69.79,-15.23,592.871032,1,1,0,1,0,,,,,,,,
628686,94248.687500,283.57,-5.286397,0.445321,0.143652,2.414726,0.094716,0.050018,289.23,4.04,623.95,69.79,-15.22,594.513610,1,1,0,1,0,,,,,,,,
628696,94248.687500,283.57,-5.305551,-0.196324,0.703895,2.398763,0.095780,0.045761,288.99,4.05,624.58,69.58,-15.21,594.513610,1,1,0,1,0,,,,,,,,
628706,94248.687500,283.57,-5.142745,0.316034,-0.071826,2.384928,0.089394,0.039376,289.23,4.05,625.06,69.21,-15.18,594.513610,1,1,0,1,0,,,,,,,,
628716,94229.703125,283.57,-5.224147,0.378283,0.354341,2.358322,0.091523,0.053211,289.28,4.05,625.82,69.13,-15.17,596.156494,1,1,0,1,0,,,,,,,,
628726,94229.703125,283.57,-4.965574,-0.387860,-0.186747,2.354066,0.069174,0.040440,289.19,4.04,626.39,68.87,-15.13,596.156494,1,1,0,1,0,,,,,,,,
628736,94207.093750,283.55,-5.195417,0.770932,0.086191,2.339167,0.068110,0.046825,289.04,4.05,627.31,68.94,-15.12,598.113464,1,1,0,1,0,,,,,,,,
628746,94210.703125,283.57,-4.984727,-0.220266,0.301669,2.324267,0.057468,0.047890,288.99,4.05,627.92,68.71,-15.09,597.801025,1,1,0,1,0,,,,,,,,
628756,94188.109375,283.55,-4.912901,0.378283,0.134075,2.335974,0.021284,0.042569,289.23,4.05,628.86,68.82,-15.05,599.756958,1,1,0,1,0,,,,,,,,
628766,94188.109375,283.55,-4.908113,-0.057460,-0.287304,2.323203,0.026605,0.045761,289.19,4.05,629.57,68.69,-15.02,599.756958,1,1,0,1,0,,,,,,,,
628776,94172.718750,283.57,-5.075707,-0.090979,0.205901,2.316818,0.028734,0.052147,289.28,4.05,630.44,68.71,-15.01,601.089477,1,1,0,1,0,,,,,,,,
628786,94169.125000,283.55,-5.094861,-0.239420,-0.095768,2.297662,0.009578,0.060660,289.09,4.05,631.16,68.60,-15.00,601.400695,1,1,0,1,0,,,,,,,,
628796,94172.718750,283.57,-4.893748,-0.114921,-0.062249,2.291276,-0.001064,0.065981,289.19,4.05,631.63,68.24,-14.97,601.089477,1,1,0,1,0,,,,,,,,
628806,94153.734375,283.57,-4.908113,-0.100556,0.210689,2.289148,-0.009578,0.073431,289.23,4.05,632.39,68.17,-14.94,602.733459,1,1,0,1,0,,,,,,,,
628816,94153.734375,283.57,-5.161898,0.158017,-0.296881,2.288084,-0.021284,0.079816,289.38,4.03,632.96,67.91,-14.94,602.733459,1,1,0,1,0,,,,,,,,
628826,94150.125000,283.55,-5.094861,-0.253785,0.469263,2.259350,-0.017027,0.091523,288.99,4.02,633.46,67.59,-14.94,603.046020,1,1,0,1,0,,,,,,,,
628836,94131.140625,283.55,-4.793191,-0.028730,-0.134075,2.251900,-0.048954,0.097908,289.28,4.02,634.24,67.55,-14.91,604.690307,1,1,0,1,0,,,,,,,,
628846,94134.750000,283.57,-5.013458,0.316034,0.296881,2.230615,-0.040440,0.112807,288.99,4.01,634.75,67.24,-14.90,604.377685,1,1,0,1,0,,,,,,,,
628856,94112.140625,283.55,-4.960785,-0.301669,0.287304,2.215716,-0.042569,0.117064,289.23,4.01,635.62,67.29,-14.89,606.336242,1,1,0,1,0,,,,,,,,
628866,94115.750000,283.57,-4.984727,0.488417,0.402225,2.206138,-0.052147,0.116000,289.38,4.02,636.20,67.04,-14.88,606.023559,1,1,0,1,0,,,,,,,,
628876,94112.140625,283.55,-4.841075,0.172382,0.191536,2.197624,-0.037247,0.123450,288.99,4.01,636.71,66.74,-14.85,606.336242,1,1,0,1,0,,,,,,,,
628886,94112.140625,283.55,-4.740519,0.272938,0.727837,2.199753,-0.048954,0.112807,289.28,4.01,637.09,66.31,-14.82,606.336242,1,1,0,1,0,,,,,,,,
628896,94093.156250,283.55,-4.726153,0.344765,-0.205901,2.205074,-0.051082,0.106422,289.09,4.01,637.78,66.20,-14.79,607.981018,1,1,0,1,0,,,,,,,,
628906,94077.765625,283.57,-4.797980,0.095768,0.794874,2.216781,-0.034055,0.102165,289.23,4.01,638.63,66.23,-14.78,609.314697,1,1,0,1,0,,,,,,,,
628916,94077.765625,283.57,-4.611232,-0.019153,0.545877,2.224230,-0.043633,0.098972,289.23,4.01,639.27,66.07,-14.74,609.314697,1,1,0,1,0,,,,,,,,
628926,94077.765625,283.57,-4.683058,0.378283,0.349553,2.227423,-0.025541,0.097908,288.89,4.01,639.74,65.74,-14.72,609.314697,1,1,0,1,0,,,,,,,,
628936,94039.796875,283.57,-4.730942,0.114921,0.972045,2.221038,-0.030862,0.100037,289.23,4.01,640.92,66.10,-14.70,612.605590,1,1,0,1,0,,,,,,,,
628946,94036.187500,283.55,-4.529829,0.627280,0.541089,2.238065,-0.027669,0.101101,289.09,4.01,641.89,66.25,-14.67,612.918457,1,1,0,1,0,,,,,,,,
628956,94039.796875,283.57,-4.620809,0.531512,0.933738,2.231680,-0.006385,0.088330,289.23,4.01,642.53,66.10,-14.64,612.605590,1,1,0,1,0,,,,,,,,
628966,94020.796875,283.57,-4.510675,0.105344,0.689530,2.216781,0.000000,0.081945,289.23,4.01,643.43,66.18,-14.61,614.252746,1,1,0,1,0,,,,,,,,
628976,94039.796875,283.57,-4.572925,0.847547,0.383072,2.206138,0.018091,0.072367,289.19,4.01,643.69,65.65,-14.59,612.605590,1,1,0,1,0,,,,,,,,
628986,94020.796875,283.57,-4.572925,0.225054,0.713472,2.208267,0.021284,0.063853,289.19,4.01,644.29,65.45,-14.57,614.252746,1,1,0,1,0,,,,,,,,
628996,94017.203125,283.55,-4.400542,0.478840,0.598550,2.202946,0.032990,0.057468,289.09,4.01,644.82,65.19,-14.53,614.564331,1,1,0,1,0,,,,,,,,
629006,93998.203125,283.55,-4.510675,1.043871,0.737414,2.209331,0.051082,0.041504,289.04,4.01,645.63,65.20,-14.51,616.211853,1,1,0,1,0,,,,,,,,
629016,93998.203125,283.55,-4.702211,0.186747,0.718260,2.197624,0.051082,0.031926,289.28,4.03,646.23,65.01,-14.51,616.211853,1,1,0,1,0,,,,,,,,
629026,93979.218750,283.55,-4.419696,0.689530,0.579396,2.197624,0.057468,0.018091,289.23,4.03,647.10,65.07,-14.49,617.858276,1,1,0,1,0,,,,,,,,
629036,93979.218750,283.55,-4.290409,0.569819,0.723048,2.181661,0.063853,0.010642,289.28,4.04,647.75,64.93,-14.45,617.858276,1,1,0,1,0,,,,,,,,
629046,93963.828125,283.57,-4.481945,0.330399,0.818816,2.186982,0.069174,0.003192,289.19,4.04,648.56,64.95,-14.43,619.193237,1,1,0,1,0,,,,,,,,
629056,93963.828125,283.57,-4.280832,0.766144,0.402225,2.176340,0.071303,-0.011706,289.38,4.05,649.18,64.77,-14.40,619.193237,1,1,0,1,0,,,,,,,,
629066,93960.234375,283.55,-4.553771,0.593762,1.058237,2.160377,0.086202,-0.019156,289.23,4.05,649.72,64.53,-14.39,619.505004,1,1,0,1,0,,,,,,,,
629076,93941.234375,283.55,-4.395754,0.536301,0.555454,2.152927,0.076624,-0.028734,288.84,4.05,650.53,64.55,-14.38,621.153320,1,1,0,1,0,,,,,,,,
629086,93944.828125,283.57,-4.122815,0.708683,0.627280,2.094395,0.076624,-0.037247,289.23,4.05,651.06,64.30,-14.33,620.841552,1,1,0,1,0,,,,,,,,
629096,93925.843750,283.57,-4.204217,0.124498,0.450109,2.106101,0.096844,-0.056403,289.04,4.05,651.87,64.32,-14.30,622.488708,1,1,0,1,0,,,,,,,,
629106,93922.250000,283.55,-4.338293,0.339976,0.454898,2.081624,0.093651,-0.068110,289.23,4.05,652.56,64.22,-14.29,622.800537,1,1,0,1,0,,,,,,,,
629116,93903.250000,283.55,-4.424484,-0.196324,0.205901,2.085881,0.105358,-0.063853,289.19,4.05,653.48,64.35,-14.28,624.449401,1,1,0,1,0,,,,,,,,
629126,93925.843750,283.57,-4.371812,0.023942,0.842759,2.077367,0.090459,-0.054275,289.28,4.05,653.69,63.78,-14.27,622.488708,1,1,0,1,0,,,,,,,,
629136,93903.250000,283.55,-4.362235,-0.014365,0.067037,2.078431,0.086202,-0.048954,289.28,4.05,654.33,63.64,-14.26,624.449401,1,1,0,1,0,,,,,,,,
629146,93903.250000,283.55,-4.443638,0.090979,0.905008,2.073110,0.103229,-0.027669,289.19,4.05,654.80,63.35,-14.26,624.449401,1,1,0,1,0,,,,,,,,
629156,93868.875000,283.57,-4.237736,0.167594,0.612915,2.070982,0.094716,-0.018091,289.04,4.05,655.91,63.66,-14.24,627.433288,1,1,0,1,0,,,,,,,,
629166,93865.281250,283.55,-4.170699,0.272938,0.497993,2.045440,0.104294,-0.014899,289.23,4.05,656.81,63.79,-14.22,627.745239,1,1,0,1,0,,,,,,,,
629176,93865.281250,283.55,-4.338293,-0.052672,0.746990,2.046504,0.103229,-0.015963,289.23,4.05,657.49,63.69,-14.21,627.745239,1,1,0,1,0,,,,,,,,
629186,93868.875000,283.57,-4.175487,0.052672,0.526724,2.053954,0.104294,-0.021284,289.23,4.05,657.93,63.35,-14.19,627.433288,1,1,0,1,0,,,,,,,,
629196,93849.875000,283.57,-4.141968,-0.028730,0.656011,2.035862,0.107486,-0.014899,289.09,4.05,658.66,63.31,-14.16,629.082885,1,1,0,1,0,,,,,,,,
629206,93846.281250,283.55,-4.333505,0.076614,0.536301,2.024156,0.106422,-0.009578,289.09,4.05,659.29,63.16,-14.16,629.394958,1,1,0,1,0,,,,,,,,
629216,93846.281250,283.55,-4.156333,-0.043095,0.718260,2.036926,0.114936,-0.005321,289.09,4.03,659.76,62.87,-14.14,629.394958,1,1,0,1,0,,,,,,,,
629226,93830.890625,283.57,-4.194641,0.282515,0.545877,2.031605,0.113872,0.001064,289.09,4.02,660.44,62.78,-14.13,630.731445,1,1,0,1,0,,,,,,,,
629236,93827.296875,283.55,-4.319139,-0.225054,0.670376,2.032670,0.129835,0.009578,289.23,4.01,661.04,62.61,-14.13,631.043518,1,1,0,1,0,,,,,,,,
629246,93827.296875,283.55,-4.094084,0.100556,0.521935,2.023092,0.122385,0.004256,289.09,4.01,661.48,62.29,-14.10,631.043518,1,1,0,1,0,,,,,,,,
629256,93808.312500,283.55,-4.031835,0.153228,0.311246,2.020963,0.126642,0.010642,289.23,4.01,662.22,62.26,-14.08,632.692382,1,1,0,1,0,,,,,,,,
629266,93808.312500,283.55,-4.165910,-0.392649,0.593762,2.013514,0.130899,0.015963,289.09,4.01,662.77,62.06,-14.07,632.692382,1,1,0,1,0,,,,,,,,
629276,93811.906250,283.57,-4.070142,-0.090979,0.517147,2.003936,0.125578,0.018091,288.89,4.01,663.11,61.65,-14.05,632.380249,1,1,0,1,0,,,,,,,,
629286,93792.906250,283.57,-4.271255,-0.038307,0.378283,1.992229,0.131963,0.029798,289.43,4.01,663.77,61.55,-14.05,634.030639,1,1,0,1,0,,,,,,,,
629296,93789.312500,283.55,-3.955221,-0.292092,0.311246,1.990101,0.119193,0.034055,289.23,4.01,664.35,61.37,-14.02,634.342895,1,1,0,1,0,,,,,,,,
629306,93770.328125,283.55,-3.993528,0.014365,0.086191,1.981587,0.128771,0.037247,289.04,4.01,665.19,61.46,-14.00,635.992248,1,1,0,1,0,,,,,,,,
629316,93792.906250,283.57,-4.070142,-0.311246,0.186747,1.961367,0.128771,0.047890,288.99,4.01,665.33,60.86,-13.99,634.030639,1,1,0,1,0,,,,,,,,
629326,93770.328125,283.55,-3.816357,-0.067037,0.023942,1.958174,0.110679,0.058532,288.84,4.01,665.92,60.71,-13.95,635.992248,1,1,0,1,0,,,,,,,,
629336,93754.921875,283.57,-3.926490,-0.019153,0.258573,1.966688,0.106422,0.064917,288.84,4.01,666.70,60.73,-13.93,637.330993,1,1,0,1,0,,,,,,,,
629346,93751.343750,283.55,-4.079719,0.023942,0.296881,1.958174,0.105358,0.063853,289.04,4.01,667.36,60.65,-13.93,637.641967,1,1,0,1,0,,,,,,,,
629356,93751.343750,283.55,-4.036623,-0.047884,0.258573,1.953917,0.106422,0.076624,289.09,4.00,667.86,60.40,-13.92,637.641967,1,1,0,1,0,,,,,,,,
629366,93713.359375,283.55,-3.993528,0.177170,0.105344,1.959238,0.104294,0.068110,289.09,4.00,669.05,60.84,-13.91,640.943420,1,1,0,1,0,,,,,,,,
629376,93732.343750,283.55,-3.988739,0.138863,0.325611,1.954981,0.096844,0.067046,289.23,4.01,669.54,60.58,-13.90,639.293212,1,1,0,1,0,,,,,,,,
629386,93732.343750,283.55,-3.797203,-0.076614,-0.090979,1.957110,0.081945,0.072367,289.19,4.01,669.90,60.21,-13.87,639.293212,1,1,0,1,0,,,,,,,,
629396,93694.359375,283.55,-3.964797,0.569819,0.268150,1.966688,0.083009,0.064917,289.09,4.01,671.00,60.55,-13.86,642.595275,1,1,0,1,0,,,,,,,,
629406,93713.359375,283.55,-3.672705,0.162805,-0.138863,1.963495,0.069174,0.067046,289.04,4.01,671.41,60.23,-13.82,640.943420,1,1,0,1,0,,,,,,,,
629416,93697.953125,283.57,-3.768473,0.229843,0.043095,1.965623,0.062789,0.059596,289.19,4.03,672.05,60.13,-13.80,642.282836,1,1,0,1,0,,,,,,,,
629426,93694.359375,283.55,-3.706224,0.483628,0.229843,1.967752,0.063853,0.058532,289.19,4.03,672.61,59.95,-13.77,642.595275,1,1,0,1,0,,,,,,,,
629436,93675.375000,283.55,-3.739742,0.435744,0.172382,1.974137,0.051082,0.056403,289.04,4.04,673.43,60.04,-13.75,644.246032,1,1,0,1,0,,,,,,,,
629446,93675.375000,283.55,-3.720589,0.373495,0.110133,1.970945,0.048954,0.055339,289.09,4.04,674.06,59.93,-13.73,644.246032,1,1,0,1,0,,,,,,,,
629456,93675.375000,283.55,-3.653551,0.656011,-0.057460,1.976266,0.034055,0.045761,289.09,4.05,674.52,59.66,-13.70,644.246032,1,1,0,1,0,,,,,,,,
629466,93656.390625,283.55,-3.778050,0.440533,0.062249,1.974137,0.031926,0.040440,289.09,4.04,675.29,59.69,-13.69,645.897094,1,1,0,1,0,,,,,,,,
629476,93656.390625,283.55,-3.773261,0.474051,0.220266,1.969880,0.030862,0.035119,289.43,4.05,675.86,59.53,-13.68,645.897094,1,1,0,1,0,,,,,,,,
629486,93656.390625,283.55,-3.821145,0.277727,0.229843,1.962431,0.030862,0.025541,288.99,4.04,676.28,59.23,-13.67,645.897094,1,1,0,1,0,,,,,,,,
629496,93637.390625,283.55,-3.653551,0.574608,0.124498,1.962431,0.018091,0.015963,289.19,4.05,677.01,59.23,-13.65,647.549743,1,1,0,1,0,,,,,,,,
629506,93640.984375,283.57,-3.624821,0.569819,0.201112,1.963495,0.011706,0.007449,289.23,4.05,677.48,58.98,-13.63,647.237121,1,1,0,1,0,,,,,,,,
629516,93622.000000,283.57,-3.591302,0.225054,0.258573,1.970945,0.014899,-0.002128,289.09,4.05,678.25,59.01,-13.61,648.888610,1,1,0,1,0,,,,,,,,
629526,93618.406250,283.55,-3.423708,0.560243,-0.095768,1.965623,0.001064,-0.004256,289.23,4.04,678.90,58.94,-13.57,649.201293,1,1,0,1,0,,,,,,,,
629536,93618.406250,283.55,-3.624821,0.316034,0.282515,1.957110,0.006385,0.000000,289.23,4.05,679.39,58.71,-13.56,649.201293,1,1,0,1,0,,,,,,,,
629546,93622.000000,283.57,-3.548206,0.531512,0.071826,1.945403,0.000000,-0.003192,289.23,4.05,679.67,58.28,-13.54,648.888610,1,1,0,1,0,,,,,,,,
629556,93599.421875,283.55,-3.509899,0.560243,0.397437,1.947532,-0.009578,-0.006385,288.89,4.05,680.38,58.26,-13.52,650.853149,1,1,0,1,0,,,,,,,,
629566,93580.421875,283.55,-3.529053,0.478840,0.287304,1.950724,0.001064,-0.011706,289.23,4.05,681.31,58.48,-13.50,652.506591,1,1,0,1,0,,,,,,,,
629576,93584.015625,283.57,-3.509899,0.469263,0.684741,1.951788,-0.006385,-0.017027,288.99,4.05,681.94,58.39,-13.48,652.193847,1,1,0,1,0,,,,,,,,
629586,93584.015625,283.57,-3.711012,0.708683,0.521935,1.939018,0.002128,-0.026605,288.99,4.05,682.41,58.14,-13.49,652.193847,1,1,0,1,0,,,,,,,,
629596,93599.421875,283.55,-3.481169,0.292092,0.565031,1.925183,0.012770,-0.030862,289.23,4.05,682.43,57.46,-13.46,650.853149,1,1,0,1,0,,,,,,,,
629606,93561.437500,283.55,-3.462015,0.004788,0.560243,1.930504,0.005321,-0.041504,288.89,4.05,683.26,57.58,-13.45,654.158996,1,1,0,1,0,,,,,,,,
629616,93561.437500,283.55,-3.629609,0.277727,0.909796,1.916669,0.030862,-0.039376,289.23,4.03,683.89,57.49,-13.44,654.158996,1,1,0,1,0,,,,,,,,
629626,93542.453125,283.55,-3.691859,0.478840,0.632069,1.916669,0.031926,-0.038312,289.28,4.02,684.77,57.66,-13.45,655.811645,1,1,0,1,0,,,,,,,,
629636,93561.437500,283.55,-3.581725,0.316034,0.383072,1.926247,0.036183,-0.042569,289.19,4.01,685.02,57.21,-13.44,654.158996,1,1,0,1,0,,,,,,,,
629646,93565.015625,283.57,-3.452438,0.134075,0.794874,1.916669,0.054275,-0.042569,289.28,4.01,685.13,56.62,-13.42,653.847534,1,1,0,1,0,,,,,,,,
629656,93542.453125,283.55,-3.457227,0.239420,0.397437,1.907091,0.051082,-0.045761,289.28,4.01,685.69,56.49,-13.41,655.811645,1,1,0,1,0,,,,,,,,
629666,93523.453125,283.55,-3.495534,0.296881,0.632069,1.887935,0.064917,-0.040440,289.23,4.01,686.53,56.62,-13.40,657.465942,1,1,0,1,0,,,,,,,,
629676,93546.031250,283.57,-3.457227,-0.181959,0.497993,1.875164,0.074495,-0.040440,289.19,4.01,686.67,56.07,-13.38,655.500122,1,1,0,1,0,,,,,,,,
629686,93523.453125,283.55,-3.462015,0.272938,0.536301,1.870907,0.070238,-0.036183,289.04,4.01,687.26,55.97,-13.37,657.465942,1,1,0,1,0,,,,,,,,
629696,93504.468750,283.55,-3.356670,0.205901,0.603338,1.862394,0.085138,-0.036183,289.09,4.01,688.11,56.12,-13.35,659.119140,1,1,0,1,0,,,,,,,,
629706,93504.468750,283.55,-3.280056,-0.071826,0.416591,1.860265,0.077688,-0.036183,289.23,4.01,688.76,56.07,-13.33,659.119140,1,1,0,1,0,,,,,,,,
629716,93504.468750,283.55,-3.567360,0.201112,0.627280,1.840045,0.098972,-0.029798,289.23,4.01,689.24,55.86,-13.33,659.119140,1,1,0,1,0,,,,,,,,
629726,93508.046875,283.57,-3.452438,0.325611,0.301669,1.836852,0.106422,-0.028734,289.04,4.01,689.52,55.46,-13.32,658.807495,1,1,0,1,0,,,,,,,,
629736,93489.062500,283.57,-3.466804,0.335188,0.378283,1.819825,0.106422,-0.030862,288.99,4.01,690.14,55.40,-13.32,660.460937,1,1,0,1,0,,,,,,,,
629746,93489.062500,283.57,-3.294421,0.363918,0.234631,1.814503,0.108550,-0.028734,289.23,4.01,690.61,55.18,-13.30,660.460937,1,1,0,1,0,,,,,,,,
629756,93489.062500,283.57,-3.289633,0.210689,0.162805,1.809182,0.112807,-0.030862,289.23,4.01,690.96,54.85,-13.28,660.460937,1,1,0,1,0,,,,,,,,
629766,93466.484375,283.55,-3.251325,0.488417,0.047884,1.794283,0.108550,-0.032990,289.19,4.01,691.70,54.91,-13.26,662.427673,1,1,0,1,0,,,,,,,,
629776,93470.062500,283.57,-3.351882,0.392649,0.239420,1.796412,0.107486,-0.038312,289.19,4.01,692.19,54.72,-13.25,662.115966,1,1,0,1,0,,,,,,,,
629786,93447.500000,283.55,-3.050212,0.287304,-0.210689,1.797476,0.089394,-0.052147,289.23,4.01,693.04,54.89,-13.21,664.081665,1,1,0,1,0,,,,,,,,
629796,93447.500000,283.55,-3.313575,0.268150,0.383072,1.794283,0.106422,-0.050018,289.09,4.01,693.68,54.85,-13.20,664.081665,1,1,0,1,0,,,,,,,,
629806,93447.500000,283.55,-3.193865,0.244208,0.004788,1.791090,0.093651,-0.056403,289.04,4.01,694.16,54.65,-13.18,664.081665,1,1,0,1,0,,,,,,,,
629816,93428.500000,283.55,-3.399766,0.339976,0.023942,1.780448,0.100037,-0.051082,289.04,4.03,694.94,54.74,-13.18,665.737365,1,1,0,1,0,,,,,,,,
629826,93428.500000,283.55,-3.126827,0.220266,0.057460,1.782577,0.081945,-0.053211,289.04,4.03,695.52,54.64,-13.16,665.737365,1,1,0,1,0,,,,,,,,
629836,93428.500000,283.55,-3.213018,0.215478,0.311246,1.782577,0.073431,-0.057468,289.04,4.04,695.95,54.41,-13.15,665.737365,1,1,0,1,0,,,,,,,,
629846,93413.093750,283.57,-3.227383,0.407014,0.210689,1.774063,0.081945,-0.050018,289.19,4.04,696.61,54.39,-13.13,667.080017,1,1,0,1,0,,,,,,,,
629856,93413.093750,283.57,-3.122039,0.220266,0.114921,1.774063,0.064917,-0.050018,289.09,4.05,697.11,54.21,-13.11,667.080017,1,1,0,1,0,,,,,,,,
629866,93409.515625,283.55,-3.160346,0.191536,0.038307,1.763421,0.064917,-0.054275,289.23,4.05,697.56,53.99,-13.10,667.391906,1,1,0,1,0,,,,,,,,
629876,93394.109375,283.57,-3.131615,0.062249,-0.177170,1.749586,0.050018,-0.045761,289.04,4.05,698.23,53.99,-13.08,668.734802,1,1,0,1,0,,,,,,,,
629886,93390.531250,283.55,-3.126827,-0.100556,-0.014365,1.734686,0.055339,-0.038312,288.99,4.05,698.81,53.90,-13.07,669.046752,1,1,0,1,0,,,,,,,,
629896,93371.531250,283.55,-3.141192,0.215478,0.062249,1.727237,0.043633,-0.030862,288.89,4.05,699.65,54.07,-13.06,670.703186,1,1,0,1,0,,,,,,,,
629906,93375.109375,283.57,-3.126827,-0.110133,0.124498,1.725109,0.034055,-0.022348,289.09,4.05,700.21,53.96,-13.05,670.391235,1,1,0,1,0,,,,,,,,
629916,93375.109375,283.57,-2.992752,0.268150,0.277727,1.726173,0.028734,-0.018091,289.09,4.05,700.63,53.71,-13.02,670.391235,1,1,0,1,0,,,,,,,,
629926,93371.531250,283.55,-2.920926,0.225054,0.124498,1.730430,0.017027,-0.013834,289.28,4.05,701.02,53.45,-12.99,670.703186,1,1,0,1,0,,,,,,,,
629936,93352.546875,283.55,-3.011905,0.124498,0.119710,1.733622,0.020220,-0.014899,289.28,4.05,701.73,53.48,-12.98,672.358581,1,1,0,1,0,,,,,,,,
629946,93352.546875,283.55,-2.916137,0.186747,0.181959,1.726173,0.009578,-0.013834,289.19,4.05,702.26,53.35,-12.95,672.358581,1,1,0,1,0,,,,,,,,
629956,93352.546875,283.55,-2.997540,-0.047884,0.215478,1.721916,0.019156,-0.003192,289.23,4.05,702.65,53.09,-12.94,672.358581,1,1,0,1,0,,,,,,,,
629966,93356.125000,283.57,-3.098096,0.124498,0.181959,1.716595,0.014899,0.002128,289.23,4.05,702.87,52.66,-12.93,672.046569,1,1,0,1,0,,,,,,,,
629976,93333.562500,283.55,-3.145981,0.162805,0.119710,1.698503,0.019156,0.006385,289.23,4.05,703.52,52.65,-12.93,674.014221,1,1,0,1,0,,,,,,,,
629986,93337.125000,283.57,-2.987963,0.229843,0.253785,1.698503,0.027669,0.006385,289.19,4.05,703.93,52.41,-12.92,673.703491,1,1,0,1,0,,,,,,,,
629996,93337.125000,283.57,-3.045424,0.311246,0.205901,1.684668,0.029798,0.010642,289.09,4.05,704.24,52.07,-12.91,673.703491,1,1,0,1,0,,,,,,,,
630006,93318.140625,283.57,-2.949656,0.124498,0.062249,1.676154,0.031926,0.008513,289.38,4.05,704.88,52.06,-12.90,675.359375,1,1,0,1,0,,,,,,,,
630016,93299.156250,283.57,-3.021482,0.047884,0.416591,1.665512,0.031926,0.009578,289.09,4.03,705.77,52.29,-12.89,677.015502,1,1,0,1,0,,,,,,,,
630026,93314.562500,283.55,-2.935291,0.181959,0.062249,1.660191,0.032990,0.010642,289.09,4.02,706.11,51.98,-12.88,675.671508,1,1,0,1,0,,,,,,,,
630036,93295.578125,283.55,-3.141192,0.090979,0.272938,1.649549,0.051082,0.014899,289.09,4.01,706.77,52.00,-12.88,677.327697,1,1,0,1,0,,,,,,,,
630046,93299.156250,283.57,-2.925714,0.201112,0.339976,1.654870,0.036183,0.023412,288.99,4.01,707.20,51.77,-12.87,677.015502,1,1,0,1,0,,,,,,,,
630056,93295.578125,283.55,-2.949656,0.186747,0.143652,1.647420,0.032990,0.017027,289.28,4.01,707.59,51.52,-12.86,677.327697,1,1,0,1,0,,,,,,,,
630066,93280.156250,283.57,-2.920926,0.296881,0.426167,1.636778,0.031926,0.021284,288.89,4.01,708.22,51.51,-12.84,678.673278,1,1,0,1,0,,,,,,,,
630076,93280.156250,283.57,-2.959233,0.248996,0.110133,1.638906,0.041504,0.028734,289.53,4.01,708.69,51.34,-12.84,678.673278,1,1,0,1,0,,,,,,,,
630086,93257.593750,283.55,-2.949656,0.469263,0.330399,1.626136,0.054275,0.025541,289.04,4.01,709.53,51.53,-12.83,680.642272,1,1,0,1,0,,,,,,,,
630096,93257.593750,283.55,-2.829946,0.450109,0.316034,1.624007,0.055339,0.024477,289.19,4.01,710.16,51.52,-12.81,680.642272,1,1,0,1,0,,,,,,,,
630106,93257.593750,283.55,-2.853888,0.272938,0.282515,1.614429,0.075559,0.019156,288.89,4.01,710.64,51.35,-12.80,680.642272,1,1,0,1,0,,,,,,,,
630116,93242.171875,283.57,-2.691082,0.512359,-0.028730,1.611236,0.074495,0.006385,289.28,4.01,711.33,51.40,-12.77,681.988281,1,1,0,1,0,,,,,,,,
630126,93257.593750,283.55,-2.777273,0.435744,0.067037,1.596337,0.074495,0.000000,289.04,4.01,711.52,50.96,-12.75,680.642272,1,1,0,1,0,,,,,,,,
630136,93242.171875,283.57,-2.753331,0.555454,-0.004788,1.598466,0.085138,-0.011706,289.19,4.01,711.99,50.79,-12.73,681.988281,1,1,0,1,0,,,,,,,,
630146,93238.609375,283.55,-2.638410,0.325611,-0.071826,1.600594,0.061725,-0.020220,288.99,4.01,712.42,50.59,-12.70,682.299255,1,1,0,1,0,,,,,,,,
630156,93223.187500,283.57,-2.801215,0.306457,0.019153,1.602723,0.070238,-0.025541,289.09,4.01,713.07,50.61,-12.69,683.645507,1,1,0,1,0,,,,,,,,
630166,93219.609375,283.55,-2.585737,0.339976,-0.186747,1.599530,0.053211,-0.036183,289.09,4.01,713.64,50.55,-12.66,683.957885,1,1,0,1,0,,,,,,,,
630176,93223.187500,283.57,-2.738966,0.129286,-0.186747,1.591016,0.044697,-0.032990,288.99,4.00,713.99,50.28,-12.65,683.645507,1,1,0,1,0,,,,,,,,
630186,93200.625000,283.55,-2.743755,0.373495,0.210689,1.580374,0.051082,-0.031926,289.04,4.00,714.75,50.39,-12.64,685.615478,1,1,0,1,0,,,,,,,,
630196,93204.187500,283.57,-2.820369,0.316034,-0.325611,1.572924,0.037247,-0.030862,289.09,4.01,715.23,50.25,-12.64,685.304382,1,1,0,1,0,,,,,,,,
630206,93204.187500,283.57,-2.686294,0.344765,-0.067037,1.570796,0.041504,-0.030862,289.09,4.01,715.60,49.99,-12.63,685.304382,1,1,0,1,0,,,,,,,,
630216,93204.187500,283.57,-2.647987,0.287304,-0.086191,1.571860,0.031926,-0.032990,289.04,4.03,715.87,49.65,-12.61,685.304382,1,1,0,1,0,,,,,,,,
630226,93200.625000,283.55,-2.681505,0.339976,-0.081402,1.569732,0.022348,-0.031926,289.23,4.03,716.15,49.31,-12.60,685.615478,1,1,0,1,0,,,,,,,,
630236,93204.187500,283.57,-2.633621,0.541089,-0.062249,1.566539,0.011706,-0.037247,289.19,4.04,716.28,48.84,-12.58,685.304382,1,1,0,1,0,,,,,,,,
630246,93185.203125,283.57,-2.719813,0.191536,-0.105344,1.560154,0.001064,-0.034055,289.04,4.04,716.79,48.73,-12.57,686.962158,1,1,0,1,0,,,,,,,,
630256,93166.218750,283.57,-2.600102,0.330399,-0.014365,1.552704,-0.002128,-0.040440,289.09,4.04,717.58,48.90,-12.56,688.620239,1,1,0,1,0,,,,,,,,
630266,93147.218750,283.57,-2.767697,0.550666,0.071826,1.552704,-0.007449,-0.045761,289.04,4.04,718.59,49.28,-12.56,690.279907,1,1,0,1,0,,,,,,,,
630276,93162.640625,283.55,-2.600102,0.244208,0.067037,1.550576,-0.015963,-0.045761,289.28,4.05,719.02,49.09,-12.55,688.932800,1,1,0,1,0,,,,,,,,
630286,93166.218750,283.57,-2.542642,0.392649,-0.019153,1.546319,-0.018091,-0.050018,289.04,4.05,719.26,48.73,-12.53,688.620239,1,1,0,1,0,,,,,,,,
630296,93147.218750,283.57,-2.753331,0.349553,-0.167594,1.543126,-0.021284,-0.047890,289.09,4.05,719.85,48.70,-12.53,690.279907,1,1,0,1,0,,,,,,,,
630306,93128.234375,283.57,-2.657563,0.196324,-0.071826,1.532484,-0.019156,-0.043633,289.04,4.05,720.70,48.94,-12.52,691.938537,1,1,0,1,0,,,,,,,,
630316,93124.671875,283.55,-2.561795,0.258573,0.095768,1.527163,-0.022348,-0.047890,289.23,4.05,721.43,49.04,-12.51,692.249816,1,1,0,1,0,,,,,,,,
630326,93128.234375,283.57,-2.542642,0.359130,-0.057460,1.525034,-0.025541,-0.048954,289.19,4.05,721.89,48.89,-12.49,691.938537,1,1,0,1,0,,,,,,,,
630336,93147.218750,283.57,-2.638410,0.239420,-0.067037,1.525034,-0.026605,-0.047890,289.09,4.05,721.83,48.23,-12.49,690.279907,1,1,0,1,0,,,,,,,,
630346,93105.671875,283.55,-2.657563,0.316034,0.062249,1.517585,-0.028734,-0.043633,289.04,4.05,722.68,48.47,-12.49,693.910095,1,1,0,1,0,,,,,,,,
630356,93105.671875,283.55,-2.561795,0.359130,-0.086191,1.510135,-0.037247,-0.046825,289.23,4.05,723.32,48.50,-12.47,693.910095,1,1,0,1,0,,,,,,,,
630366,93105.671875,283.55,-2.513911,0.052672,-0.057460,1.505878,-0.043633,-0.043633,289.09,4.05,723.80,48.37,-12.46,693.910095,1,1,0,1,0,,,,,,,,
630376,93109.234375,283.57,-2.585737,0.292092,0.067037,1.502686,-0.047890,-0.041504,289.23,4.05,724.08,48.05,-12.45,693.598754,1,1,0,1,0,,,,,,,,
630386,93090.250000,283.57,-2.576160,0.277727,-0.062249,1.499493,-0.044697,-0.035119,289.38,4.05,724.71,48.07,-12.45,695.257934,1,1,0,1,0,,,,,,,,
630396,93090.250000,283.57,-2.499546,0.167594,0.177170,1.502686,-0.051082,-0.032990,288.89,4.05,725.18,47.93,-12.43,695.257934,1,1,0,1,0,,,,,,,,
630406,93071.265625,283.57,-2.446874,0.363918,0.023942,1.496300,-0.051082,-0.031926,289.19,4.05,725.94,48.08,-12.42,696.917358,1,1,0,1,0,,,,,,,,
630416,93086.687500,283.55,-2.456450,0.215478,0.038307,1.503750,-0.047890,-0.032990,288.99,4.02,726.18,47.73,-12.40,695.569274,1,1,0,1,0,,,,,,,,
630426,93071.265625,283.57,-2.494758,0.196324,0.181959,1.493107,-0.055339,-0.032990,289.09,4.03,726.69,47.64,-12.39,696.917358,1,1,0,1,0,,,,,,,,
630436,93067.687500,283.55,-2.394201,0.234631,0.100556,1.483529,-0.048954,-0.029798,289.43,4.02,727.15,47.50,-12.37,697.230163,1,1,0,1,0,,,,,,,,
630446,93071.265625,283.57,-2.485181,0.201112,0.057460,1.482465,-0.054275,-0.029798,288.89,4.01,727.42,47.18,-12.36,696.917358,1,1,0,1,0,,,,,,,,
630456,93048.703125,283.55,-2.489969,0.167594,0.239420,1.473951,-0.039376,-0.023412,289.04,4.01,728.11,47.27,-12.36,698.889892,1,1,0,1,0,,,,,,,,
630466,93052.265625,283.57,-2.317587,0.062249,0.028730,1.467566,-0.041504,-0.020220,289.09,4.01,728.55,47.12,-12.33,698.578430,1,1,0,1,0,,,,,,,,
630476,93029.718750,283.55,-2.418143,0.201112,0.028730,1.467566,-0.050018,-0.020220,289.19,4.01,729.38,47.34,-12.32,700.549926,1,1,0,1,0,,,,,,,,
630486,93052.265625,283.57,-2.451662,0.220266,0.287304,1.459052,-0.043633,-0.013834,289.19,4.01,729.50,46.88,-12.32,698.578430,1,1,0,1,0,,,,,,,,
