,timestamp_s,timestamp_ms,imu1_accel_x,imu1_accel_y,imu1_accel_z,imu1_gyro_x,imu1_gyro_y,imu1_gyro_z,imu1_mag_x,imu1_mag_y,imu1_mag_z,imu2_accel_x,imu2_accel_y,imu2_accel_z,imu2_gyro_x,imu2_gyro_y,imu2_gyro_z,imu2_mag_x,imu2_mag_y,imu2_mag_z,high_g_accel_x,high_g_accel_y,high_g_accel_z,baro1_temp,baro1_pres,baro2_temp,baro2_pres,gps_lat,gps_long,gps_alt,battery_voltage,pyro_cont,heading,vtg,pos_x,pos_y,pos_z,vel_x,vel_y,vel_z,q_x,q_y,q_z,q_w,state,baro_pres_avg,gps_lat_mod,gps_long_mod,imu1_accel_x_real,imu1_accel_y_real,imu1_accel_z_real,imu2_accel_x_real,imu2_accel_y_real,imu2_accel_z_real,imu1_gyro_x_real,imu1_gyro_y_real,imu1_gyro_z_real,imu2_gyro_x_real,imu2_gyro_y_real,imu2_gyro_z_real,imu1_mag_x_real,imu1_mag_y_real,imu1_mag_z_real,imu2_mag_x_real,imu2_mag_y_real,imu2_mag_z_real,imu_accel_x_avg,imu_accel_y_avg,imu_accel_z_avg,imu_gyro_x_avg,imu_gyro_y_avg,imu_gyro_z_avg,imu_mag_x_avg,imu_mag_y_avg,imu_mag_z_avg,high_g_accel_x_real,high_g_accel_y_real,high_g_accel_z_real,baro_temp_avg
76765,6739732,0,-68,1336,-95,36,-71,77,-348,-305,-988,-67,1335,-55,101,98,116,-845,-176,-92,-224,0,32752,54.95,0.9781396496422404,56.08,0.989765605724155,4449.5048828125,-7309.85791015625,37.900001525878906,7.818333625793457,0,0.0,0.0,0.0,0.0,0.0,0.0,0.0,0.0,0.0,0.0,0.0,0.0,7,0.9839526276831977,44.82508138020833,-73.16429850260417,-0.48813581040000004,9.590432980800001,-0.681954441,-0.4809573426,9.583254513,-0.394815729,0.04398215715,-0.0867425877125,0.09407294723750001,0.12339438533750001,0.11972920557500001,0.14172028415000001,-0.20184,-0.1769,-0.57304,-0.4901,-0.10208,-0.05336,-0.4845465765,9.586843746900001,-0.538385085,0.08368827124375,0.016493308931250006,0.11789661569375001,-0.34597,-0.13949,-0.3132,-6.59008,0.0,963.56384,55.515
76766,6739747,0,-67,1329,-100,23,-91,81,-342,-330,-1021,-72,1331,-50,93,99,116,-845,-176,-92,-256,0,32752,54.95,0.97807056501357,56.08,0.989824821120158,4449.5048828125,-7309.85791015625,37.900001525878906,7.833288669586182,0,0.0,0.0,0.0,0.0,0.0,0.0,0.0,0.0,0.0,0.0,0.0,0.0,7,0.983947693066864,44.82508138020833,-73.16429850260417,-0.4809573426,9.5401837062,-0.71784678,-0.5168496816,9.554540641800001,-0.35892339,0.0280997115125,-0.1111771194625,0.09895985358750001,0.1136205726375,0.12095093216250001,0.14172028415000001,-0.19836,-0.19140000000000001,-0.59218,-0.4901,-0.10208,-0.05336,-0.4989035121,9.547362174,-0.538385085,0.070860142075,0.0048869063500000046,0.12034006886875001,-0.34423,-0.14674,-0.32277,-7.53152,0.0,963.56384,55.515
76767,6739763,0,-61,1333,-102,23,-86,85,-342,-330,-1021,-68,1336,-49,106,89,120,-845,-176,-92,-224,0,32752,54.95,0.9780804342462374,56.08,0.9897261287934864,4449.5048828125,-7309.85791015625,37.900001525878906,7.826642036437988,0,0.0,0.0,0.0,0.0,0.0,0.0,0.0,0.0,0.0,0.0,0.0,0.0,7,0.9839032815198618,44.82508138020833,-73.16429850260417,-0.43788653580000003,9.5688975774,-0.7322037156000001,-0.48813581040000004,9.590432980800001,-0.35174492220000003,0.0280997115125,-0.105068486525,0.1038467599375,0.129503018275,0.1087336662875,0.1466071905,-0.19836,-0.19140000000000001,-0.59218,-0.4901,-0.10208,-0.05336,-0.46301117310000006,9.5796652791,-0.5419743189,0.07880136489375,0.0018325898812499991,0.12522697521875,-0.34423,-0.14674,-0.32277,-6.59008,0.0,963.56384,55.515
76768,6739778,0,-64,1333,-96,31,-77,86,-342,-330,-1021,-75,1331,-50,101,99,124,-845,-176,-92,-288,0,32752,54.95,0.9779126572908956,56.09,0.9898050826548236,4449.5048828125,-7309.85791015625,37.900001525878906,7.819441318511963,0,0.0,0.0,0.0,0.0,0.0,0.0,0.0,0.0,0.0,0.0,0.0,0.0,7,0.9838588699728597,44.82508138020833,-73.16429850260417,-0.4594219392,9.5688975774,-0.6891329088,-0.538385085,9.554540641800001,-0.35892339,0.0378735242125,-0.09407294723750001,0.105068486525,0.12339438533750001,0.12095093216250001,0.15149409685,-0.19836,-0.19140000000000001,-0.59218,-0.4901,-0.10208,-0.05336,-0.49890351210000006,9.5617191096,-0.5240281494,0.080633954775,0.0134389924625,0.12828129168750002,-0.34423,-0.14674,-0.32277,-8.47296,0.0,963.56384,55.52
76769,6739793,0,-66,1332,-102,39,-87,82,-342,-330,-1021,-69,1336,-54,97,108,121,-845,-176,-92,-208,0,32752,54.94,0.9780409573155688,56.09,0.9897952134221564,4449.5048828125,-7309.85791015625,37.900001525878906,7.841043472290039,0,0.0,0.0,0.0,0.0,0.0,0.0,0.0,0.0,0.0,0.0,0.0,0.0,7,0.9839180853688626,44.82508138020833,-73.16429850260417,-0.4737788748,9.5617191096,-0.7322037156000001,-0.4953142782,9.590432980800001,-0.3876372612,0.047647336912500005,-0.1062902131125,0.100181580175,0.11850747898750001,0.13194647145000002,0.1478289170875,-0.19836,-0.19140000000000001,-0.59218,-0.4901,-0.10208,-0.05336,-0.4845465765,9.5760760452,-0.5599204884000001,0.08307740795000002,0.012828129168750008,0.12400524863125001,-0.34423,-0.14674,-0.32277,-6.11936,0.0,963.56384,55.515
76770,6739809,0,-66,1328,-100,27,-78,86,-342,-330,-1021,-64,1328,-54,101,111,124,-845,-176,-92,-128,0,32752,54.96,0.9781495188749076,56.09,0.9896866518628176,4449.5048828125,-7309.85791015625,37.900001525878906,7.833842754364014,0,0.0,0.0,0.0,0.0,0.0,0.0,0.0,0.0,0.0,0.0,0.0,0.0,7,0.9839180853688626,44.82508138020833,-73.16429850260417,-0.4737788748,9.533005238400001,-0.71784678,-0.4594219392,9.533005238400001,-0.3876372612,0.032986617862500005,-0.09529467382500001,0.105068486525,0.12339438533750001,0.13561165121250002,0.15149409685,-0.19836,-0.19140000000000001,-0.59218,-0.4901,-0.10208,-0.05336,-0.46660040700000005,9.533005238400001,-0.5527420206,0.0781905016,0.020158488693750004,0.12828129168750002,-0.34423,-0.14674,-0.32277,-3.76576,0.0,963.56384,55.525000000000006
76771,6739824,0,-64,1336,-88,34,-75,86,-342,-330,-1021,-65,1328,-52,102,106,120,-845,-176,-92,-208,0,32752,54.95,0.9780014803849,56.08,0.9897952134221564,4449.5048828125,-7309.85791015625,37.900001525878906,7.826642036437988,0,0.0,0.0,0.0,0.0,0.0,0.0,0.0,0.0,0.0,0.0,0.0,0.0,7,0.9838983469035282,44.82508138020833,-73.16429850260417,-0.4594219392,9.590432980800001,-0.6317051664000001,-0.466600407,9.533005238400001,-0.3732803256,0.041538703975,-0.09162949406250001,0.105068486525,0.12461611192500001,0.129503018275,0.1466071905,-0.19836,-0.19140000000000001,-0.59218,-0.4901,-0.10208,-0.05336,-0.4630111731,9.561719109600002,-0.502492746,0.08307740795,0.01893676210624999,0.12583783851250002,-0.34423,-0.14674,-0.32277,-6.11936,0.0,963.56384,55.515
76772,6739840,0,-66,1334,-94,32,-73,90,-342,-330,-1021,-64,1333,-48,111,104,126,-845,-176,-92,-192,0,32752,54.97,0.9780113496175672,56.09,0.9898642980508264,4449.5048828125,-7309.85791015625,37.900001525878906,7.822210788726807,0,0.0,0.0,0.0,0.0,0.0,0.0,0.0,0.0,0.0,0.0,0.0,0.0,7,0.9839378238341968,44.82508138020833,-73.16429850260417,-0.4737788748,9.5760760452,-0.6747759732,-0.4594219392,9.5688975774,-0.3445664544,0.0390952508,-0.0891860408875,0.109955392875,0.13561165121250002,0.1270595651,0.153937550025,-0.19836,-0.19140000000000001,-0.59218,-0.4901,-0.10208,-0.05336,-0.46660040700000005,9.5724868113,-0.5096712138,0.08735345100625001,0.018936762106249998,0.13194647145,-0.34423,-0.14674,-0.32277,-5.64864,0.0,963.56384,55.53
76773,6739855,0,-60,1328,-93,26,-60,88,-342,-330,-1021,-64,1332,-47,109,112,138,-845,-176,-92,-240,0,32752,54.94,0.9781495188749076,56.08,0.9897853441894892,4449.5048828125,-7309.85791015625,37.900001525878906,7.815564155578613,0,0.0,0.0,0.0,0.0,0.0,0.0,0.0,0.0,0.0,0.0,0.0,0.0,7,0.9839674315321985,44.82508138020833,-73.16429850260417,-0.430708068,9.533005238400001,-0.6675975054000001,-0.4594219392,9.5617191096,-0.3373879866,0.031764891275,-0.07330359525,0.1075119397,0.13316819803750002,0.13683337780000002,0.168598269075,-0.19836,-0.19140000000000001,-0.59218,-0.4901,-0.10208,-0.05336,-0.4450650036,9.547362174,-0.502492746,0.08246654465625,0.031764891275000005,0.13805510438750002,-0.34423,-0.14674,-0.32277,-7.0608,0.0,963.56384,55.51
76774,6739870,0,-64,1334,-100,39,-79,89,-342,-330,-1021,-64,1333,-47,101,109,132,-845,-176,-92,-256,0,32752,54.95,0.9781100419442388,56.08,0.989765605724155,4449.5048828125,-7309.85791015625,37.900001525878906,7.836058616638184,0,0.0,0.0,0.0,0.0,0.0,0.0,0.0,0.0,0.0,0.0,0.0,0.0,7,0.9839378238341969,44.82508138020833,-73.16429850260417,-0.4594219392,9.5760760452,-0.71784678,-0.4594219392,9.5688975774,-0.3373879866,0.047647336912500005,-0.09651640041250001,0.1087336662875,0.12339438533750001,0.13316819803750002,0.16126790955,-0.19836,-0.19140000000000001,-0.59218,-0.4901,-0.10208,-0.05336,-0.4594219392,9.5724868113,-0.5276173833,0.08552086112500001,0.018325898812500005,0.13500078791875,-0.34423,-0.14674,-0.32277,-7.53152,0.0,963.56384,55.515
76775,6739886,0,-67,1329,-96,37,-80,96,-342,-330,-1021,-64,1334,-53,100,97,129,-845,-176,-92,-224,0,32752,54.95,0.9781100419442388,56.08,0.989824821120158,4449.5048828125,-7309.85791015625,37.900001525878906,7.819995403289795,0,0.0,0.0,0.0,0.0,0.0,0.0,0.0,0.0,0.0,0.0,0.0,0.0,7,0.9839674315321985,44.82508138020833,-73.16429850260417,-0.4809573426,9.5401837062,-0.6891329088,-0.4594219392,9.5760760452,-0.3804587934,0.0452038837375,-0.09773812700000001,0.1172857524,0.12217265875000001,0.11850747898750001,0.1576027297875,-0.19836,-0.19140000000000001,-0.59218,-0.4901,-0.10208,-0.05336,-0.47018964090000004,9.5581298757,-0.5347958510999999,0.08368827124375,0.010384675993750002,0.13744424109375,-0.34423,-0.14674,-0.32277,-6.59008,0.0,963.56384,55.515
76776,6739901,0,-64,1330,-97,24,-75,82,-342,-330,-1021,-68,1334,-53,96,101,131,-845,-176,-92,-224,0,32752,54.95,0.9779620034542316,56.08,0.9897162595608192,4449.5048828125,-7309.85791015625,37.900001525878906,7.822764873504639,0,0.0,0.0,0.0,0.0,0.0,0.0,0.0,0.0,0.0,0.0,0.0,0.0,7,0.9838391315075254,44.82508138020833,-73.16429850260417,-0.4594219392,9.547362174,-0.6963113766,-0.48813581040000004,9.5760760452,-0.3804587934,0.0293214381,-0.09162949406250001,0.100181580175,0.1172857524,0.12339438533750001,0.1600461829625,-0.19836,-0.19140000000000001,-0.59218,-0.4901,-0.10208,-0.05336,-0.4737788748,9.5617191096,-0.538385085,0.07330359524999999,0.0158824456375,0.13011388156875,-0.34423,-0.14674,-0.32277,-6.59008,0.0,963.56384,55.515
76777,6739917,0,-58,1338,-96,35,-90,97,-342,-330,-1021,-67,1335,-56,89,118,137,-861,-179,-88,-208,0,32752,54.97,0.97807056501357,56.09,0.9896965210954848,4449.5048828125,-7309.85791015625,37.900001525878906,7.825534343719482,0,0.0,0.0,0.0,0.0,0.0,0.0,0.0,0.0,0.0,0.0,0.0,0.0,7,0.9838835430545274,44.82508138020833,-73.16429850260417,-0.4163511324,9.6047899164,-0.6891329088,-0.4809573426,9.583254513,-0.40199419680000004,0.0427604305625,-0.109955392875,0.11850747898750001,0.1087336662875,0.144163737325,0.1673765424875,-0.19836,-0.19140000000000001,-0.59218,-0.49938,-0.10382,-0.05104,-0.4486542375,9.5940222147,-0.5455635528,0.075747048425,0.017104172225000006,0.1429420107375,-0.34887,-0.14761000000000002,-0.32161,-6.11936,0.0,963.56384,55.53
76778,6739932,0,-66,1330,-98,40,-76,97,-342,-330,-1021,-73,1331,-46,104,98,129,-861,-179,-88,-256,0,32752,54.95,0.9781396496422404,56.09,0.989647174932149,4449.5048828125,-7309.85791015625,37.900001525878906,7.821103096008301,0,0.0,0.0,0.0,0.0,0.0,0.0,0.0,0.0,0.0,0.0,0.0,0.0,7,0.9838934122871947,44.82508138020833,-73.16429850260417,-0.4737788748,9.547362174,-0.7034898444000001,-0.5240281494,9.554540641800001,-0.3302095188,0.048869063500000004,-0.09285122065000001,0.11850747898750001,0.1270595651,0.11972920557500001,0.1576027297875,-0.19836,-0.19140000000000001,-0.59218,-0.49938,-0.10382,-0.05104,-0.4989035121,9.550951407900001,-0.5168496816,0.0879643143,0.0134389924625,0.13805510438750002,-0.34887,-0.14761000000000002,-0.32161,-7.53152,0.0,963.56384,55.52
76779,6739947,0,-65,1331,-97,27,-70,89,-346,-330,-985,-76,1330,-54,96,111,134,-861,-179,-88,-288,0,32752,54.96,0.9781396496422404,56.08,0.989765605724155,4449.5048828125,-7309.85791015625,37.900001525878906,7.821656703948975,0,0.0,0.0,0.0,0.0,0.0,0.0,0.0,0.0,0.0,0.0,0.0,0.0,7,0.9839526276831977,44.82508138020833,-73.16429850260417,-0.466600407,9.554540641800001,-0.6963113766,-0.5455635528,9.547362174,-0.3876372612,0.032986617862500005,-0.085520861125,0.1087336662875,0.1172857524,0.13561165121250002,0.163711362725,-0.20068,-0.19140000000000001,-0.5713,-0.49938,-0.10382,-0.05104,-0.5060819799,9.550951407900001,-0.5419743189,0.07513618513125,0.02504539504375001,0.13622251450625,-0.35003,-0.14761000000000002,-0.31117,-8.47296,0.0,963.56384,55.519999999999996
76780,6739963,0,-68,1324,-98,32,-72,99,-346,-330,-985,-72,1330,-51,107,104,134,-861,-179,-88,-192,0,32752,54.96,0.9782087342709104,56.08,0.9897162595608192,4449.5048828125,-7309.85791015625,37.900001525878906,7.82498025894165,0,0.0,0.0,0.0,0.0,0.0,0.0,0.0,0.0,0.0,0.0,0.0,0.0,7,0.9839624969158648,44.82508138020833,-73.16429850260417,-0.48813581040000004,9.5042913672,-0.7034898444000001,-0.5168496816,9.547362174,-0.36610185780000004,0.0390952508,-0.0879643143,0.12095093216250001,0.13072474486250002,0.1270595651,0.163711362725,-0.20068,-0.19140000000000001,-0.5713,-0.49938,-0.10382,-0.05104,-0.502492746,9.5258267706,-0.5347958511,0.08490999783125001,0.019547625399999997,0.14233114744375,-0.35003,-0.14761000000000002,-0.31117,-5.64864,0.0,963.56384,55.519999999999996
76781,6739978,0,-69,1334,-99,21,-69,100,-346,-330,-985,-73,1336,-53,96,106,136,-861,-179,-88,-240,0,32752,54.94,0.9781001727115716,56.09,0.9897359980261534,4449.5048828125,-7309.85791015625,37.900001525878906,7.819995403289795,0,0.0,0.0,0.0,0.0,0.0,0.0,0.0,0.0,0.0,0.0,0.0,0.0,7,0.9839180853688625,44.82508138020833,-73.16429850260417,-0.4953142782,9.5760760452,-0.7106683122,-0.5240281494,9.590432980800001,-0.3804587934,0.0256562583375,-0.0842991345375,0.12217265875000001,0.1172857524,0.129503018275,0.1661548159,-0.20068,-0.19140000000000001,-0.5713,-0.49938,-0.10382,-0.05104,-0.5096712138,9.583254513,-0.5455635528,0.07147100536875,0.022601941868749996,0.144163737325,-0.35003,-0.14761000000000002,-0.31117,-7.0608,0.0,963.56384,55.515
76782,6739993,0,-67,1324,-88,34,-68,94,-346,-330,-985,-71,1330,-51,96,104,127,-861,-179,-88,-192,0,32752,54.96,0.9780409573155688,56.09,0.9897359980261534,4449.5048828125,-7309.85791015625,37.900001525878906,7.82719612121582,0,0.0,0.0,0.0,0.0,0.0,0.0,0.0,0.0,0.0,0.0,0.0,0.0,7,0.9838884776708612,44.82508138020833,-73.16429850260417,-0.4809573426,9.5042913672,-0.6317051664000001,-0.5096712138,9.547362174,-0.36610185780000004,0.041538703975,-0.08307740795,0.114842299225,0.1172857524,0.1270595651,0.1551592766125,-0.20068,-0.19140000000000001,-0.5713,-0.49938,-0.10382,-0.05104,-0.4953142782,9.5258267706,-0.49890351210000006,0.0794122281875,0.021991078574999996,0.13500078791875,-0.35003,-0.14761000000000002,-0.31117,-5.64864,0.0,963.56384,55.525000000000006
76783,6740009,0,-68,1329,-101,30,-59,99,-346,-330,-985,-72,1333,-52,98,108,130,-861,-179,-88,-288,0,32752,54.96,0.9779817419195658,56.09,0.9899037749814952,4449.5048828125,-7309.85791015625,37.900001525878906,7.825534343719482,0,0.0,0.0,0.0,0.0,0.0,0.0,0.0,0.0,0.0,0.0,0.0,0.0,7,0.9839427584505305,44.82508138020833,-73.16429850260417,-0.48813581040000004,9.5401837062,-0.7250252478,-0.5168496816,9.5688975774,-0.3732803256,0.036651797625,-0.0720818686625,0.12095093216250001,0.11972920557500001,0.13194647145000002,0.158824456375,-0.20068,-0.19140000000000001,-0.5713,-0.49938,-0.10382,-0.05104,-0.502492746,9.5545406418,-0.5491527867,0.0781905016,0.029932301393750006,0.13988769426875,-0.35003,-0.14761000000000002,-0.31117,-8.47296,0.0,963.56384,55.525000000000006
76784,6740024,0,-70,1331,-100,27,-65,103,-346,-330,-985,-73,1333,-50,113,101,140,-861,-179,-88,-240,0,32752,54.96,0.977744880335554,56.09,0.9898050826548236,4449.5048828125,-7309.85791015625,37.900001525878906,7.820549011230469,0,0.0,0.0,0.0,0.0,0.0,0.0,0.0,0.0,0.0,0.0,0.0,0.0,7,0.9837749814951888,44.82508138020833,-73.16429850260417,-0.502492746,9.554540641800001,-0.71784678,-0.5240281494,9.5688975774,-0.35892339,0.032986617862500005,-0.0794122281875,0.1258378385125,0.13805510438750002,0.12339438533750001,0.17104172225,-0.20068,-0.19140000000000001,-0.5713,-0.49938,-0.10382,-0.05104,-0.5132604477,9.5617191096,-0.538385085,0.08552086112500001,0.021991078575000003,0.14843978038125,-0.35003,-0.14761000000000002,-0.31117,-7.0608,0.0,963.56384,55.525000000000006
76785,6740040,0,-66,1338,-95,34,-74,98,-346,-330,-985,-71,1336,-46,101,99,132,-861,-179,-88,-160,0,32752,54.96,0.9780310880829016,56.08,0.9898840365161607,4449.5048828125,-7309.85791015625,37.900001525878906,7.798393249511719,0,0.0,0.0,0.0,0.0,0.0,0.0,0.0,0.0,0.0,0.0,0.0,0.0,7,0.9839575622995311,44.82508138020833,-73.16429850260417,-0.4737788748,9.6047899164,-0.681954441,-0.5096712138,9.590432980800001,-0.3302095188,0.041538703975,-0.090407767475,0.11972920557500001,0.12339438533750001,0.12095093216250001,0.16126790955,-0.20068,-0.19140000000000001,-0.5713,-0.49938,-0.10382,-0.05104,-0.4917250443,9.5976114486,-0.5060819799,0.08246654465625,0.015271582343750006,0.14049855756250001,-0.35003,-0.14761000000000002,-0.31117,-4.7072,0.0,963.56384,55.519999999999996
76786,6740055,0,-74,1328,-91,36,-74,99,-346,-330,-985,-70,1333,-46,101,104,130,-861,-179,-88,-208,0,32752,54.94,0.9781001727115716,56.09,0.9898050826548236,4449.5048828125,-7309.85791015625,37.900001525878906,7.821103096008301,0,0.0,0.0,0.0,0.0,0.0,0.0,0.0,0.0,0.0,0.0,0.0,0.0,7,0.9839526276831976,44.82508138020833,-73.16429850260417,-0.5312066172000001,9.533005238400001,-0.6532405698,-0.502492746,9.5688975774,-0.3302095188,0.04398215715,-0.090407767475,0.12095093216250001,0.12339438533750001,0.1270595651,0.158824456375,-0.20068,-0.19140000000000001,-0.5713,-0.49938,-0.10382,-0.05104,-0.5168496816000001,9.550951407900001,-0.49172504429999997,0.08368827124375,0.018325898812499998,0.13988769426875,-0.35003,-0.14761000000000002,-0.31117,-6.11936,0.0,963.56384,55.515
76787,6740070,0,-74,1329,-96,42,-70,92,-346,-330,-985,-78,1330,-46,96,95,131,-861,-179,-88,-224,0,32752,54.95,0.9780014803849,56.08,0.989893905748828,4449.5048828125,-7309.85791015625,37.900001525878906,7.829411506652832,0,0.0,0.0,0.0,0.0,0.0,0.0,0.0,0.0,0.0,0.0,0.0,0.0,7,0.983947693066864,44.82508138020833,-73.16429850260417,-0.5312066172000001,9.5401837062,-0.6891329088,-0.5599204884,9.547362174,-0.3302095188,0.051312516675,-0.085520861125,0.11239884605,0.1172857524,0.1160640258125,0.1600461829625,-0.20068,-0.19140000000000001,-0.5713,-0.49938,-0.10382,-0.05104,-0.5455635528,9.5437729401,-0.5096712138,0.0842991345375,0.01527158234375,0.13622251450625,-0.35003,-0.14761000000000002,-0.31117,-6.59008,0.0,963.56384,55.515
76788,6740086,0,-71,1329,-92,23,-79,93,-346,-330,-985,-78,1328,-49,107,109,134,-861,-179,-88,-272,0,32752,54.95,0.9781692573402418,56.09,0.9897952134221564,4449.5048828125,-7309.85791015625,37.900001525878906,7.836612224578857,0,0.0,0.0,0.0,0.0,0.0,0.0,0.0,0.0,0.0,0.0,0.0,0.0,7,0.9839822353811991,44.82508138020833,-73.16429850260417,-0.5096712138,9.5401837062,-0.6604190376,-0.5599204884,9.533005238400001,-0.35174492220000003,0.0280997115125,-0.09651640041250001,0.1136205726375,0.13072474486250002,0.13316819803750002,0.163711362725,-0.20068,-0.19140000000000001,-0.5713,-0.49938,-0.10382,-0.05104,-0.5347958510999999,9.536594472300001,-0.5060819799,0.07941222818750002,0.018325898812500005,0.13866596768125,-0.35003,-0.14761000000000002,-0.31117,-8.00224,0.0,963.56384,55.52
76789,6740101,0,-68,1329,-99,33,-74,102,-346,-330,-985,-80,1333,-52,106,101,134,-861,-179,-88,-208,0,32752,54.95,0.9780310880829016,56.09,0.9898050826548236,4449.5048828125,-7309.85791015625,37.900001525878906,7.829965591430664,0,0.0,0.0,0.0,0.0,0.0,0.0,0.0,0.0,0.0,0.0,0.0,0.0,7,0.9839180853688626,44.82508138020833,-73.16429850260417,-0.48813581040000004,9.5401837062,-0.7106683122,-0.574277424,9.5688975774,-0.3732803256,0.0403169773875,-0.090407767475,0.12461611192500001,0.129503018275,0.12339438533750001,0.163711362725,-0.20068,-0.19140000000000001,-0.5713,-0.49938,-0.10382,-0.05104,-0.5312066172000001,9.5545406418,-0.5419743189,0.08490999783125,0.016493308931250006,0.144163737325,-0.35003,-0.14761000000000002,-0.31117,-6.11936,0.0,963.56384,55.52
76790,6740117,0,-76,1329,-98,30,-71,91,-346,-330,-985,-74,1329,-49,90,104,131,-849,-160,-83,-224,0,32752,54.96,0.9779718726868986,56.08,0.9898346903528252,4449.5048828125,-7309.85791015625,37.900001525878906,7.825534343719482,0,0.0,0.0,0.0,0.0,0.0,0.0,0.0,0.0,0.0,0.0,0.0,0.0,7,0.9839032815198618,44.82508138020833,-73.16429850260417,-0.5455635528,9.5401837062,-0.7034898444000001,-0.5312066172000001,9.5401837062,-0.35174492220000003,0.036651797625,-0.0867425877125,0.1111771194625,0.109955392875,0.1270595651,0.1600461829625,-0.20068,-0.19140000000000001,-0.5713,-0.49242,-0.0928,-0.04814,-0.538385085,9.5401837062,-0.5276173833000001,0.07330359525,0.020158488693749997,0.13561165121250002,-0.34655,-0.1421,-0.30972,-6.59008,0.0,963.56384,55.519999999999996
76791,6740132,0,-73,1331,-92,22,-65,91,-346,-330,-985,-71,1328,-55,96,112,135,-849,-160,-83,-208,0,32752,54.96,0.9779718726868986,56.08,0.9898346903528252,4449.5048828125,-7309.85791015625,37.900001525878906,7.826642036437988,0,0.0,0.0,0.0,0.0,0.0,0.0,0.0,0.0,0.0,0.0,0.0,0.0,7,0.9839032815198618,44.82508138020833,-73.16429850260417,-0.5240281494,9.554540641800001,-0.6604190376,-0.5096712138,9.533005238400001,-0.394815729,0.026877984925,-0.0794122281875,0.1111771194625,0.1172857524,0.13683337780000002,0.1649330893125,-0.20068,-0.19140000000000001,-0.5713,-0.49242,-0.0928,-0.04814,-0.5168496816,9.543772940100002,-0.5276173833,0.07208186866249999,0.028710574806250007,0.13805510438750002,-0.34655,-0.1421,-0.30972,-6.11936,0.0,963.56384,55.519999999999996
76792,6740147,0,-67,1324,-94,24,-69,85,-322,-323,-990,-74,1336,-54,102,100,133,-849,-160,-83,-192,0,32752,54.95,0.9780014803849,56.08,0.9898346903528252,4449.5048828125,-7309.85791015625,37.900001525878906,7.823318481445312,0,0.0,0.0,0.0,0.0,0.0,0.0,0.0,0.0,0.0,0.0,0.0,0.0,7,0.9839180853688626,44.82508138020833,-73.16429850260417,-0.4809573426,9.5042913672,-0.6747759732,-0.5312066172000001,9.590432980800001,-0.3876372612,0.0293214381,-0.0842991345375,0.1038467599375,0.12461611192500001,0.12217265875000001,0.1624896361375,-0.18676,-0.18734,-0.5742,-0.49242,-0.0928,-0.04814,-0.5060819799,9.547362174,-0.5312066172000001,0.0769687750125,0.018936762106250005,0.13316819803750002,-0.33959,-0.14007,-0.31117,-5.64864,0.0,963.56384,55.515
76793,6740163,0,-71,1332,-101,37,-67,93,-322,-323,-990,-82,1335,-50,104,107,138,-849,-160,-83,-208,0,32752,54.94,0.9779817419195658,56.09,0.9896274364668148,4449.5048828125,-7309.85791015625,37.900001525878906,7.833288669586182,0,0.0,0.0,0.0,0.0,0.0,0.0,0.0,0.0,0.0,0.0,0.0,0.0,7,0.9838045891931904,44.82508138020833,-73.16429850260417,-0.5096712138,9.5617191096,-0.7250252478,-0.5886343596,9.583254513,-0.35892339,0.0452038837375,-0.0818556813625,0.1136205726375,0.1270595651,0.13072474486250002,0.168598269075,-0.18676,-0.18734,-0.5742,-0.49242,-0.0928,-0.04814,-0.5491527867,9.5724868113,-0.5419743189,0.08613172441875,0.02443453175000001,0.14110942085625,-0.33959,-0.14007,-0.31117,-6.11936,0.0,963.56384,55.515
76794,6740178,0,-70,1332,-92,31,-74,81,-322,-323,-990,-73,1334,-50,105,105,131,-849,-160,-83,-224,0,32752,54.95,0.9780508265482358,56.09,0.9898050826548236,4449.5048828125,-7309.85791015625,37.900001525878906,7.824426651000977,0,0.0,0.0,0.0,0.0,0.0,0.0,0.0,0.0,0.0,0.0,0.0,0.0,7,0.9839279546015297,44.82508138020833,-73.16429850260417,-0.502492746,9.5617191096,-0.6604190376,-0.5240281494,9.5760760452,-0.35892339,0.0378735242125,-0.090407767475,0.09895985358750001,0.1282812916875,0.1282812916875,0.1600461829625,-0.18676,-0.18734,-0.5742,-0.49242,-0.0928,-0.04814,-0.5132604477,9.568897577400001,-0.5096712138,0.08307740795,0.018936762106249998,0.129503018275,-0.33959,-0.14007,-0.31117,-6.59008,0.0,963.56384,55.52
76795,6740194,0,-76,1330,-99,21,-68,90,-322,-323,-990,-76,1329,-50,97,102,131,-849,-160,-83,-208,0,32752,54.96,0.9781396496422404,56.08,0.989765605724155,4449.5048828125,-7309.85791015625,37.900001525878906,7.817779541015625,0,0.0,0.0,0.0,0.0,0.0,0.0,0.0,0.0,0.0,0.0,0.0,0.0,7,0.9839526276831977,44.82508138020833,-73.16429850260417,-0.5455635528,9.547362174,-0.7106683122,-0.5455635528,9.5401837062,-0.35892339,0.0256562583375,-0.08307740795,0.109955392875,0.11850747898750001,0.12461611192500001,0.1600461829625,-0.18676,-0.18734,-0.5742,-0.49242,-0.0928,-0.04814,-0.5455635528,9.5437729401,-0.5347958511,0.0720818686625,0.020769351987500004,0.13500078791875,-0.33959,-0.14007,-0.31117,-6.11936,0.0,963.56384,55.519999999999996
76796,6740209,0,-73,1337,-98,19,-81,91,-322,-323,-990,-75,1332,-47,101,98,129,-849,-160,-83,-144,0,32752,54.95,0.9779620034542316,56.1,0.989657044164816,4449.5048828125,-7309.85791015625,37.900001525878906,7.833842754364014,0,0.0,0.0,0.0,0.0,0.0,0.0,0.0,0.0,0.0,0.0,0.0,0.0,7,0.9838095238095238,44.82508138020833,-73.16429850260417,-0.5240281494,9.5976114486,-0.7034898444000001,-0.538385085,9.5617191096,-0.3373879866,0.023212805162500003,-0.09895985358750001,0.1111771194625,0.12339438533750001,0.11972920557500001,0.1576027297875,-0.18676,-0.18734,-0.5742,-0.49242,-0.0928,-0.04814,-0.5312066172000001,9.5796652791,-0.5204389155,0.07330359525,0.010384675993750002,0.134389924625,-0.33959,-0.14007,-0.31117,-4.23648,0.0,963.56384,55.525000000000006
76797,6740224,0,-70,1324,-97,28,-73,88,-322,-323,-990,-81,1329,-50,93,95,127,-849,-160,-83,-176,0,32752,54.96,0.9779718726868986,56.09,0.9896274364668148,4449.5048828125,-7309.85791015625,37.900001525878906,7.822764873504639,0,0.0,0.0,0.0,0.0,0.0,0.0,0.0,0.0,0.0,0.0,0.0,0.0,7,0.9837996545768567,44.82508138020833,-73.16429850260417,-0.502492746,9.5042913672,-0.6963113766,-0.5814558918,9.5401837062,-0.35892339,0.034208344450000004,-0.0891860408875,0.1075119397,0.1136205726375,0.1160640258125,0.1551592766125,-0.18676,-0.18734,-0.5742,-0.49242,-0.0928,-0.04814,-0.5419743189,9.5222375367,-0.5276173833,0.07391445854375,0.0134389924625,0.13133560815625,-0.33959,-0.14007,-0.31117,-5.17792,0.0,963.56384,55.525000000000006
76798,6740240,0,-75,1330,-93,25,-75,87,-322,-323,-990,-75,1331,-48,107,101,135,-849,-160,-83,-192,0,32752,54.95,0.9780508265482358,56.08,0.9897162595608192,4449.5048828125,-7309.85791015625,37.900001525878906,7.82498025894165,0,0.0,0.0,0.0,0.0,0.0,0.0,0.0,0.0,0.0,0.0,0.0,0.0,7,0.9838835430545275,44.82508138020833,-73.16429850260417,-0.538385085,9.547362174,-0.6675975054000001,-0.538385085,9.554540641800001,-0.3445664544,0.030543164687500002,-0.09162949406250001,0.1062902131125,0.13072474486250002,0.12339438533750001,0.1649330893125,-0.18676,-0.18734,-0.5742,-0.49242,-0.0928,-0.04814,-0.538385085,9.550951407900001,-0.5060819799,0.08063395477500002,0.0158824456375,0.13561165121250002,-0.33959,-0.14007,-0.31117,-5.64864,0.0,963.56384,55.515
76799,6740255,0,-74,1328,-86,27,-68,86,-322,-323,-990,-75,1334,-53,96,101,131,-849,-160,-83,-208,0,32752,54.95,0.9781100419442388,56.08,0.9898840365161607,4449.5048828125,-7309.85791015625,37.900001525878906,7.829965591430664,0,0.0,0.0,0.0,0.0,0.0,0.0,0.0,0.0,0.0,0.0,0.0,0.0,7,0.9839970392301998,44.82508138020833,-73.16429850260417,-0.5312066172000001,9.533005238400001,-0.6173482308,-0.538385085,9.5760760452,-0.3804587934,0.032986617862500005,-0.08307740795,0.105068486525,0.1172857524,0.12339438533750001,0.1600461829625,-0.18676,-0.18734,-0.5742,-0.49242,-0.0928,-0.04814,-0.5347958511,9.554540641800001,-0.4989035121,0.07513618513125,0.020158488693750004,0.13255733474375,-0.33959,-0.14007,-0.31117,-6.11936,0.0,963.56384,55.515
76800,6740270,0,-75,1328,-95,35,-70,86,-322,-323,-990,-76,1330,-50,101,94,123,-849,-160,-83,-208,0,32752,54.95,0.9779027880582284,56.09,0.9898050826548236,4449.5048828125,-7309.85791015625,37.900001525878906,7.8105788230896,0,0.0,0.0,0.0,0.0,0.0,0.0,0.0,0.0,0.0,0.0,0.0,0.0,7,0.983853935356526,44.82508138020833,-73.16429850260417,-0.538385085,9.533005238400001,-0.681954441,-0.5455635528,9.547362174,-0.35892339,0.0427604305625,-0.085520861125,0.105068486525,0.12339438533750001,0.114842299225,0.1502723702625,-0.18676,-0.18734,-0.5742,-0.49242,-0.0928,-0.04814,-0.5419743189,9.5401837062,-0.5204389155,0.08307740795,0.01466071905,0.12767042839375,-0.33959,-0.14007,-0.31117,-6.11936,0.0,963.56384,55.52
76801,6740285,0,-68,1330,-96,25,-81,83,-322,-323,-990,-77,1328,-47,100,102,131,-849,-160,-83,-288,0,32752,54.95,0.9779422649888972,56.09,0.9898642980508264,4449.5048828125,-7309.85791015625,37.900001525878906,7.825534343719482,0,0.0,0.0,0.0,0.0,0.0,0.0,0.0,0.0,0.0,0.0,0.0,0.0,7,0.9839032815198618,44.82508138020833,-73.16429850260417,-0.48813581040000004,9.547362174,-0.6891329088,-0.5527420206,9.533005238400001,-0.3373879866,0.030543164687500002,-0.09895985358750001,0.1014033067625,0.12217265875000001,0.12461611192500001,0.1600461829625,-0.18676,-0.18734,-0.5742,-0.49242,-0.0928,-0.04814,-0.5204389155,9.5401837062,-0.5132604477,0.07635791171875,0.01282812916875,0.13072474486250002,-0.33959,-0.14007,-0.31117,-8.47296,0.0,963.56384,55.52
76802,6740300,0,-73,1332,-95,33,-73,82,-322,-323,-990,-81,1329,-54,100,95,131,-849,-160,-83,-144,0,32752,54.95,0.9780310880829016,56.08,0.9898346903528252,4449.5048828125,-7309.85791015625,37.900001525878906,7.820549011230469,0,0.0,0.0,0.0,0.0,0.0,0.0,0.0,0.0,0.0,0.0,0.0,0.0,7,0.9839328892178634,44.82508138020833,-73.16429850260417,-0.5240281494,9.5617191096,-0.681954441,-0.5814558918,9.5401837062,-0.3876372612,0.0403169773875,-0.0891860408875,0.100181580175,0.12217265875000001,0.1160640258125,0.1600461829625,-0.18676,-0.18734,-0.5742,-0.49242,-0.0928,-0.04814,-0.5527420206,9.550951407900001,-0.5347958511,0.08124481806875,0.0134389924625,0.13011388156875,-0.33959,-0.14007,-0.31117,-4.23648,0.0,963.56384,55.515
76803,6740316,0,-73,1327,-93,25,-74,83,-322,-323,-990,-76,1332,-53,100,102,126,-870,-182,-115,-240,0,32752,54.94,0.9779817419195658,56.08,0.9897162595608192,4449.5048828125,-7309.85791015625,37.900001525878906,7.823872566223144,0,0.0,0.0,0.0,0.0,0.0,0.0,0.0,0.0,0.0,0.0,0.0,0.0,7,0.9838490007401925,44.82508138020833,-73.16429850260417,-0.5240281494,9.5258267706,-0.6675975054000001,-0.5455635528,9.5617191096,-0.3804587934,0.030543164687500002,-0.090407767475,0.1014033067625,0.12217265875000001,0.12461611192500001,0.153937550025,-0.18676,-0.18734,-0.5742,-0.5046,-0.10556,-0.0667,-0.5347958510999999,9.5437729401,-0.5240281494000001,0.07635791171875,0.017104172225000006,0.12767042839375,-0.34568000000000004,-0.14645,-0.32045,-7.0608,0.0,963.56384,55.51
76804,6740331,0,-77,1332,-97,29,-80,85,-322,-323,-990,-73,1330,-54,103,107,128,-870,-182,-115,-192,0,32752,54.96,0.9779817419195658,56.08,0.989824821120158,4449.5048828125,-7309.85791015625,37.900001525878906,7.823318481445312,0,0.0,0.0,0.0,0.0,0.0,0.0,0.0,0.0,0.0,0.0,0.0,0.0,7,0.9839032815198618,44.82508138020833,-73.16429850260417,-0.5527420206,9.5617191096,-0.6963113766,-0.5240281494,9.547362174,-0.3876372612,0.035430071037500004,-0.09773812700000001,0.1038467599375,0.1258378385125,0.13072474486250002,0.1563810032,-0.18676,-0.18734,-0.5742,-0.5046,-0.10556,-0.0667,-0.538385085,9.5545406418,-0.5419743189,0.080633954775,0.016493308931250006,0.13011388156875,-0.34568000000000004,-0.14645,-0.32045,-5.64864,0.0,963.56384,55.519999999999996
76805,6740346,0,-73,1329,-100,25,-77,91,-333,-280,-958,-77,1333,-50,98,98,128,-870,-182,-115,-160,0,32752,54.95,0.9781988650382432,56.09,0.9898050826548236,4449.5048828125,-7309.85791015625,37.900001525878906,7.835504531860352,0,0.0,0.0,0.0,0.0,0.0,0.0,0.0,0.0,0.0,0.0,0.0,0.0,7,0.9840019738465333,44.82508138020833,-73.16429850260417,-0.5240281494,9.5401837062,-0.71784678,-0.5527420206,9.5688975774,-0.35892339,0.030543164687500002,-0.09407294723750001,0.1111771194625,0.11972920557500001,0.11972920557500001,0.1563810032,-0.19314,-0.1624,-0.55564,-0.5046,-0.10556,-0.0667,-0.538385085,9.5545406418,-0.538385085,0.07513618513125,0.01282812916875,0.13377906133125,-0.34887,-0.13398,-0.31117,-4.7072,0.0,963.56384,55.52
76806,6740362,0,-76,1332,-94,28,-81,85,-333,-280,-958,-78,1329,-50,92,88,126,-870,-182,-115,-288,0,32752,54.95,0.9782876881322478,56.08,0.9898544288181594,4449.5048828125,-7309.85791015625,37.900001525878906,7.805039882659912,0,0.0,0.0,0.0,0.0,0.0,0.0,0.0,0.0,0.0,0.0,0.0,0.0,7,0.9840710584752036,44.82508138020833,-73.16429850260417,-0.5455635528,9.5617191096,-0.6747759732,-0.5599204884,9.5401837062,-0.35892339,0.034208344450000004,-0.09895985358750001,0.1038467599375,0.11239884605,0.1075119397,0.153937550025,-0.19314,-0.1624,-0.55564,-0.5046,-0.10556,-0.0667,-0.5527420206,9.550951407900001,-0.5168496816,0.07330359525,0.004276043056249998,0.12889215498125,-0.34887,-0.13398,-0.31117,-8.47296,0.0,963.56384,55.515
76807,6740377,0,-77,1331,-98,21,-78,93,-333,-280,-958,-78,1332,-49,101,105,129,-870,-182,-115,-320,0,32752,54.95,0.97807056501357,56.1,0.9895978287688132,4449.5048828125,-7309.85791015625,37.900001525878906,7.828303813934326,0,0.0,0.0,0.0,0.0,0.0,0.0,0.0,0.0,0.0,0.0,0.0,0.0,7,0.9838341968911917,44.82508138020833,-73.16429850260417,-0.5527420206,9.554540641800001,-0.7034898444000001,-0.5599204884,9.5617191096,-0.35174492220000003,0.0256562583375,-0.09529467382500001,0.1136205726375,0.12339438533750001,0.1282812916875,0.1576027297875,-0.19314,-0.1624,-0.55564,-0.5046,-0.10556,-0.0667,-0.5563312545,9.5581298757,-0.5276173833000001,0.0745253218375,0.016493308931249992,0.13561165121250002,-0.34887,-0.13398,-0.31117,-9.4144,0.0,963.56384,55.525000000000006
76808,6740393,0,-76,1332,-95,30,-79,77,-333,-280,-958,-81,1326,-52,95,96,129,-870,-182,-115,-288,0,32752,54.97,0.9780113496175672,56.08,0.9897853441894892,4449.5048828125,-7309.85791015625,37.900001525878906,7.836058616638184,0,0.0,0.0,0.0,0.0,0.0,0.0,0.0,0.0,0.0,0.0,0.0,0.0,7,0.9838983469035282,44.82508138020833,-73.16429850260417,-0.5455635528,9.5617191096,-0.681954441,-0.5814558918,9.5186483028,-0.3732803256,0.036651797625,-0.09651640041250001,0.09407294723750001,0.1160640258125,0.1172857524,0.1576027297875,-0.19314,-0.1624,-0.55564,-0.5046,-0.10556,-0.0667,-0.5635097223000001,9.5401837062,-0.5276173833,0.07635791171875,0.010384675993749995,0.12583783851250002,-0.34887,-0.13398,-0.31117,-8.47296,0.0,963.56384,55.525
76809,6740408,0,-74,1337,-92,29,-81,83,-333,-280,-958,-87,1329,-55,90,95,126,-870,-182,-115,-336,0,32752,54.95,0.978179126572909,56.08,0.9897261287934864,4449.5048828125,-7309.85791015625,37.900001525878906,7.82498025894165,0,0.0,0.0,0.0,0.0,0.0,0.0,0.0,0.0,0.0,0.0,0.0,0.0,7,0.9839526276831977,44.82508138020833,-73.16429850260417,-0.5312066172000001,9.5976114486,-0.6604190376,-0.6245266986,9.5401837062,-0.394815729,0.035430071037500004,-0.09895985358750001,0.1014033067625,0.109955392875,0.1160640258125,0.153937550025,-0.19314,-0.1624,-0.55564,-0.5046,-0.10556,-0.0667,-0.5778666579,9.568897577400001,-0.5276173833,0.07269273195625,0.008552086112499996,0.12767042839375,-0.34887,-0.13398,-0.31117,-9.88512,0.0,963.56384,55.515
76810,6740423,0,-72,1330,-96,33,-75,77,-333,-280,-958,-84,1330,-46,104,96,122,-870,-182,-115,-256,0,32752,54.95,0.9780113496175672,56.08,0.989657044164816,4449.5048828125,-7309.85791015625,37.900001525878906,7.819441318511963,0,0.0,0.0,0.0,0.0,0.0,0.0,0.0,0.0,0.0,0.0,0.0,0.0,7,0.9838341968911917,44.82508138020833,-73.16429850260417,-0.5168496816,9.547362174,-0.6891329088,-0.6029912952,9.547362174,-0.3302095188,0.0403169773875,-0.09162949406250001,0.09407294723750001,0.1270595651,0.1172857524,0.149050643675,-0.19314,-0.1624,-0.55564,-0.5046,-0.10556,-0.0667,-0.5599204884,9.547362174,-0.5096712138,0.08368827124375,0.012828129168749994,0.12156179545625001,-0.34887,-0.13398,-0.31117,-7.53152,0.0,963.56384,55.515
76811,6740439,0,-76,1329,-92,27,-80,77,-333,-280,-958,-72,1333,-48,97,102,117,-870,-182,-115,-240,0,32752,54.94,0.9783172958302492,56.09,0.9896965210954848,4449.5048828125,-7309.85791015625,37.900001525878906,7.816671848297119,0,0.0,0.0,0.0,0.0,0.0,0.0,0.0,0.0,0.0,0.0,0.0,0.0,7,0.984006908462867,44.82508138020833,-73.16429850260417,-0.5455635528,9.5401837062,-0.6604190376,-0.5168496816,9.5688975774,-0.3445664544,0.032986617862500005,-0.09773812700000001,0.09407294723750001,0.11850747898750001,0.12461611192500001,0.1429420107375,-0.19314,-0.1624,-0.55564,-0.5046,-0.10556,-0.0667,-0.5312066172000001,9.5545406418,-0.5024927459999999,0.075747048425,0.0134389924625,0.11850747898750001,-0.34887,-0.13398,-0.31117,-7.0608,0.0,963.56384,55.515
76812,6740454,0,-70,1333,-92,24,-75,77,-333,-280,-958,-80,1329,-53,97,106,119,-870,-182,-115,-192,0,32752,54.94,0.9781692573402418,56.08,0.9897853441894892,4449.5048828125,-7309.85791015625,37.900001525878906,7.821656703948975,0,0.0,0.0,0.0,0.0,0.0,0.0,0.0,0.0,0.0,0.0,0.0,0.0,7,0.9839773007648656,44.82508138020833,-73.16429850260417,-0.502492746,9.5688975774,-0.6604190376,-0.574277424,9.5401837062,-0.3804587934,0.0293214381,-0.09162949406250001,0.09407294723750001,0.11850747898750001,0.129503018275,0.1453854639125,-0.19314,-0.1624,-0.55564,-0.5046,-0.10556,-0.0667,-0.538385085,9.5545406418,-0.5204389155,0.07391445854375,0.01893676210624999,0.11972920557500001,-0.34887,-0.13398,-0.31117,-5.64864,0.0,963.56384,55.51
76813,6740470,0,-80,1328,-95,26,-76,85,-333,-280,-958,-83,1326,-54,94,97,121,-870,-182,-115,-128,0,32752,54.95,0.978119911176906,56.09,0.9897359980261534,4449.5048828125,-7309.85791015625,37.900001525878906,7.822210788726807,0,0.0,0.0,0.0,0.0,0.0,0.0,0.0,0.0,0.0,0.0,0.0,0.0,7,0.9839279546015297,44.82508138020833,-73.16429850260417,-0.574277424,9.533005238400001,-0.681954441,-0.5958128274000001,9.5186483028,-0.3876372612,0.031764891275,-0.09285122065000001,0.1038467599375,0.114842299225,0.11850747898750001,0.1478289170875,-0.19314,-0.1624,-0.55564,-0.5046,-0.10556,-0.0667,-0.5850451257,9.525826770600002,-0.5347958511,0.07330359524999999,0.01282812916875,0.12583783851250002,-0.34887,-0.13398,-0.31117,-3.76576,0.0,963.56384,55.52
76814,6740485,0,-71,1324,-99,19,-87,79,-333,-280,-958,-72,1329,-51,95,104,116,-870,-182,-115,-336,16,32752,54.94,0.9781495188749076,56.09,0.9896965210954848,4449.5048828125,-7309.85791015625,37.900001525878906,7.823872566223144,0,0.0,0.0,0.0,0.0,0.0,0.0,0.0,0.0,0.0,0.0,0.0,0.0,7,0.9839230199851963,44.82508138020833,-73.16429850260417,-0.5096712138,9.5042913672,-0.7106683122,-0.5168496816,9.5401837062,-0.36610185780000004,0.023212805162500003,-0.1062902131125,0.09651640041250001,0.1160640258125,0.1270595651,0.14172028415000001,-0.19314,-0.1624,-0.55564,-0.5046,-0.10556,-0.0667,-0.5132604477,9.5222375367,-0.538385085,0.0696384154875,0.010384675993749995,0.11911834228125001,-0.34887,-0.13398,-0.31117,-9.88512,0.47072,963.56384,55.515
76815,6740500,0,-71,1331,-101,33,-77,64,-333,-280,-958,-79,1336,-53,100,111,111,-851,-169,-103,-208,0,32752,54.95,0.9782186035035776,56.08,0.9897261287934864,4449.5048828125,-7309.85791015625,37.900001525878906,7.821656703948975,0,0.0,0.0,0.0,0.0,0.0,0.0,0.0,0.0,0.0,0.0,0.0,0.0,7,0.983972366148532,44.82508138020833,-73.16429850260417,-0.5096712138,9.554540641800001,-0.7250252478,-0.5670989562000001,9.590432980800001,-0.3804587934,0.0403169773875,-0.09407294723750001,0.0781905016,0.12217265875000001,0.13561165121250002,0.13561165121250002,-0.19314,-0.1624,-0.55564,-0.49358,-0.09802,-0.05974,-0.538385085,9.572486811300001,-0.5527420206,0.08124481806875,0.020769351987500004,0.10690107640625002,-0.34336,-0.13021,-0.30769,-6.11936,0.0,963.56384,55.515
76816,6740516,0,-70,1331,-87,23,-66,81,-333,-280,-958,-77,1331,-53,94,106,115,-851,-169,-103,-160,0,32752,54.96,0.9780310880829016,56.08,0.9897853441894892,4449.5048828125,-7309.85791015625,37.900001525878906,7.829411506652832,0,0.0,0.0,0.0,0.0,0.0,0.0,0.0,0.0,0.0,0.0,0.0,0.0,7,0.9839082161361954,44.82508138020833,-73.16429850260417,-0.502492746,9.554540641800001,-0.6245266986,-0.5527420206,9.554540641800001,-0.3804587934,0.0280997115125,-0.080633954775,0.09895985358750001,0.114842299225,0.129503018275,0.14049855756250001,-0.19314,-0.1624,-0.55564,-0.49358,-0.09802,-0.05974,-0.5276173833,9.554540641800001,-0.5024927459999999,0.07147100536875,0.024434531749999995,0.11972920557500001,-0.34336,-0.13021,-0.30769,-4.7072,0.0,963.56384,55.519999999999996
76817,6740531,0,-79,1332,-96,23,-69,75,-333,-280,-958,-70,1327,-50,93,103,118,-851,-169,-103,-224,0,32752,54.95,0.9780113496175672,56.08,0.9897162595608192,4449.5048828125,-7309.85791015625,37.900001525878906,7.825534343719482,0,0.0,0.0,0.0,0.0,0.0,0.0,0.0,0.0,0.0,0.0,0.0,0.0,7,0.9838638045891932,44.82508138020833,-73.16429850260417,-0.5670989562000001,9.5617191096,-0.6891329088,-0.502492746,9.5258267706,-0.35892339,0.0280997115125,-0.0842991345375,0.09162949406250001,0.1136205726375,0.1258378385125,0.144163737325,-0.19314,-0.1624,-0.55564,-0.49358,-0.09802,-0.05974,-0.5347958511,9.5437729401,-0.5240281494,0.070860142075,0.020769351987499997,0.11789661569375001,-0.34336,-0.13021,-0.30769,-6.59008,0.0,963.56384,55.515
76818,6740547,0,-74,1326,-94,24,-77,71,-336,-312,-1021,-79,1337,-50,94,95,113,-851,-169,-103,-272,0,32752,54.95,0.978179126572909,56.09,0.9898050826548236,4449.5048828125,-7309.85791015625,37.900001525878906,7.836612224578857,0,0.0,0.0,0.0,0.0,0.0,0.0,0.0,0.0,0.0,0.0,0.0,0.0,7,0.9839921046138662,44.82508138020833,-73.16429850260417,-0.5312066172000001,9.5186483028,-0.6747759732,-0.5670989562000001,9.5976114486,-0.35892339,0.0293214381,-0.09407294723750001,0.0867425877125,0.114842299225,0.1160640258125,0.13805510438750002,-0.19488,-0.18096,-0.59218,-0.49358,-0.09802,-0.05974,-0.5491527867000001,9.5581298757,-0.5168496816,0.07208186866249999,0.010995539287499995,0.11239884605,-0.34423000000000004,-0.13949,-0.32596,-8.00224,0.0,963.56384,55.52
76819,6740562,0,-81,1331,-97,24,-84,81,-336,-312,-1021,-81,1326,-52,95,96,113,-851,-169,-103,-208,0,32752,54.95,0.9779027880582284,56.08,0.989765605724155,4449.5048828125,-7309.85791015625,37.900001525878906,7.823872566223144,0,0.0,0.0,0.0,0.0,0.0,0.0,0.0,0.0,0.0,0.0,0.0,0.0,7,0.9838341968911917,44.82508138020833,-73.16429850260417,-0.5814558918,9.554540641800001,-0.6963113766,-0.5814558918,9.5186483028,-0.3732803256,0.0293214381,-0.10262503335,0.09895985358750001,0.1160640258125,0.1172857524,0.13805510438750002,-0.19488,-0.18096,-0.59218,-0.49358,-0.09802,-0.05974,-0.5814558918,9.536594472300001,-0.5347958510999999,0.07269273195625,0.0073303595249999964,0.11850747898750001,-0.34423000000000004,-0.13949,-0.32596,-6.11936,0.0,963.56384,55.515
76820,6740577,0,-67,1327,-88,18,-77,78,-336,-312,-1021,-75,1331,-50,95,88,113,-851,-169,-103,-240,0,32752,54.94,0.9782087342709104,56.09,0.9895287441401432,4449.5048828125,-7309.85791015625,37.900001525878906,7.818333625793457,0,0.0,0.0,0.0,0.0,0.0,0.0,0.0,0.0,0.0,0.0,0.0,0.0,7,0.9838687392055268,44.82508138020833,-73.16429850260417,-0.4809573426,9.5258267706,-0.6317051664000001,-0.538385085,9.554540641800001,-0.35892339,0.021991078575,-0.09407294723750001,0.09529467382500001,0.1160640258125,0.1075119397,0.13805510438750002,-0.19488,-0.18096,-0.59218,-0.49358,-0.09802,-0.05974,-0.5096712138,9.5401837062,-0.49531427820000007,0.06902755219375,0.006719496231249997,0.11667488910625001,-0.34423000000000004,-0.13949,-0.32596,-7.0608,0.0,963.56384,55.515
76821,6740593,0,-73,1327,-100,34,-82,69,-336,-312,-1021,-78,1334,-48,91,101,110,-851,-169,-103,-192,0,32752,54.95,0.9782876881322478,56.08,0.989657044164816,4449.5048828125,-7309.85791015625,37.900001525878906,7.816117763519287,0,0.0,0.0,0.0,0.0,0.0,0.0,0.0,0.0,0.0,0.0,0.0,0.0,7,0.9839723661485319,44.82508138020833,-73.16429850260417,-0.5240281494,9.5258267706,-0.71784678,-0.5599204884,9.5760760452,-0.3445664544,0.041538703975,-0.100181580175,0.0842991345375,0.1111771194625,0.12339438533750001,0.13438992462500002,-0.19488,-0.18096,-0.59218,-0.49358,-0.09802,-0.05974,-0.5419743188999999,9.550951407900001,-0.5312066172000001,0.07635791171875,0.011606402581250001,0.10934452958125002,-0.34423000000000004,-0.13949,-0.32596,-5.64864,0.0,963.56384,55.515
76822,6740608,0,-67,1331,-99,23,-68,74,-336,-312,-1021,-72,1329,-54,105,86,115,-851,-169,-103,-272,0,32752,54.96,0.977873180360227,56.08,0.989824821120158,4449.5048828125,-7309.85791015625,37.900001525878906,7.820549011230469,0,0.0,0.0,0.0,0.0,0.0,0.0,0.0,0.0,0.0,0.0,0.0,0.0,7,0.9838490007401925,44.82508138020833,-73.16429850260417,-0.4809573426,9.554540641800001,-0.7106683122,-0.5168496816,9.5401837062,-0.3876372612,0.0280997115125,-0.08307740795,0.090407767475,0.1282812916875,0.105068486525,0.14049855756250001,-0.19488,-0.18096,-0.59218,-0.49358,-0.09802,-0.05974,-0.4989035121,9.547362174,-0.5491527867,0.07819050159999999,0.010995539287500002,0.11545316251875001,-0.34423000000000004,-0.13949,-0.32596,-8.00224,0.0,963.56384,55.519999999999996
76823,6740623,0,-78,1330,-99,27,-81,65,-336,-312,-1021,-83,1325,-55,99,98,107,-851,-169,-103,-240,0,32752,54.95,0.978119911176906,56.08,0.989893905748828,4449.5048828125,-7309.85791015625,37.900001525878906,7.822764873504639,0,0.0,0.0,0.0,0.0,0.0,0.0,0.0,0.0,0.0,0.0,0.0,0.0,7,0.984006908462867,44.82508138020833,-73.16429850260417,-0.5599204884,9.547362174,-0.7106683122,-0.5958128274000001,9.511469835,-0.394815729,0.032986617862500005,-0.09895985358750001,0.0794122281875,0.12095093216250001,0.11972920557500001,0.13072474486250002,-0.19488,-0.18096,-0.59218,-0.49358,-0.09802,-0.05974,-0.5778666579,9.5294160045,-0.5527420206,0.0769687750125,0.010384675993750002,0.105068486525,-0.34423000000000004,-0.13949,-0.32596,-7.0608,0.0,963.56384,55.515
76824,6740639,0,-75,1332,-95,21,-79,84,-336,-312,-1021,-75,1334,-52,92,93,109,-851,-169,-103,-224,0,32752,54.95,0.9780508265482358,56.08,0.9896175672341476,4449.5048828125,-7309.85791015625,37.900001525878906,7.838828086853027,0,0.0,0.0,0.0,0.0,0.0,0.0,0.0,0.0,0.0,0.0,0.0,0.0,7,0.9838341968911917,44.82508138020833,-73.16429850260417,-0.538385085,9.5617191096,-0.681954441,-0.538385085,9.5760760452,-0.3732803256,0.0256562583375,-0.09651640041250001,0.10262503335,0.11239884605,0.1136205726375,0.13316819803750002,-0.19488,-0.18096,-0.59218,-0.49358,-0.09802,-0.05974,-0.538385085,9.568897577400001,-0.5276173833,0.06902755219375001,0.008552086112499996,0.11789661569375001,-0.34423000000000004,-0.13949,-0.32596,-6.59008,0.0,963.56384,55.515
76825,6740654,0,-75,1330,-103,34,-79,70,-336,-312,-1021,-77,1329,-56,90,96,117,-851,-169,-103,-288,0,32752,54.94,0.9781001727115716,56.09,0.9897557364914876,4449.5048828125,-7309.85791015625,37.900001525878906,7.831627368927002,0,0.0,0.0,0.0,0.0,0.0,0.0,0.0,0.0,0.0,0.0,0.0,0.0,7,0.9839279546015296,44.82508138020833,-73.16429850260417,-0.538385085,9.547362174,-0.7393821834000001,-0.5527420206,9.5401837062,-0.40199419680000004,0.041538703975,-0.09651640041250001,0.085520861125,0.109955392875,0.1172857524,0.1429420107375,-0.19488,-0.18096,-0.59218,-0.49358,-0.09802,-0.05974,-0.5455635528,9.5437729401,-0.5706881901,0.075747048425,0.010384675993749995,0.11423143593125001,-0.34423000000000004,-0.13949,-0.32596,-8.47296,0.0,963.56384,55.515
76826,6740670,0,-69,1330,-95,38,-63,64,-336,-312,-1021,-76,1329,-57,90,109,117,-851,-169,-103,-288,0,32752,54.96,0.9781889958055762,56.08,0.989893905748828,4449.5048828125,-7309.85791015625,37.900001525878906,7.819441318511963,0,0.0,0.0,0.0,0.0,0.0,0.0,0.0,0.0,0.0,0.0,0.0,0.0,7,0.9840414507772021,44.82508138020833,-73.16429850260417,-0.4953142782,9.547362174,-0.681954441,-0.5455635528,9.5401837062,-0.4091726646,0.046425610325000005,-0.0769687750125,0.0781905016,0.109955392875,0.13316819803750002,0.1429420107375,-0.19488,-0.18096,-0.59218,-0.49358,-0.09802,-0.05974,-0.5204389155,9.5437729401,-0.5455635528,0.0781905016,0.028099711512500007,0.11056625616875002,-0.34423000000000004,-0.13949,-0.32596,-8.47296,0.0,963.56384,55.519999999999996
76827,6740685,0,-71,1332,-92,23,-78,71,-336,-312,-1021,-74,1336,-50,94,93,116,-851,-169,-103,-208,0,32752,54.94,0.9780409573155688,56.08,0.9897952134221564,4449.5048828125,-7309.85791015625,37.900001525878906,7.818887233734131,0,0.0,0.0,0.0,0.0,0.0,0.0,0.0,0.0,0.0,0.0,0.0,0.0,7,0.9839180853688626,44.82508138020833,-73.16429850260417,-0.5096712138,9.5617191096,-0.6604190376,-0.5312066172000001,9.590432980800001,-0.35892339,0.0280997115125,-0.09529467382500001,0.0867425877125,0.114842299225,0.1136205726375,0.14172028415000001,-0.19488,-0.18096,-0.59218,-0.49358,-0.09802,-0.05974,-0.5204389155,9.5760760452,-0.5096712138,0.07147100536875,0.009162949406249996,0.11423143593125001,-0.34423000000000004,-0.13949,-0.32596,-6.11936,0.0,963.56384,55.51
76828,6740700,0,-70,1327,-105,18,-79,70,-336,-312,-1021,-80,1332,-45,95,95,112,-844,-188,-102,-208,0,32752,54.94,0.9779817419195658,56.08,0.989657044164816,4449.5048828125,-7309.85791015625,37.900001525878906,7.820549011230469,0,0.0,0.0,0.0,0.0,0.0,0.0,0.0,0.0,0.0,0.0,0.0,0.0,7,0.9838193930421909,44.82508138020833,-73.16429850260417,-0.502492746,9.5258267706,-0.753739119,-0.574277424,9.5617191096,-0.323031051,0.021991078575,-0.09651640041250001,0.085520861125,0.1160640258125,0.1160640258125,0.13683337780000002,-0.19488,-0.18096,-0.59218,-0.48952,-0.10904,-0.05916,-0.538385085,9.5437729401,-0.538385085,0.06902755219375,0.009773812699999995,0.1111771194625,-0.3422,-0.14500000000000002,-0.32567,-6.11936,0.0,963.56384,55.51
76829,6740716,0,-66,1327,-96,26,-91,73,-336,-312,-1021,-77,1327,-51,102,91,117,-844,-188,-102,-176,0,32752,54.96,0.9780409573155688,56.08,0.989824821120158,4449.5048828125,-7309.85791015625,37.900001525878906,7.834950447082519,0,0.0,0.0,0.0,0.0,0.0,0.0,0.0,0.0,0.0,0.0,0.0,0.0,7,0.9839328892178634,44.82508138020833,-73.16429850260417,-0.4737788748,9.5258267706,-0.6891329088,-0.5527420206,9.5258267706,-0.36610185780000004,0.031764891275,-0.1111771194625,0.0891860408875,0.12461611192500001,0.1111771194625,0.1429420107375,-0.19488,-0.18096,-0.59218,-0.48952,-0.10904,-0.05916,-0.5132604477,9.5258267706,-0.5276173833,0.0781905016,0.0,0.1160640258125,-0.3422,-0.14500000000000002,-0.32567,-5.17792,0.0,963.56384,55.519999999999996
76830,6740731,0,-66,1325,-100,28,-87,75,-336,-312,-1021,-75,1336,-52,96,91,108,-844,-188,-102,-352,0,32752,54.95,0.9781396496422404,56.08,0.9898840365161607,4449.5048828125,-7309.85791015625,37.900001525878906,7.816671848297119,0,0.0,0.0,0.0,0.0,0.0,0.0,0.0,0.0,0.0,0.0,0.0,0.0,7,0.9840118430792006,44.82508138020833,-73.16429850260417,-0.4737788748,9.511469835,-0.71784678,-0.538385085,9.590432980800001,-0.3732803256,0.034208344450000004,-0.1062902131125,0.09162949406250001,0.1172857524,0.1111771194625,0.13194647145000002,-0.19488,-0.18096,-0.59218,-0.48952,-0.10904,-0.05916,-0.5060819799,9.550951407900001,-0.5455635528,0.075747048425,0.002443453174999999,0.11178798275625002,-0.3422,-0.14500000000000002,-0.32567,-10.35584,0.0,963.56384,55.515
76831,6740747,0,-72,1321,-104,31,-65,73,-326,-317,-983,-73,1331,-52,102,95,114,-844,-188,-102,-144,0,32752,54.95,0.9780113496175672,56.08,0.989765605724155,4449.5048828125,-7309.85791015625,37.900001525878906,7.819441318511963,0,0.0,0.0,0.0,0.0,0.0,0.0,0.0,0.0,0.0,0.0,0.0,0.0,7,0.9838884776708611,44.82508138020833,-73.16429850260417,-0.5168496816,9.4827559638,-0.7465606512,-0.5240281494,9.554540641800001,-0.3732803256,0.0378735242125,-0.0794122281875,0.0891860408875,0.12461611192500001,0.1160640258125,0.13927683097500002,-0.18908,-0.18386,-0.57014,-0.48952,-0.10904,-0.05916,-0.5204389155,9.5186483028,-0.5599204884,0.08124481806875,0.018325898812499998,0.11423143593125001,-0.3393,-0.14645,-0.31465,-4.23648,0.0,963.56384,55.515
76832,6740762,0,-71,1331,-98,26,-76,72,-326,-317,-983,-72,1334,-55,99,99,117,-844,-188,-102,-224,0,32752,54.94,0.9780014803849,56.08,0.9898544288181594,4449.5048828125,-7309.85791015625,37.900001525878906,7.82498025894165,0,0.0,0.0,0.0,0.0,0.0,0.0,0.0,0.0,0.0,0.0,0.0,0.0,7,0.9839279546015297,44.82508138020833,-73.16429850260417,-0.5096712138,9.554540641800001,-0.7034898444000001,-0.5168496816,9.5760760452,-0.394815729,0.031764891275,-0.09285122065000001,0.0879643143,0.12095093216250001,0.12095093216250001,0.1429420107375,-0.18908,-0.18386,-0.57014,-0.48952,-0.10904,-0.05916,-0.5132604477,9.5653083435,-0.5491527867,0.07635791171875,0.01404985575625,0.11545316251875001,-0.3393,-0.14645,-0.31465,-6.59008,0.0,963.56384,55.51
76833,6740777,0,-74,1331,-98,28,-68,77,-326,-317,-983,-78,1332,-52,96,101,112,-844,-188,-102,-272,0,32752,54.95,0.9780113496175672,56.08,0.9896866518628176,4449.5048828125,-7309.85791015625,37.900001525878906,7.827749729156494,0,0.0,0.0,0.0,0.0,0.0,0.0,0.0,0.0,0.0,0.0,0.0,0.0,7,0.9838490007401923,44.82508138020833,-73.16429850260417,-0.5312066172000001,9.554540641800001,-0.7034898444000001,-0.5599204884,9.5617191096,-0.3732803256,0.034208344450000004,-0.08307740795,0.09407294723750001,0.1172857524,0.12339438533750001,0.13683337780000002,-0.18908,-0.18386,-0.57014,-0.48952,-0.10904,-0.05916,-0.5455635528,9.5581298757,-0.538385085,0.075747048425,0.020158488693750004,0.11545316251875001,-0.3393,-0.14645,-0.31465,-8.00224,0.0,963.56384,55.515
76834,6740793,0,-67,1330,-99,26,-74,74,-326,-317,-983,-71,1334,-49,99,97,118,-844,-188,-102,-272,0,32752,54.94,0.9781692573402418,56.08,0.9897162595608192,4449.5048828125,-7309.85791015625,37.900001525878906,7.822210788726807,0,0.0,0.0,0.0,0.0,0.0,0.0,0.0,0.0,0.0,0.0,0.0,0.0,7,0.9839427584505305,44.82508138020833,-73.16429850260417,-0.4809573426,9.547362174,-0.7106683122,-0.5096712138,9.5760760452,-0.35174492220000003,0.031764891275,-0.090407767475,0.090407767475,0.12095093216250001,0.11850747898750001,0.144163737325,-0.18908,-0.18386,-0.57014,-0.48952,-0.10904,-0.05916,-0.4953142782,9.5617191096,-0.5312066172000001,0.07635791171875,0.014049855756250007,0.1172857524,-0.3393,-0.14645,-0.31465,-8.00224,0.0,963.56384,55.51
76835,6740808,0,-71,1329,-95,30,-68,70,-326,-317,-983,-75,1331,-50,91,97,115,-844,-188,-102,-272,0,32752,54.95,0.97786331112756,56.08,0.989824821120158,4449.5048828125,-7309.85791015625,37.900001525878906,7.813348293304443,0,0.0,0.0,0.0,0.0,0.0,0.0,0.0,0.0,0.0,0.0,0.0,0.0,7,0.983844066123859,44.82508138020833,-73.16429850260417,-0.5096712138,9.5401837062,-0.681954441,-0.538385085,9.554540641800001,-0.35892339,0.036651797625,-0.08307740795,0.085520861125,0.1111771194625,0.11850747898750001,0.14049855756250001,-0.18908,-0.18386,-0.57014,-0.48952,-0.10904,-0.05916,-0.5240281494000001,9.547362174,-0.5204389155,0.07391445854375,0.017715035518750005,0.11300970934375001,-0.3393,-0.14645,-0.31465,-8.00224,0.0,963.56384,55.515
76836,6740824,0,-67,1335,-96,33,-90,70,-326,-317,-983,-77,1334,-51,104,96,110,-844,-188,-102,-288,0,32752,54.95,0.9780310880829016,56.08,0.989657044164816,4449.5048828125,-7309.85791015625,37.900001525878906,7.832180976867676,0,0.0,0.0,0.0,0.0,0.0,0.0,0.0,0.0,0.0,0.0,0.0,0.0,7,0.9838440661238588,44.82508138020833,-73.16429850260417,-0.4809573426,9.583254513,-0.6891329088,-0.5527420206,9.5760760452,-0.36610185780000004,0.0403169773875,-0.109955392875,0.085520861125,0.1270595651,0.1172857524,0.13438992462500002,-0.18908,-0.18386,-0.57014,-0.48952,-0.10904,-0.05916,-0.5168496816,9.5796652791,-0.5276173833,0.08368827124375,0.0036651797624999982,0.109955392875,-0.3393,-0.14645,-0.31465,-8.47296,0.0,963.56384,55.515
76837,6740839,0,-73,1337,-101,25,-82,75,-326,-317,-983,-75,1335,-54,88,89,113,-844,-188,-102,-192,0,32752,54.95,0.9780113496175672,56.09,0.9897359980261534,4449.5048828125,-7309.85791015625,37.900001525878906,7.841043472290039,0,0.0,0.0,0.0,0.0,0.0,0.0,0.0,0.0,0.0,0.0,0.0,0.0,7,0.9838736738218603,44.82508138020833,-73.16429850260417,-0.5240281494,9.5976114486,-0.7250252478,-0.538385085,9.583254513,-0.3876372612,0.030543164687500002,-0.100181580175,0.09162949406250001,0.1075119397,0.1087336662875,0.13805510438750002,-0.18908,-0.18386,-0.57014,-0.48952,-0.10904,-0.05916,-0.5312066172000001,9.5904329808,-0.5563312545,0.06902755219375001,0.004276043056249998,0.11484229922500001,-0.3393,-0.14645,-0.31465,-5.64864,0.0,963.56384,55.52
76838,6740854,0,-64,1330,-103,31,-82,76,-326,-317,-983,-66,1328,-54,106,92,118,-844,-188,-102,-208,0,32752,54.95,0.9781396496422404,56.08,0.9897853441894892,4449.5048828125,-7309.85791015625,37.900001525878906,7.821103096008301,0,0.0,0.0,0.0,0.0,0.0,0.0,0.0,0.0,0.0,0.0,0.0,0.0,7,0.9839624969158648,44.82508138020833,-73.16429850260417,-0.4594219392,9.547362174,-0.7393821834000001,-0.4737788748,9.533005238400001,-0.3876372612,0.0378735242125,-0.100181580175,0.09285122065000001,0.129503018275,0.11239884605,0.144163737325,-0.18908,-0.18386,-0.57014,-0.48952,-0.10904,-0.05916,-0.46660040700000005,9.5401837062,-0.5635097223000001,0.08368827124375,0.006108632937499997,0.11850747898750001,-0.3393,-0.14645,-0.31465,-6.11936,0.0,963.56384,55.515
76839,6740870,0,-64,1331,-99,18,-81,73,-326,-317,-983,-71,1325,-56,92,102,113,-844,-188,-102,-288,0,32752,54.95,0.9782876881322478,56.09,0.9897557364914876,4449.5048828125,-7309.85791015625,37.900001525878906,7.821656703948975,0,0.0,0.0,0.0,0.0,0.0,0.0,0.0,0.0,0.0,0.0,0.0,0.0,7,0.9840217123118677,44.82508138020833,-73.16429850260417,-0.4594219392,9.554540641800001,-0.7106683122,-0.5096712138,9.511469835,-0.40199419680000004,0.021991078575,-0.09895985358750001,0.0891860408875,0.11239884605,0.12461611192500001,0.13805510438750002,-0.18908,-0.18386,-0.57014,-0.48952,-0.10904,-0.05916,-0.4845465765,9.533005238400001,-0.5563312545000001,0.0671949623125,0.01282812916875,0.1136205726375,-0.3393,-0.14645,-0.31465,-8.47296,0.0,963.56384,55.52
76840,6740885,0,-70,1330,-105,24,-74,79,-326,-317,-983,-65,1331,-53,101,98,118,-844,-188,-102,-192,0,32752,54.95,0.9781692573402418,56.09,0.989587959536146,4449.5048828125,-7309.85791015625,37.900001525878906,7.820549011230469,0,0.0,0.0,0.0,0.0,0.0,0.0,0.0,0.0,0.0,0.0,0.0,0.0,7,0.9838786084381939,44.82508138020833,-73.16429850260417,-0.502492746,9.547362174,-0.753739119,-0.466600407,9.554540641800001,-0.3804587934,0.0293214381,-0.090407767475,0.09651640041250001,0.12339438533750001,0.11972920557500001,0.144163737325,-0.18908,-0.18386,-0.57014,-0.48952,-0.10904,-0.05916,-0.4845465765,9.550951407900001,-0.5670989562,0.07635791171875,0.014660719050000007,0.12034006886875001,-0.3393,-0.14645,-0.31465,-5.64864,0.0,963.56384,55.52
76841,6740901,0,-76,1327,-99,24,-68,78,-326,-317,-983,-69,1331,-63,85,120,115,-860,-180,-107,-320,0,32752,54.96,0.9781495188749076,56.08,0.989824821120158,4449.5048828125,-7309.85791015625,37.900001525878906,7.820549011230469,0,0.0,0.0,0.0,0.0,0.0,0.0,0.0,0.0,0.0,0.0,0.0,0.0,7,0.9839871699975329,44.82508138020833,-73.16429850260417,-0.5455635528,9.5258267706,-0.7106683122,-0.4953142782,9.554540641800001,-0.45224347140000004,0.0293214381,-0.08307740795,0.09529467382500001,0.1038467599375,0.1466071905,0.14049855756250001,-0.18908,-0.18386,-0.57014,-0.4988,-0.1044,-0.06206,-0.5204389155,9.5401837062,-0.5814558918,0.06658409901875001,0.031764891275000005,0.11789661569375001,-0.34394,-0.14413,-0.3161,-9.4144,0.0,963.56384,55.519999999999996
76842,6740916,0,-66,1327,-103,30,-71,77,-326,-317,-983,-65,1330,-54,99,106,120,-860,-180,-107,-240,0,32752,54.95,0.9781988650382432,56.08,0.9897952134221564,4449.5048828125,-7309.85791015625,37.900001525878906,7.829411506652832,0,0.0,0.0,0.0,0.0,0.0,0.0,0.0,0.0,0.0,0.0,0.0,0.0,7,0.9839970392301998,44.82508138020833,-73.16429850260417,-0.4737788748,9.5258267706,-0.7393821834000001,-0.466600407,9.547362174,-0.3876372612,0.036651797625,-0.0867425877125,0.09407294723750001,0.12095093216250001,0.129503018275,0.1466071905,-0.18908,-0.18386,-0.57014,-0.4988,-0.1044,-0.06206,-0.47018964090000004,9.5365944723,-0.5635097223000001,0.07880136489375,0.021380215281249997,0.12034006886875001,-0.34394,-0.14413,-0.3161,-7.0608,0.0,963.56384,55.515
76843,6740931,0,-58,1330,-100,29,-68,79,-326,-317,-983,-70,1332,-55,101,105,115,-860,-180,-107,-224,0,32752,54.95,0.9781692573402418,56.08,0.9897162595608192,4449.5048828125,-7309.85791015625,37.900001525878906,7.828303813934326,0,0.0,0.0,0.0,0.0,0.0,0.0,0.0,0.0,0.0,0.0,0.0,0.0,7,0.9839427584505305,44.82508138020833,-73.16429850260417,-0.4163511324,9.547362174,-0.71784678,-0.502492746,9.5617191096,-0.394815729,0.035430071037500004,-0.08307740795,0.09651640041250001,0.12339438533750001,0.1282812916875,0.14049855756250001,-0.18908,-0.18386,-0.57014,-0.4988,-0.1044,-0.06206,-0.4594219392,9.5545406418,-0.5563312545,0.0794122281875,0.022601941868749996,0.11850747898750001,-0.34394,-0.14413,-0.3161,-6.59008,0.0,963.56384,55.515
76844,6740947,0,-67,1338,-101,31,-69,83,-339,-301,-974,-72,1334,-52,97,111,117,-860,-180,-107,-176,0,32752,54.95,0.9781100419442388,56.08,0.9897261287934864,4449.5048828125,-7309.85791015625,37.900001525878906,7.823318481445312,0,0.0,0.0,0.0,0.0,0.0,0.0,0.0,0.0,0.0,0.0,0.0,0.0,7,0.9839180853688626,44.82508138020833,-73.16429850260417,-0.4809573426,9.6047899164,-0.7250252478,-0.5168496816,9.5760760452,-0.3732803256,0.0378735242125,-0.0842991345375,0.1014033067625,0.11850747898750001,0.13561165121250002,0.1429420107375,-0.19662,-0.17458,-0.56492,-0.4988,-0.1044,-0.06206,-0.4989035121,9.5904329808,-0.5491527867,0.0781905016,0.02565625833750001,0.12217265875000001,-0.34771,-0.13949,-0.31349,-5.17792,0.0,963.56384,55.515
76845,6740962,0,-66,1335,-97,33,-75,82,-339,-301,-974,-67,1330,-51,108,89,123,-860,-180,-107,-224,0,32752,54.95,0.9781100419442388,56.08,0.9897853441894892,4449.5048828125,-7309.85791015625,37.900001525878906,7.82719612121582,0,0.0,0.0,0.0,0.0,0.0,0.0,0.0,0.0,0.0,0.0,0.0,0.0,7,0.983947693066864,44.82508138020833,-73.16429850260417,-0.4737788748,9.583254513,-0.6963113766,-0.4809573426,9.547362174,-0.36610185780000004,0.0403169773875,-0.09162949406250001,0.100181580175,0.13194647145000002,0.1087336662875,0.1502723702625,-0.19662,-0.17458,-0.56492,-0.4988,-0.1044,-0.06206,-0.4773681087,9.5653083435,-0.5312066172000001,0.08613172441875001,0.008552086112499996,0.12522697521875,-0.34771,-0.13949,-0.31349,-6.59008,0.0,963.56384,55.515
76846,6740977,0,-69,1334,-97,25,-73,78,-339,-301,-974,-71,1333,-56,110,100,121,-860,-180,-107,-208,0,32752,54.95,0.9780508265482358,56.08,0.989824821120158,4449.5048828125,-7309.85791015625,37.900001525878906,7.822764873504639,0,0.0,0.0,0.0,0.0,0.0,0.0,0.0,0.0,0.0,0.0,0.0,0.0,7,0.9839378238341969,44.82508138020833,-73.16429850260417,-0.4953142782,9.5760760452,-0.6963113766,-0.5096712138,9.5688975774,-0.40199419680000004,0.030543164687500002,-0.0891860408875,0.09529467382500001,0.13438992462500002,0.12217265875000001,0.1478289170875,-0.19662,-0.17458,-0.56492,-0.4988,-0.1044,-0.06206,-0.502492746,9.5724868113,-0.5491527867,0.08246654465625002,0.016493308931250006,0.12156179545625001,-0.34771,-0.13949,-0.31349,-6.11936,0.0,963.56384,55.515
76847,6740993,0,-69,1331,-103,37,-61,78,-339,-301,-974,-69,1332,-58,105,100,124,-860,-180,-107,-272,0,32752,54.95,0.9780508265482358,56.09,0.9896965210954848,4449.5048828125,-7309.85791015625,37.900001525878906,7.836612224578857,0,0.0,0.0,0.0,0.0,0.0,0.0,0.0,0.0,0.0,0.0,0.0,0.0,7,0.9838736738218603,44.82508138020833,-73.16429850260417,-0.4953142782,9.554540641800001,-0.7393821834000001,-0.4953142782,9.5617191096,-0.4163511324,0.0452038837375,-0.0745253218375,0.09529467382500001,0.1282812916875,0.12217265875000001,0.15149409685,-0.19662,-0.17458,-0.56492,-0.4988,-0.1044,-0.06206,-0.4953142782,9.5581298757,-0.5778666579,0.0867425877125,0.023823668456250002,0.12339438533750001,-0.34771,-0.13949,-0.31349,-8.00224,0.0,963.56384,55.52
76848,6741008,0,-67,1327,-105,40,-74,87,-339,-301,-974,-72,1329,-58,105,104,120,-860,-180,-107,-288,0,32752,54.96,0.977813964964224,56.08,0.989657044164816,4449.5048828125,-7309.85791015625,37.900001525878906,7.825534343719482,0,0.0,0.0,0.0,0.0,0.0,0.0,0.0,0.0,0.0,0.0,0.0,0.0,7,0.98373550456452,44.82508138020833,-73.16429850260417,-0.4809573426,9.5258267706,-0.753739119,-0.5168496816,9.5401837062,-0.4163511324,0.048869063500000004,-0.090407767475,0.1062902131125,0.1282812916875,0.1270595651,0.1466071905,-0.19662,-0.17458,-0.56492,-0.4988,-0.1044,-0.06206,-0.4989035121,9.533005238400001,-0.5850451257,0.08857517759375,0.018325898812499998,0.12644870180625,-0.34771,-0.13949,-0.31349,-8.47296,0.0,963.56384,55.519999999999996
76849,6741024,0,-65,1328,-96,32,-70,79,-339,-301,-974,-74,1335,-55,107,107,124,-860,-180,-107,-224,0,32752,54.95,0.9780310880829016,56.09,0.9898050826548236,4449.5048828125,-7309.85791015625,37.900001525878906,7.826642036437988,0,0.0,0.0,0.0,0.0,0.0,0.0,0.0,0.0,0.0,0.0,0.0,0.0,7,0.9839180853688626,44.82508138020833,-73.16429850260417,-0.466600407,9.533005238400001,-0.6891329088,-0.5312066172000001,9.583254513,-0.394815729,0.0390952508,-0.085520861125,0.09651640041250001,0.13072474486250002,0.13072474486250002,0.15149409685,-0.19662,-0.17458,-0.56492,-0.4988,-0.1044,-0.06206,-0.49890351210000006,9.5581298757,-0.5419743189,0.08490999783125001,0.02260194186875001,0.12400524863125001,-0.34771,-0.13949,-0.31349,-6.59008,0.0,963.56384,55.52
76850,6741039,0,-68,1335,-97,36,-63,87,-339,-301,-974,-69,1333,-55,101,105,120,-860,-180,-107,-208,0,32752,54.95,0.9780804342462374,56.08,0.989824821120158,4449.5048828125,-7309.85791015625,37.900001525878906,7.827749729156494,0,0.0,0.0,0.0,0.0,0.0,0.0,0.0,0.0,0.0,0.0,0.0,0.0,7,0.9839526276831977,44.82508138020833,-73.16429850260417,-0.48813581040000004,9.583254513,-0.6963113766,-0.4953142782,9.5688975774,-0.394815729,0.04398215715,-0.0769687750125,0.1062902131125,0.12339438533750001,0.1282812916875,0.1466071905,-0.19662,-0.17458,-0.56492,-0.4988,-0.1044,-0.06206,-0.4917250443,9.5760760452,-0.5455635528,0.08368827124375,0.025656258337499994,0.12644870180625,-0.34771,-0.13949,-0.31349,-6.11936,0.0,963.56384,55.515
76851,6741054,0,-69,1330,-101,38,-60,79,-339,-301,-974,-74,1334,-56,103,114,129,-860,-180,-107,-288,0,32752,54.95,0.9779027880582284,56.08,0.9899333826794968,4449.5048828125,-7309.85791015625,37.900001525878906,7.798393249511719,0,0.0,0.0,0.0,0.0,0.0,0.0,0.0,0.0,0.0,0.0,0.0,0.0,7,0.9839180853688626,44.82508138020833,-73.16429850260417,-0.4953142782,9.547362174,-0.7250252478,-0.5312066172000001,9.5760760452,-0.40199419680000004,0.046425610325000005,-0.07330359525,0.09651640041250001,0.1258378385125,0.13927683097500002,0.1576027297875,-0.19662,-0.17458,-0.56492,-0.4988,-0.1044,-0.06206,-0.5132604477,9.5617191096,-0.5635097223000001,0.08613172441875,0.032986617862500005,0.1270595651,-0.34771,-0.13949,-0.31349,-8.47296,0.0,963.56384,55.515
76852,6741070,0,-70,1333,-98,35,-73,89,-339,-301,-974,-65,1328,-48,109,107,124,-860,-180,-107,-272,0,32752,54.95,0.9782482112015792,56.08,0.989765605724155,4449.5048828125,-7309.85791015625,37.900001525878906,7.822764873504639,0,0.0,0.0,0.0,0.0,0.0,0.0,0.0,0.0,0.0,0.0,0.0,0.0,7,0.9840069084628671,44.82508138020833,-73.16429850260417,-0.502492746,9.5688975774,-0.7034898444000001,-0.466600407,9.533005238400001,-0.3445664544,0.0427604305625,-0.0891860408875,0.1087336662875,0.13316819803750002,0.13072474486250002,0.15149409685,-0.19662,-0.17458,-0.56492,-0.4988,-0.1044,-0.06206,-0.4845465765,9.550951407900001,-0.5240281494000001,0.08796431430000001,0.02076935198750001,0.13011388156875,-0.34771,-0.13949,-0.31349,-8.00224,0.0,963.56384,55.515
76853,6741085,0,-70,1332,-98,42,-69,90,-339,-301,-974,-65,1331,-52,105,111,130,-860,-180,-107,-224,0,32752,54.94,0.9781001727115716,56.09,0.9898050826548236,4449.5048828125,-7309.85791015625,37.900001525878906,7.82719612121582,0,0.0,0.0,0.0,0.0,0.0,0.0,0.0,0.0,0.0,0.0,0.0,0.0,7,0.9839526276831976,44.82508138020833,-73.16429850260417,-0.502492746,9.5617191096,-0.7034898444000001,-0.466600407,9.554540641800001,-0.3732803256,0.051312516675,-0.0842991345375,0.109955392875,0.1282812916875,0.13561165121250002,0.158824456375,-0.19662,-0.17458,-0.56492,-0.4988,-0.1044,-0.06206,-0.4845465765,9.5581298757,-0.538385085,0.08979690418125,0.02565625833750001,0.134389924625,-0.34771,-0.13949,-0.31349,-6.59008,0.0,963.56384,55.515
76854,6741101,0,-73,1331,-98,41,-72,90,-339,-301,-974,-78,1334,-53,117,93,127,-834,-173,-85,-240,0,32752,54.96,0.9780409573155688,56.08,0.9897458672588206,4449.5048828125,-7309.85791015625,37.900001525878906,7.825534343719482,0,0.0,0.0,0.0,0.0,0.0,0.0,0.0,0.0,0.0,0.0,0.0,0.0,7,0.9838934122871947,44.82508138020833,-73.16429850260417,-0.5240281494,9.554540641800001,-0.7034898444000001,-0.5599204884,9.5760760452,-0.3804587934,0.0500907900875,-0.0879643143,0.109955392875,0.1429420107375,0.1136205726375,0.1551592766125,-0.19662,-0.17458,-0.56492,-0.48372,-0.10034,-0.049300000000000004,-0.5419743188999999,9.5653083435,-0.5419743189,0.09651640041250001,0.01282812916875,0.13255733474375,-0.34017,-0.13746,-0.30711,-7.0608,0.0,963.56384,55.519999999999996
76855,6741116,0,-70,1333,-95,29,-78,87,-339,-301,-974,-78,1332,-59,111,101,126,-834,-173,-85,-224,0,32752,54.96,0.97786331112756,56.08,0.9897853441894892,4449.5048828125,-7309.85791015625,37.900001525878906,7.8116865158081055,0,0.0,0.0,0.0,0.0,0.0,0.0,0.0,0.0,0.0,0.0,0.0,0.0,7,0.9838243276585246,44.82508138020833,-73.16429850260417,-0.502492746,9.5688975774,-0.681954441,-0.5599204884,9.5617191096,-0.4235296002,0.035430071037500004,-0.09529467382500001,0.1062902131125,0.13561165121250002,0.12339438533750001,0.153937550025,-0.19662,-0.17458,-0.56492,-0.48372,-0.10034,-0.049300000000000004,-0.5312066172000001,9.5653083435,-0.5527420206,0.08552086112500001,0.01404985575625,0.13011388156875,-0.34017,-0.13746,-0.30711,-6.59008,0.0,963.56384,55.519999999999996
76856,6741131,0,-70,1327,-99,37,-68,80,-339,-301,-974,-75,1331,-48,112,110,126,-834,-173,-85,-224,0,32752,54.94,0.9780409573155688,56.08,0.9897952134221564,4449.5048828125,-7309.85791015625,37.900001525878906,7.821656703948975,0,0.0,0.0,0.0,0.0,0.0,0.0,0.0,0.0,0.0,0.0,0.0,0.0,7,0.9839180853688626,44.82508138020833,-73.16429850260417,-0.502492746,9.5258267706,-0.7106683122,-0.538385085,9.554540641800001,-0.3445664544,0.0452038837375,-0.08307740795,0.09773812700000001,0.13683337780000002,0.13438992462500002,0.153937550025,-0.19662,-0.17458,-0.56492,-0.48372,-0.10034,-0.049300000000000004,-0.5204389155,9.5401837062,-0.5276173833,0.09101863076875001,0.02565625833750001,0.12583783851250002,-0.34017,-0.13746,-0.30711,-6.59008,0.0,963.56384,55.51
76857,6741147,0,-68,1327,-93,43,-68,89,-350,-299,-979,-73,1334,-48,106,114,131,-834,-173,-85,-256,0,32752,54.95,0.978238341968912,56.09,0.9898642980508264,4449.5048828125,-7309.85791015625,37.900001525878906,7.819441318511963,0,0.0,0.0,0.0,0.0,0.0,0.0,0.0,0.0,0.0,0.0,0.0,0.0,7,0.9840513200098693,44.82508138020833,-73.16429850260417,-0.48813581040000004,9.5258267706,-0.6675975054000001,-0.5240281494,9.5760760452,-0.3445664544,0.0525342432625,-0.08307740795,0.1087336662875,0.129503018275,0.13927683097500002,0.1600461829625,-0.203,-0.17342,-0.56782,-0.48372,-0.10034,-0.049300000000000004,-0.5060819799,9.550951407900001,-0.5060819799,0.09101863076875,0.028099711512500007,0.134389924625,-0.34336,-0.13688,-0.30856,-7.53152,0.0,963.56384,55.52
76858,6741162,0,-65,1331,-98,34,-68,91,-350,-299,-979,-70,1332,-54,101,97,128,-834,-173,-85,-304,0,32752,54.96,0.9781001727115716,56.08,0.9897952134221564,4449.5048828125,-7309.85791015625,37.900001525878906,7.818333625793457,0,0.0,0.0,0.0,0.0,0.0,0.0,0.0,0.0,0.0,0.0,0.0,0.0,7,0.983947693066864,44.82508138020833,-73.16429850260417,-0.466600407,9.554540641800001,-0.7034898444000001,-0.502492746,9.5617191096,-0.3876372612,0.041538703975,-0.08307740795,0.1111771194625,0.12339438533750001,0.11850747898750001,0.1563810032,-0.203,-0.17342,-0.56782,-0.48372,-0.10034,-0.049300000000000004,-0.4845465765,9.5581298757,-0.5455635528,0.08246654465625,0.017715035518750005,0.13377906133125,-0.34336,-0.13688,-0.30856,-8.94368,0.0,963.56384,55.519999999999996
76859,6741178,0,-69,1334,-90,32,-71,91,-350,-299,-979,-77,1333,-45,105,109,126,-834,-173,-85,-304,0,32752,54.94,0.9781495188749076,56.08,0.9895978287688132,4449.5048828125,-7309.85791015625,37.900001525878906,7.8116865158081055,0,0.0,0.0,0.0,0.0,0.0,0.0,0.0,0.0,0.0,0.0,0.0,0.0,7,0.9838736738218604,44.82508138020833,-73.16429850260417,-0.4953142782,9.5760760452,-0.646062102,-0.5527420206,9.5688975774,-0.323031051,0.0390952508,-0.0867425877125,0.1111771194625,0.1282812916875,0.13316819803750002,0.153937550025,-0.203,-0.17342,-0.56782,-0.48372,-0.10034,-0.049300000000000004,-0.5240281494,9.5724868113,-0.4845465765,0.08368827124375,0.02321280516250001,0.13255733474375,-0.34336,-0.13688,-0.30856,-8.94368,0.0,963.56384,55.51
76860,6741193,0,-68,1324,-97,54,-61,95,-350,-299,-979,-72,1332,-53,98,110,135,-834,-173,-85,-272,0,32752,54.95,0.9780310880829016,56.08,0.9897458672588206,4449.5048828125,-7309.85791015625,37.900001525878906,7.820549011230469,0,0.0,0.0,0.0,0.0,0.0,0.0,0.0,0.0,0.0,0.0,0.0,0.0,7,0.9838884776708612,44.82508138020833,-73.16429850260417,-0.48813581040000004,9.5042913672,-0.6963113766,-0.5168496816,9.5617191096,-0.3804587934,0.06597323572500001,-0.0745253218375,0.1160640258125,0.11972920557500001,0.13438992462500002,0.1649330893125,-0.203,-0.17342,-0.56782,-0.48372,-0.10034,-0.049300000000000004,-0.502492746,9.533005238400001,-0.538385085,0.09285122065000001,0.029932301393750006,0.14049855756250001,-0.34336,-0.13688,-0.30856,-8.00224,0.0,963.56384,55.515
76861,6741208,0,-66,1328,-95,37,-66,92,-350,-299,-979,-70,1333,-52,102,105,130,-834,-173,-85,-304,0,32752,54.94,0.9781001727115716,56.08,0.9899037749814952,4449.5048828125,-7309.85791015625,37.900001525878906,7.8105788230896,0,0.0,0.0,0.0,0.0,0.0,0.0,0.0,0.0,0.0,0.0,0.0,0.0,7,0.9840019738465333,44.82508138020833,-73.16429850260417,-0.4737788748,9.533005238400001,-0.681954441,-0.502492746,9.5688975774,-0.3732803256,0.0452038837375,-0.080633954775,0.11239884605,0.12461611192500001,0.1282812916875,0.158824456375,-0.203,-0.17342,-0.56782,-0.48372,-0.10034,-0.049300000000000004,-0.48813581040000004,9.550951407900001,-0.5276173833,0.08490999783125,0.023823668456249995,0.13561165121250002,-0.34336,-0.13688,-0.30856,-8.94368,0.0,963.56384,55.51
76862,6741224,0,-63,1327,-94,42,-68,96,-350,-299,-979,-71,1333,-52,105,96,126,-834,-173,-85,-288,0,32752,54.95,0.978179126572909,56.07,0.9880878361707376,4449.5048828125,-7309.85791015625,37.900001525878906,7.817779541015625,0,0.0,0.0,0.0,0.0,0.0,0.0,0.0,0.0,0.0,0.0,0.0,0.0,7,0.9831334813718233,44.82508138020833,-73.16429850260417,-0.45224347140000004,9.5258267706,-0.6747759732,-0.5096712138,9.5688975774,-0.3732803256,0.051312516675,-0.08307740795,0.1172857524,0.1282812916875,0.1172857524,0.153937550025,-0.203,-0.17342,-0.56782,-0.48372,-0.10034,-0.049300000000000004,-0.4809573426,9.547362174,-0.5240281494000001,0.08979690418125,0.017104172225,0.13561165121250002,-0.34336,-0.13688,-0.30856,-8.47296,0.0,963.56384,55.510000000000005
76863,6741239,0,-66,1330,-101,46,-62,92,-350,-299,-979,-74,1329,-49,107,105,122,-834,-173,-85,-288,0,32752,54.95,0.9782778188995804,56.08,0.989765605724155,4449.5048828125,-7309.85791015625,37.900001525878906,7.835504531860352,0,0.0,0.0,0.0,0.0,0.0,0.0,0.0,0.0,0.0,0.0,0.0,0.0,7,0.9840217123118677,44.82508138020833,-73.16429850260417,-0.4737788748,9.547362174,-0.7250252478,-0.5312066172000001,9.5401837062,-0.35174492220000003,0.056199423025,-0.075747048425,0.11239884605,0.13072474486250002,0.1282812916875,0.149050643675,-0.203,-0.17342,-0.56782,-0.48372,-0.10034,-0.049300000000000004,-0.502492746,9.5437729401,-0.538385085,0.09346208394375001,0.026267121631249994,0.13072474486250002,-0.34336,-0.13688,-0.30856,-8.47296,0.0,963.56384,55.515
76864,6741254,0,-64,1334,-98,43,-58,97,-350,-299,-979,-71,1327,-54,111,98,127,-834,-173,-85,-240,0,32752,54.96,0.977873180360227,56.08,0.9898346903528252,4449.5048828125,-7309.85791015625,37.900001525878906,7.83107328414917,0,0.0,0.0,0.0,0.0,0.0,0.0,0.0,0.0,0.0,0.0,0.0,0.0,7,0.9838539353565261,44.82508138020833,-73.16429850260417,-0.4594219392,9.5760760452,-0.7034898444000001,-0.5096712138,9.5258267706,-0.3876372612,0.0525342432625,-0.07086014207500001,0.11850747898750001,0.13561165121250002,0.11972920557500001,0.1551592766125,-0.203,-0.17342,-0.56782,-0.48372,-0.10034,-0.049300000000000004,-0.4845465765,9.550951407900001,-0.5455635528,0.09407294723750001,0.024434531750000002,0.13683337780000002,-0.34336,-0.13688,-0.30856,-7.0608,0.0,963.56384,55.519999999999996
76865,6741269,0,-71,1327,-100,48,-71,101,-350,-299,-979,-78,1331,-50,110,105,131,-834,-173,-85,-288,0,32752,54.95,0.9780113496175672,56.07,0.987920059215396,4449.5048828125,-7309.85791015625,37.900001525878906,7.843259334564209,0,0.0,0.0,0.0,0.0,0.0,0.0,0.0,0.0,0.0,0.0,0.0,0.0,7,0.9829657044164817,44.82508138020833,-73.16429850260417,-0.5096712138,9.5258267706,-0.71784678,-0.5599204884,9.554540641800001,-0.35892339,0.0586428762,-0.0867425877125,0.12339438533750001,0.13438992462500002,0.1282812916875,0.1600461829625,-0.203,-0.17342,-0.56782,-0.48372,-0.10034,-0.049300000000000004,-0.5347958510999999,9.5401837062,-0.538385085,0.09651640041250001,0.020769351987499997,0.14172028415000001,-0.34336,-0.13688,-0.30856,-8.47296,0.0,963.56384,55.510000000000005
76866,6741284,0,-69,1331,-95,42,-73,82,-350,-299,-979,-74,1328,-45,107,100,127,-834,-173,-85,-240,0,32752,54.95,0.9782482112015792,56.08,0.989893905748828,4449.5048828125,-7309.85791015625,37.900001525878906,7.825534343719482,0,0.0,0.0,0.0,0.0,0.0,0.0,0.0,0.0,0.0,0.0,0.0,0.0,7,0.9840710584752036,44.82508138020833,-73.16429850260417,-0.4953142782,9.554540641800001,-0.681954441,-0.5312066172000001,9.533005238400001,-0.323031051,0.051312516675,-0.0891860408875,0.100181580175,0.13072474486250002,0.12217265875000001,0.1551592766125,-0.203,-0.17342,-0.56782,-0.48372,-0.10034,-0.049300000000000004,-0.5132604477,9.543772940100002,-0.502492746,0.09101863076875001,0.016493308931250006,0.12767042839375,-0.34336,-0.13688,-0.30856,-7.0608,0.0,963.56384,55.515
76867,6741300,0,-70,1327,-98,27,-70,88,-350,-299,-979,-73,1337,-49,110,101,123,-836,-168,-93,-208,0,32752,54.95,0.9780804342462374,56.08,0.989765605724155,4449.5048828125,-7309.85791015625,37.900001525878906,7.833842754364014,0,0.0,0.0,0.0,0.0,0.0,0.0,0.0,0.0,0.0,0.0,0.0,0.0,7,0.9839230199851962,44.82508138020833,-73.16429850260417,-0.502492746,9.5258267706,-0.7034898444000001,-0.5240281494,9.5976114486,-0.35174492220000003,0.032986617862500005,-0.085520861125,0.1075119397,0.13438992462500002,0.12339438533750001,0.1502723702625,-0.203,-0.17342,-0.56782,-0.48488,-0.09744,-0.05394,-0.5132604477,9.5617191096,-0.5276173833000001,0.08368827124375001,0.018936762106250005,0.12889215498125,-0.34394,-0.13543,-0.31088,-6.11936,0.0,963.56384,55.515
76868,6741315,0,-71,1332,-92,39,-76,100,-350,-299,-979,-70,1332,-48,101,108,136,-836,-168,-93,-240,-192,32752,54.95,0.978238341968912,56.08,0.9898346903528252,4449.5048828125,-7309.85791015625,37.900001525878906,7.822764873504639,0,0.0,0.0,0.0,0.0,0.0,0.0,0.0,0.0,0.0,0.0,0.0,0.0,7,0.9840365161608686,44.82508138020833,-73.16429850260417,-0.5096712138,9.5617191096,-0.6604190376,-0.502492746,9.5617191096,-0.3445664544,0.047647336912500005,-0.09285122065000001,0.12217265875000001,0.12339438533750001,0.13194647145000002,0.1661548159,-0.203,-0.17342,-0.56782,-0.48488,-0.09744,-0.05394,-0.5060819799,9.5617191096,-0.5024927459999999,0.08552086112500001,0.019547625400000004,0.144163737325,-0.34394,-0.13543,-0.31088,-7.0608,-5.64864,963.56384,55.515
76869,6741330,0,-68,1335,-92,40,-72,97,-350,-299,-979,-72,1332,-48,110,103,134,-836,-168,-93,-272,0,32752,54.95,0.9780310880829016,56.08,0.989824821120158,4449.5048828125,-7309.85791015625,37.900001525878906,7.839381694793701,0,0.0,0.0,0.0,0.0,0.0,0.0,0.0,0.0,0.0,0.0,0.0,0.0,7,0.9839279546015298,44.82508138020833,-73.16429850260417,-0.48813581040000004,9.583254513,-0.6604190376,-0.5168496816,9.5617191096,-0.3445664544,0.048869063500000004,-0.0879643143,0.11850747898750001,0.13438992462500002,0.1258378385125,0.163711362725,-0.203,-0.17342,-0.56782,-0.48488,-0.09744,-0.05394,-0.502492746,9.5724868113,-0.5024927459999999,0.09162949406250001,0.018936762106249998,0.14110942085625,-0.34394,-0.13543,-0.31088,-8.00224,0.0,963.56384,55.515
76870,6741346,0,-71,1330,-96,42,-63,91,-359,-314,-967,-75,1328,-48,99,106,135,-836,-168,-93,-256,0,32752,54.95,0.9780508265482358,56.08,0.9898840365161607,4449.5048828125,-7309.85791015625,37.900001525878906,7.823872566223144,0,0.0,0.0,0.0,0.0,0.0,0.0,0.0,0.0,0.0,0.0,0.0,0.0,7,0.9839674315321982,44.82508138020833,-73.16429850260417,-0.5096712138,9.547362174,-0.6891329088,-0.538385085,9.533005238400001,-0.3445664544,0.051312516675,-0.0769687750125,0.1111771194625,0.12095093216250001,0.129503018275,0.1649330893125,-0.20822,-0.18212,-0.56086,-0.48488,-0.09744,-0.05394,-0.5240281494000001,9.5401837062,-0.5168496816,0.08613172441875,0.026267121631249994,0.13805510438750002,-0.34654999999999997,-0.13978000000000002,-0.3074,-7.53152,0.0,963.56384,55.515
76871,6741361,0,-77,1329,-96,29,-66,98,-359,-314,-967,-73,1328,-44,106,102,135,-836,-168,-93,-288,0,32752,54.94,0.9780409573155688,56.08,0.9899037749814952,4449.5048828125,-7309.85791015625,37.900001525878906,7.842705249786377,0,0.0,0.0,0.0,0.0,0.0,0.0,0.0,0.0,0.0,0.0,0.0,0.0,7,0.983972366148532,44.82508138020833,-73.16429850260417,-0.5527420206,9.5401837062,-0.6891329088,-0.5240281494,9.533005238400001,-0.31585258320000004,0.035430071037500004,-0.080633954775,0.11972920557500001,0.129503018275,0.12461611192500001,0.1649330893125,-0.20822,-0.18212,-0.56086,-0.48488,-0.09744,-0.05394,-0.538385085,9.536594472300001,-0.502492746,0.08246654465625,0.021991078575000003,0.14233114744375,-0.34654999999999997,-0.13978000000000002,-0.3074,-8.47296,0.0,963.56384,55.51
76872,6741377,0,-72,1343,-98,42,-73,94,-359,-314,-967,-82,1332,-51,105,103,126,-836,-168,-93,-240,0,32752,54.95,0.9781692573402418,56.08,0.989765605724155,4449.5048828125,-7309.85791015625,37.900001525878906,7.820549011230469,0,0.0,0.0,0.0,0.0,0.0,0.0,0.0,0.0,0.0,0.0,0.0,0.0,7,0.9839674315321985,44.82508138020833,-73.16429850260417,-0.5168496816,9.6406822554,-0.7034898444000001,-0.5886343596,9.5617191096,-0.36610185780000004,0.051312516675,-0.0891860408875,0.114842299225,0.1282812916875,0.1258378385125,0.153937550025,-0.20822,-0.18212,-0.56086,-0.48488,-0.09744,-0.05394,-0.5527420206,9.6012006825,-0.5347958511,0.08979690418125,0.018325898812499998,0.134389924625,-0.34654999999999997,-0.13978000000000002,-0.3074,-7.0608,0.0,963.56384,55.515
76873,6741392,0,-72,1333,-96,37,-83,96,-359,-314,-967,-78,1335,-43,111,99,135,-836,-168,-93,-288,0,32752,54.95,0.9781988650382432,56.07,0.987979274611399,4449.5048828125,-7309.85791015625,37.900001525878906,7.827749729156494,0,0.0,0.0,0.0,0.0,0.0,0.0,0.0,0.0,0.0,0.0,0.0,0.0,7,0.9830890698248211,44.82508138020833,-73.16429850260417,-0.5168496816,9.5688975774,-0.6891329088,-0.5599204884,9.583254513,-0.3086741154,0.0452038837375,-0.1014033067625,0.1172857524,0.13561165121250002,0.12095093216250001,0.1649330893125,-0.20822,-0.18212,-0.56086,-0.48488,-0.09744,-0.05394,-0.538385085,9.5760760452,-0.4989035121,0.09040776747500001,0.009773812700000002,0.14110942085625,-0.34654999999999997,-0.13978000000000002,-0.3074,-8.47296,0.0,963.56384,55.510000000000005
76874,6741407,0,-69,1325,-93,36,-72,89,-359,-314,-967,-73,1329,-50,104,111,126,-836,-168,-93,-176,0,32752,54.94,0.9781692573402418,56.08,0.9897261287934864,4449.5048828125,-7309.85791015625,37.900001525878906,7.831627368927002,0,0.0,0.0,0.0,0.0,0.0,0.0,0.0,0.0,0.0,0.0,0.0,0.0,7,0.9839476930668641,44.82508138020833,-73.16429850260417,-0.4953142782,9.511469835,-0.6675975054000001,-0.5240281494,9.5401837062,-0.35892339,0.04398215715,-0.0879643143,0.1087336662875,0.1270595651,0.13561165121250002,0.153937550025,-0.20822,-0.18212,-0.56086,-0.48488,-0.09744,-0.05394,-0.5096712138,9.5258267706,-0.5132604477,0.085520861125,0.02382366845625001,0.13133560815625,-0.34654999999999997,-0.13978000000000002,-0.3074,-5.17792,0.0,963.56384,55.51
76875,6741423,0,-72,1326,-94,41,-67,89,-359,-314,-967,-82,1333,-49,103,100,134,-836,-168,-93,-288,0,32752,54.95,0.978119911176906,56.08,0.989765605724155,4449.5048828125,-7309.85791015625,37.900001525878906,7.820549011230469,0,0.0,0.0,0.0,0.0,0.0,0.0,0.0,0.0,0.0,0.0,0.0,0.0,7,0.9839427584505305,44.82508138020833,-73.16429850260417,-0.5168496816,9.5186483028,-0.6747759732,-0.5886343596,9.5688975774,-0.35174492220000003,0.0500907900875,-0.0818556813625,0.1087336662875,0.1258378385125,0.12217265875000001,0.163711362725,-0.20822,-0.18212,-0.56086,-0.48488,-0.09744,-0.05394,-0.5527420206,9.5437729401,-0.5132604477,0.0879643143,0.020158488693750004,0.13622251450625,-0.34654999999999997,-0.13978000000000002,-0.3074,-8.47296,0.0,963.56384,55.515
76876,6741438,0,-73,1331,-90,33,-73,95,-359,-314,-967,-76,1334,-46,106,108,127,-836,-168,-93,-208,0,32752,54.93,0.9780804342462374,56.08,0.9899037749814952,4449.5048828125,-7309.85791015625,37.900001525878906,7.824426651000977,0,0.0,0.0,0.0,0.0,0.0,0.0,0.0,0.0,0.0,0.0,0.0,0.0,7,0.9839921046138662,44.82508138020833,-73.16429850260417,-0.5240281494,9.554540641800001,-0.646062102,-0.5455635528,9.5760760452,-0.3302095188,0.0403169773875,-0.0891860408875,0.1160640258125,0.129503018275,0.13194647145000002,0.1551592766125,-0.20822,-0.18212,-0.56086,-0.48488,-0.09744,-0.05394,-0.5347958510999999,9.5653083435,-0.4881358104,0.08490999783125,0.02138021528125001,0.13561165121250002,-0.34654999999999997,-0.13978000000000002,-0.3074,-6.11936,0.0,963.56384,55.504999999999995
76877,6741454,0,-78,1327,-95,31,-69,92,-359,-314,-967,-71,1330,-49,102,114,130,-836,-168,-93,-288,0,32752,54.93,0.9781297804095732,56.08,0.9897261287934864,4449.5048828125,-7309.85791015625,37.900001525878906,7.843259334564209,0,0.0,0.0,0.0,0.0,0.0,0.0,0.0,0.0,0.0,0.0,0.0,0.0,7,0.9839279546015298,44.82508138020833,-73.16429850260417,-0.5599204884,9.5258267706,-0.681954441,-0.5096712138,9.547362174,-0.35174492220000003,0.0378735242125,-0.0842991345375,0.11239884605,0.12461611192500001,0.13927683097500002,0.158824456375,-0.20822,-0.18212,-0.56086,-0.48488,-0.09744,-0.05394,-0.5347958510999999,9.5365944723,-0.5168496816,0.08124481806875,0.027488848218750007,0.13561165121250002,-0.34654999999999997,-0.13978000000000002,-0.3074,-8.47296,0.0,963.56384,55.504999999999995
76878,6741469,0,-80,1334,-91,29,-59,87,-359,-314,-967,-80,1329,-49,104,108,126,-836,-168,-93,-176,-192,32752,54.95,0.9780113496175672,56.08,0.9897261287934864,4449.5048828125,-7309.85791015625,37.900001525878906,7.813902378082275,0,0.0,0.0,0.0,0.0,0.0,0.0,0.0,0.0,0.0,0.0,0.0,0.0,7,0.9838687392055268,44.82508138020833,-73.16429850260417,-0.574277424,9.5760760452,-0.6532405698,-0.574277424,9.5401837062,-0.35174492220000003,0.035430071037500004,-0.0720818686625,0.1062902131125,0.1270595651,0.13194647145000002,0.153937550025,-0.20822,-0.18212,-0.56086,-0.48488,-0.09744,-0.05394,-0.574277424,9.5581298757,-0.502492746,0.08124481806875,0.029932301393750006,0.13011388156875,-0.34654999999999997,-0.13978000000000002,-0.3074,-5.17792,-5.64864,963.56384,55.515
76879,6741484,0,-85,1328,-98,32,-64,88,-359,-314,-967,-76,1330,-48,101,112,129,-836,-168,-93,-144,0,32752,54.95,0.9779620034542316,56.08,0.9898346903528252,4449.5048828125,-7309.85791015625,37.900001525878906,7.829965591430664,0,0.0,0.0,0.0,0.0,0.0,0.0,0.0,0.0,0.0,0.0,0.0,0.0,7,0.9838983469035284,44.82508138020833,-73.16429850260417,-0.610169763,9.533005238400001,-0.7034898444000001,-0.5455635528,9.547362174,-0.3445664544,0.0390952508,-0.0781905016,0.1075119397,0.12339438533750001,0.13683337780000002,0.1576027297875,-0.20822,-0.18212,-0.56086,-0.48488,-0.09744,-0.05394,-0.5778666579,9.5401837062,-0.5240281494000001,0.08124481806875,0.029321438100000007,0.13255733474375,-0.34654999999999997,-0.13978000000000002,-0.3074,-4.23648,0.0,963.56384,55.515
76880,6741500,0,-74,1331,-92,35,-71,93,-359,-314,-967,-72,1333,-50,93,108,121,-853,-181,-82,-192,0,32752,54.95,0.9780014803849,56.08,0.989893905748828,4449.5048828125,-7309.85791015625,37.900001525878906,7.821656703948975,0,0.0,0.0,0.0,0.0,0.0,0.0,0.0,0.0,0.0,0.0,0.0,0.0,7,0.983947693066864,44.82508138020833,-73.16429850260417,-0.5312066172000001,9.554540641800001,-0.6604190376,-0.5168496816,9.5688975774,-0.35892339,0.0427604305625,-0.0867425877125,0.1136205726375,0.1136205726375,0.13194647145000002,0.1478289170875,-0.20822,-0.18212,-0.56086,-0.49474,-0.10498,-0.04756,-0.5240281494000001,9.5617191096,-0.5096712138,0.0781905016,0.02260194186875001,0.13072474486250002,-0.35148,-0.14355,-0.30421000000000004,-5.64864,0.0,963.56384,55.515
76881,6741515,0,-74,1330,-88,29,-73,87,-359,-314,-967,-81,1326,-52,100,100,135,-853,-181,-82,-272,0,32752,54.95,0.9780113496175672,56.08,0.9898544288181594,4449.5048828125,-7309.85791015625,37.900001525878906,7.816117763519287,0,0.0,0.0,0.0,0.0,0.0,0.0,0.0,0.0,0.0,0.0,0.0,0.0,7,0.9839328892178634,44.82508138020833,-73.16429850260417,-0.5312066172000001,9.547362174,-0.6317051664000001,-0.5814558918,9.5186483028,-0.3732803256,0.035430071037500004,-0.0891860408875,0.1062902131125,0.12217265875000001,0.12217265875000001,0.1649330893125,-0.20822,-0.18212,-0.56086,-0.49474,-0.10498,-0.04756,-0.5563312545000001,9.533005238400001,-0.502492746,0.07880136489375,0.016493308931250006,0.13561165121250002,-0.35148,-0.14355,-0.30421000000000004,-8.00224,0.0,963.56384,55.515
76882,6741531,0,-75,1329,-86,31,-81,79,-359,-314,-967,-82,1327,-47,103,92,129,-853,-181,-82,-224,0,32752,54.94,0.9781495188749076,56.08,0.9898346903528252,4449.5048828125,-7309.85791015625,37.900001525878906,7.831627368927002,0,0.0,0.0,0.0,0.0,0.0,0.0,0.0,0.0,0.0,0.0,0.0,0.0,7,0.9839921046138664,44.82508138020833,-73.16429850260417,-0.538385085,9.5401837062,-0.6173482308,-0.5886343596,9.5258267706,-0.3373879866,0.0378735242125,-0.09895985358750001,0.09651640041250001,0.1258378385125,0.11239884605,0.1576027297875,-0.20822,-0.18212,-0.56086,-0.49474,-0.10498,-0.04756,-0.5635097223000001,9.533005238400001,-0.4773681087,0.0818556813625,0.006719496231249997,0.1270595651,-0.35148,-0.14355,-0.30421000000000004,-6.59008,0.0,963.56384,55.51
76883,6741546,0,-78,1333,-84,16,-80,88,-343,-316,-978,-77,1331,-47,98,90,130,-853,-181,-82,-368,0,32752,54.95,0.97807056501357,56.08,0.989765605724155,4449.5048828125,-7309.85791015625,37.900001525878906,7.835504531860352,0,0.0,0.0,0.0,0.0,0.0,0.0,0.0,0.0,0.0,0.0,0.0,0.0,7,0.9839180853688625,44.82508138020833,-73.16429850260417,-0.5599204884,9.5688975774,-0.6029912952,-0.5527420206,9.554540641800001,-0.3373879866,0.0195476254,-0.09773812700000001,0.1075119397,0.11972920557500001,0.109955392875,0.158824456375,-0.19894,-0.18328,-0.56724,-0.49474,-0.10498,-0.04756,-0.5563312545,9.5617191096,-0.47018964090000004,0.06963841548750001,0.006108632937499997,0.13316819803750002,-0.34684000000000004,-0.14413,-0.3074,-10.82656,0.0,963.56384,55.515
76884,6741561,0,-80,1326,-96,35,-74,86,-343,-316,-978,-76,1334,-52,106,98,119,-853,-181,-82,-224,0,32752,54.94,0.9781001727115716,56.08,0.9897261287934864,4449.5048828125,-7309.85791015625,37.900001525878906,7.825534343719482,0,0.0,0.0,0.0,0.0,0.0,0.0,0.0,0.0,0.0,0.0,0.0,0.0,7,0.9839131507525289,44.82508138020833,-73.16429850260417,-0.574277424,9.5186483028,-0.6891329088,-0.5455635528,9.5760760452,-0.3732803256,0.0427604305625,-0.090407767475,0.105068486525,0.129503018275,0.11972920557500001,0.1453854639125,-0.19894,-0.18328,-0.56724,-0.49474,-0.10498,-0.04756,-0.5599204884,9.547362174,-0.5312066172000001,0.08613172441875,0.014660719050000007,0.12522697521875,-0.34684000000000004,-0.14413,-0.3074,-6.59008,0.0,963.56384,55.51
76885,6741577,0,-69,1337,-88,29,-77,79,-343,-316,-978,-82,1332,-45,105,97,128,-853,-181,-82,-224,0,32752,54.96,0.9779126572908956,56.08,0.9898544288181594,4449.5048828125,-7309.85791015625,37.900001525878906,7.820549011230469,0,0.0,0.0,0.0,0.0,0.0,0.0,0.0,0.0,0.0,0.0,0.0,0.0,7,0.9838835430545275,44.82508138020833,-73.16429850260417,-0.4953142782,9.5976114486,-0.6317051664000001,-0.5886343596,9.5617191096,-0.323031051,0.035430071037500004,-0.09407294723750001,0.09651640041250001,0.1282812916875,0.11850747898750001,0.1563810032,-0.19894,-0.18328,-0.56724,-0.49474,-0.10498,-0.04756,-0.5419743189,9.5796652791,-0.4773681087,0.0818556813625,0.012217265875000001,0.12644870180625,-0.34684000000000004,-0.14413,-0.3074,-6.59008,0.0,963.56384,55.519999999999996
76886,6741592,0,-85,1328,-100,21,-80,83,-343,-316,-978,-80,1329,-46,103,107,125,-853,-181,-82,-288,0,32752,54.94,0.9781692573402418,56.08,0.9896274364668148,4449.5048828125,-7309.85791015625,37.900001525878906,7.826642036437988,0,0.0,0.0,0.0,0.0,0.0,0.0,0.0,0.0,0.0,0.0,0.0,0.0,7,0.9838983469035283,44.82508138020833,-73.16429850260417,-0.610169763,9.533005238400001,-0.71784678,-0.574277424,9.5401837062,-0.3302095188,0.0256562583375,-0.09773812700000001,0.1014033067625,0.1258378385125,0.13072474486250002,0.1527158234375,-0.19894,-0.18328,-0.56724,-0.49474,-0.10498,-0.04756,-0.5922235935,9.536594472300001,-0.5240281494,0.07574704842499999,0.016493308931250006,0.1270595651,-0.34684000000000004,-0.14413,-0.3074,-8.47296,0.0,963.56384,55.51
76887,6741607,0,-68,1332,-96,25,-74,81,-343,-316,-978,-80,1330,-49,83,96,125,-853,-181,-82,-224,0,32752,54.95,0.9781396496422404,56.08,0.9897952134221564,4449.5048828125,-7309.85791015625,37.900001525878906,7.842705249786377,0,0.0,0.0,0.0,0.0,0.0,0.0,0.0,0.0,0.0,0.0,0.0,0.0,7,0.9839674315321985,44.82508138020833,-73.16429850260417,-0.48813581040000004,9.5617191096,-0.6891329088,-0.574277424,9.547362174,-0.35174492220000003,0.030543164687500002,-0.090407767475,0.09895985358750001,0.1014033067625,0.1172857524,0.1527158234375,-0.19894,-0.18328,-0.56724,-0.49474,-0.10498,-0.04756,-0.5312066172000001,9.5545406418,-0.5204389155,0.06597323572500001,0.0134389924625,0.12583783851250002,-0.34684000000000004,-0.14413,-0.3074,-6.59008,0.0,963.56384,55.515
76888,6741623,0,-81,1331,-93,28,-72,89,-343,-316,-978,-78,1333,-47,95,104,125,-853,-181,-82,-208,0,32752,54.95,0.9781692573402418,56.08,0.9900024673081668,4449.5048828125,-7309.85791015625,37.900001525878906,7.825534343719482,0,0.0,0.0,0.0,0.0,0.0,0.0,0.0,0.0,0.0,0.0,0.0,0.0,7,0.9840858623242044,44.82508138020833,-73.16429850260417,-0.5814558918,9.554540641800001,-0.6675975054000001,-0.5599204884,9.5688975774,-0.3373879866,0.034208344450000004,-0.0879643143,0.1087336662875,0.1160640258125,0.1270595651,0.1527158234375,-0.19894,-0.18328,-0.56724,-0.49474,-0.10498,-0.04756,-0.5706881901,9.5617191096,-0.502492746,0.07513618513125,0.019547625399999997,0.13072474486250002,-0.34684000000000004,-0.14413,-0.3074,-6.11936,0.0,963.56384,55.515
76889,6741638,0,-73,1332,-94,17,-65,85,-343,-316,-978,-81,1334,-49,99,99,123,-853,-181,-82,-224,0,32752,54.93,0.9780113496175672,56.08,0.989765605724155,4449.5048828125,-7309.85791015625,37.900001525878906,7.834396839141846,0,0.0,0.0,0.0,0.0,0.0,0.0,0.0,0.0,0.0,0.0,0.0,0.0,7,0.9838884776708611,44.82508138020833,-73.16429850260417,-0.5240281494,9.5617191096,-0.6747759732,-0.5814558918,9.5760760452,-0.35174492220000003,0.0207693519875,-0.0794122281875,0.1038467599375,0.12095093216250001,0.12095093216250001,0.1502723702625,-0.19894,-0.18328,-0.56724,-0.49474,-0.10498,-0.04756,-0.5527420206,9.568897577400001,-0.5132604477,0.07086014207500001,0.020769351987500004,0.1270595651,-0.34684000000000004,-0.14413,-0.3074,-6.59008,0.0,963.56384,55.504999999999995
76890,6741654,0,-75,1330,-94,18,-76,76,-343,-316,-978,-82,1331,-54,94,99,114,-853,-181,-82,-224,0,32752,54.94,0.9782186035035776,56.08,0.9897458672588206,4449.5048828125,-7309.85791015625,37.900001525878906,7.820549011230469,0,0.0,0.0,0.0,0.0,0.0,0.0,0.0,0.0,0.0,0.0,0.0,0.0,7,0.9839822353811991,44.82508138020833,-73.16429850260417,-0.538385085,9.547362174,-0.6747759732,-0.5886343596,9.554540641800001,-0.3876372612,0.021991078575,-0.09285122065000001,0.09285122065000001,0.114842299225,0.12095093216250001,0.13927683097500002,-0.19894,-0.18328,-0.56724,-0.49474,-0.10498,-0.04756,-0.5635097223000001,9.550951407900001,-0.5312066172000001,0.0684166889,0.01404985575625,0.11606402581250001,-0.34684000000000004,-0.14413,-0.3074,-6.59008,0.0,963.56384,55.51
76891,6741669,0,-76,1329,-90,29,-81,81,-343,-316,-978,-78,1333,-46,88,94,131,-853,-181,-82,-224,0,32752,54.94,0.9781001727115716,56.08,0.9895780903034788,4449.5048828125,-7309.85791015625,37.900001525878906,7.841043472290039,0,0.0,0.0,0.0,0.0,0.0,0.0,0.0,0.0,0.0,0.0,0.0,0.0,7,0.9838391315075252,44.82508138020833,-73.16429850260417,-0.5455635528,9.5401837062,-0.646062102,-0.5599204884,9.5688975774,-0.3302095188,0.035430071037500004,-0.09895985358750001,0.09895985358750001,0.1075119397,0.114842299225,0.1600461829625,-0.19894,-0.18328,-0.56724,-0.49474,-0.10498,-0.04756,-0.5527420206,9.5545406418,-0.4881358104,0.07147100536875,0.007941222818749996,0.129503018275,-0.34684000000000004,-0.14413,-0.3074,-6.59008,0.0,963.56384,55.51
76892,6741684,0,-77,1331,-95,29,-81,71,-343,-316,-978,-79,1333,-55,92,97,125,-877,-198,-98,-208,0,32752,54.95,0.9782876881322478,56.08,0.989893905748828,4449.5048828125,-7309.85791015625,37.900001525878906,7.818887233734131,0,0.0,0.0,0.0,0.0,0.0,0.0,0.0,0.0,0.0,0.0,0.0,0.0,7,0.9840907969405379,44.82508138020833,-73.16429850260417,-0.5527420206,9.554540641800001,-0.681954441,-0.5670989562000001,9.5688975774,-0.394815729,0.035430071037500004,-0.09895985358750001,0.0867425877125,0.11239884605,0.11850747898750001,0.1527158234375,-0.19894,-0.18328,-0.56724,-0.50866,-0.11484,-0.05684,-0.5599204884,9.5617191096,-0.538385085,0.07391445854375,0.009773812700000002,0.119729205575,-0.3538,-0.14906,-0.31204,-6.11936,0.0,963.56384,55.515
76893,6741700,0,-74,1329,-93,26,-99,81,-343,-316,-978,-78,1330,-45,93,94,121,-877,-198,-98,-160,0,32752,54.95,0.9782876881322478,56.07,0.9880878361707376,4449.5048828125,-7309.85791015625,37.900001525878906,7.82498025894165,0,0.0,0.0,0.0,0.0,0.0,0.0,0.0,0.0,0.0,0.0,0.0,0.0,7,0.9831877621514926,44.82508138020833,-73.16429850260417,-0.5312066172000001,9.5401837062,-0.6675975054000001,-0.5599204884,9.547362174,-0.323031051,0.031764891275,-0.12095093216250001,0.09895985358750001,0.1136205726375,0.114842299225,0.1478289170875,-0.19894,-0.18328,-0.56724,-0.50866,-0.11484,-0.05684,-0.5455635528,9.5437729401,-0.49531427820000007,0.07269273195625,-0.0030543164687500055,0.12339438533750001,-0.3538,-0.14906,-0.31204,-4.7072,0.0,963.56384,55.510000000000005
76894,6741715,0,-71,1335,-96,24,-77,89,-343,-316,-978,-79,1331,-53,92,83,113,-877,-198,-98,-208,0,32752,54.95,0.9781396496422404,56.08,0.9897853441894892,4449.5048828125,-7309.85791015625,37.900001525878906,7.834396839141846,0,0.0,0.0,0.0,0.0,0.0,0.0,0.0,0.0,0.0,0.0,0.0,0.0,7,0.9839624969158648,44.82508138020833,-73.16429850260417,-0.5096712138,9.583254513,-0.6891329088,-0.5670989562000001,9.554540641800001,-0.3804587934,0.0293214381,-0.09407294723750001,0.1087336662875,0.11239884605,0.1014033067625,0.13805510438750002,-0.19894,-0.18328,-0.56724,-0.50866,-0.11484,-0.05684,-0.538385085,9.568897577400001,-0.5347958510999999,0.070860142075,0.0036651797624999982,0.12339438533750001,-0.3538,-0.14906,-0.31204,-6.11936,0.0,963.56384,55.515
76895,6741731,0,-76,1332,-94,14,-85,89,-343,-316,-978,-80,1330,-51,91,93,117,-877,-198,-98,-288,0,32752,54.95,0.97807056501357,56.08,0.989824821120158,4449.5048828125,-7309.85791015625,37.900001525878906,7.821656703948975,0,0.0,0.0,0.0,0.0,0.0,0.0,0.0,0.0,0.0,0.0,0.0,0.0,7,0.983947693066864,44.82508138020833,-73.16429850260417,-0.5455635528,9.5617191096,-0.6747759732,-0.574277424,9.547362174,-0.36610185780000004,0.017104172225000002,-0.1038467599375,0.1087336662875,0.1111771194625,0.1136205726375,0.1429420107375,-0.19894,-0.18328,-0.56724,-0.50866,-0.11484,-0.05684,-0.5599204884,9.5545406418,-0.5204389155,0.06414064584375,0.004886906349999998,0.12583783851250002,-0.3538,-0.14906,-0.31204,-8.47296,0.0,963.56384,55.515
76896,6741746,0,-69,1335,-96,17,-85,79,-344,-338,-984,-72,1337,-51,89,101,121,-877,-198,-98,-256,-176,32752,54.95,0.9782482112015792,56.08,0.9899037749814952,4449.5048828125,-7309.85791015625,37.900001525878906,7.8105788230896,0,0.0,0.0,0.0,0.0,0.0,0.0,0.0,0.0,0.0,0.0,0.0,0.0,7,0.9840759930915373,44.82508138020833,-73.16429850260417,-0.4953142782,9.583254513,-0.6891329088,-0.5168496816,9.5976114486,-0.36610185780000004,0.0207693519875,-0.1038467599375,0.09651640041250001,0.1087336662875,0.12339438533750001,0.1478289170875,-0.19952,-0.19604,-0.57072,-0.50866,-0.11484,-0.05684,-0.5060819799,9.5904329808,-0.5276173833,0.0647515091375,0.009773812700000002,0.12217265875000001,-0.35409,-0.15544,-0.31378,-7.53152,-5.17792,963.56384,55.515
76897,6741761,0,-78,1329,-96,18,-80,73,-344,-338,-984,-80,1331,-54,90,101,111,-877,-198,-98,-208,0,32752,54.94,0.9781001727115716,56.08,0.9897458672588206,4449.5048828125,-7309.85791015625,37.900001525878906,7.820549011230469,0,0.0,0.0,0.0,0.0,0.0,0.0,0.0,0.0,0.0,0.0,0.0,0.0,7,0.983923019985196,44.82508138020833,-73.16429850260417,-0.5599204884,9.5401837062,-0.6891329088,-0.574277424,9.554540641800001,-0.3876372612,0.021991078575,-0.09773812700000001,0.0891860408875,0.109955392875,0.12339438533750001,0.13561165121250002,-0.19952,-0.19604,-0.57072,-0.50866,-0.11484,-0.05684,-0.5670989562,9.547362174,-0.538385085,0.065973235725,0.01282812916875,0.11239884605,-0.35409,-0.15544,-0.31378,-6.11936,0.0,963.56384,55.51
76898,6741777,0,-76,1331,-97,27,-64,70,-344,-338,-984,-82,1332,-53,88,102,114,-877,-198,-98,-272,0,32752,54.95,0.9780804342462374,56.08,0.9897458672588206,4449.5048828125,-7309.85791015625,37.900001525878906,7.822764873504639,0,0.0,0.0,0.0,0.0,0.0,0.0,0.0,0.0,0.0,0.0,0.0,0.0,7,0.9839131507525289,44.82508138020833,-73.16429850260417,-0.5455635528,9.554540641800001,-0.6963113766,-0.5886343596,9.5617191096,-0.3804587934,0.032986617862500005,-0.0781905016,0.085520861125,0.1075119397,0.12461611192500001,0.13927683097500002,-0.19952,-0.19604,-0.57072,-0.50866,-0.11484,-0.05684,-0.5670989562,9.5581298757,-0.538385085,0.07024927878125001,0.023212805162500003,0.11239884605,-0.35409,-0.15544,-0.31378,-8.00224,0.0,963.56384,55.515
76899,6741792,0,-73,1333,-96,28,-70,72,-344,-338,-984,-77,1334,-53,98,100,116,-877,-198,-98,-240,0,32752,54.94,0.9782087342709104,56.07,0.9881470515667408,4449.5048828125,-7309.85791015625,37.900001525878906,7.825534343719482,0,0.0,0.0,0.0,0.0,0.0,0.0,0.0,0.0,0.0,0.0,0.0,0.0,7,0.9831778929188255,44.82508138020833,-73.16429850260417,-0.5240281494,9.5688975774,-0.6891329088,-0.5527420206,9.5760760452,-0.3804587934,0.034208344450000004,-0.085520861125,0.0879643143,0.11972920557500001,0.12217265875000001,0.14172028415000001,-0.19952,-0.19604,-0.57072,-0.50866,-0.11484,-0.05684,-0.538385085,9.5724868113,-0.5347958510999999,0.0769687750125,0.018325898812500005,0.114842299225,-0.35409,-0.15544,-0.31378,-7.0608,0.0,963.56384,55.504999999999995
76900,6741808,0,-68,1327,-96,33,-86,71,-344,-338,-984,-73,1332,-51,81,92,107,-877,-198,-98,-176,0,32752,54.94,0.978060695780903,56.08,0.989824821120158,4449.5048828125,-7309.85791015625,37.900001525878906,7.833288669586182,0,0.0,0.0,0.0,0.0,0.0,0.0,0.0,0.0,0.0,0.0,0.0,0.0,7,0.9839427584505305,44.82508138020833,-73.16429850260417,-0.48813581040000004,9.5258267706,-0.6891329088,-0.5240281494,9.5617191096,-0.36610185780000004,0.0403169773875,-0.105068486525,0.0867425877125,0.09895985358750001,0.11239884605,0.13072474486250002,-0.19952,-0.19604,-0.57072,-0.50866,-0.11484,-0.05684,-0.5060819799,9.5437729401,-0.5276173833,0.06963841548750001,0.0036651797624999982,0.1087336662875,-0.35409,-0.15544,-0.31378,-5.17792,0.0,963.56384,55.51
76901,6741825,0,-77,1332,-95,16,-88,74,-344,-338,-984,-73,1328,-53,91,88,113,-877,-198,-98,-288,0,32752,54.95,0.9780508265482358,56.08,0.9899037749814952,4449.5048828125,-7309.85791015625,38.09999847412109,7.841597557067871,0,0.0,0.0,0.0,0.0,0.0,0.0,0.0,0.0,0.0,0.0,0.0,0.0,7,0.9839773007648656,44.82508138020833,-73.16429850260417,-0.5527420206,9.5617191096,-0.681954441,-0.5240281494,9.533005238400001,-0.3804587934,0.0195476254,-0.1075119397,0.090407767475,0.1111771194625,0.1075119397,0.13805510438750002,-0.19952,-0.19604,-0.57072,-0.50866,-0.11484,-0.05684,-0.538385085,9.547362174,-0.5312066172000001,0.06536237243125,0.0,0.11423143593125001,-0.35409,-0.15544,-0.31378,-8.47296,0.0,963.56384,55.515
76902,6741839,0,-75,1334,-101,24,-89,71,-344,-338,-984,-82,1329,-47,85,84,109,-877,-198,-98,-224,0,32752,54.94,0.9781495188749076,56.07,0.987979274611399,4449.5048828125,-7309.85791015625,38.09999847412109,7.810024738311768,0,0.0,0.0,0.0,0.0,0.0,0.0,0.0,0.0,0.0,0.0,0.0,0.0,7,0.9830643967431534,44.82508138020833,-73.16429850260417,-0.538385085,9.5760760452,-0.7250252478,-0.5886343596,9.5401837062,-0.3373879866,0.0293214381,-0.1087336662875,0.0867425877125,0.1038467599375,0.10262503335,0.13316819803750002,-0.19952,-0.19604,-0.57072,-0.50866,-0.11484,-0.05684,-0.5635097223000001,9.5581298757,-0.5312066172000001,0.06658409901875001,-0.0030543164687499985,0.109955392875,-0.35409,-0.15544,-0.31378,-6.59008,0.0,963.56384,55.504999999999995
76903,6741855,0,-67,1333,-94,25,-100,72,-344,-338,-984,-75,1330,-59,92,88,111,-877,-198,-98,-256,0,32752,54.93,0.978366641993585,56.07,0.9880483592400692,4449.5048828125,-7309.85791015625,38.09999847412109,7.843259334564209,0,0.0,0.0,0.0,0.0,0.0,0.0,0.0,0.0,0.0,0.0,0.0,0.0,7,0.983207500616827,44.82508138020833,-73.16429850260417,-0.4809573426,9.5688975774,-0.6747759732,-0.538385085,9.547362174,-0.4235296002,0.030543164687500002,-0.12217265875000001,0.0879643143,0.11239884605,0.1075119397,0.13561165121250002,-0.19952,-0.19604,-0.57072,-0.50866,-0.11484,-0.05684,-0.5096712138,9.5581298757,-0.5491527867,0.07147100536875,-0.007330359525000003,0.11178798275625002,-0.35409,-0.15544,-0.31378,-7.53152,0.0,963.56384,55.5
76904,6741870,0,-67,1327,-101,19,-84,79,-344,-338,-984,-78,1323,-55,97,81,113,-877,-198,-98,-288,0,32752,54.95,0.9780508265482358,56.06,0.9879496669133976,4449.5048828125,-7309.85791015625,38.09999847412109,7.829965591430664,0,0.0,0.0,0.0,0.0,0.0,0.0,0.0,0.0,0.0,0.0,0.0,0.0,7,0.9830002467308168,44.82508138020833,-73.16429850260417,-0.4809573426,9.5258267706,-0.7250252478,-0.5599204884,9.497112899400001,-0.394815729,0.023212805162500003,-0.10262503335,0.09651640041250001,0.11850747898750001,0.09895985358750001,0.13805510438750002,-0.19952,-0.19604,-0.57072,-0.50866,-0.11484,-0.05684,-0.5204389155,9.511469835,-0.5599204884,0.07086014207500001,-0.0018325898812499991,0.11728575240000001,-0.35409,-0.15544,-0.31378,-8.47296,0.0,963.56384,55.505
76905,6741886,0,-67,1331,-101,11,-79,77,-344,-338,-984,-79,1329,-55,99,86,109,-865,-171,-94,-160,0,32752,54.95,0.9782482112015792,56.07,0.987920059215396,4449.5048828125,-7309.85791015625,38.09999847412109,7.834396839141846,0,0.0,0.0,0.0,0.0,0.0,0.0,0.0,0.0,0.0,0.0,0.0,0.0,7,0.9830841352084876,44.82508138020833,-73.16429850260417,-0.4809573426,9.554540641800001,-0.7250252478,-0.5670989562000001,9.5401837062,-0.394815729,0.0134389924625,-0.09651640041250001,0.09407294723750001,0.12095093216250001,0.105068486525,0.13316819803750002,-0.19952,-0.19604,-0.57072,-0.5017,-0.09918,-0.05452,-0.5240281494000001,9.547362174,-0.5599204884,0.06719496231250001,0.004276043056249998,0.11362057263750001,-0.35061000000000003,-0.14761,-0.31262,-4.7072,0.0,963.56384,55.510000000000005
76906,6741901,0,-78,1328,-99,6,-77,76,-344,-338,-984,-78,1329,-58,85,98,116,-865,-171,-94,-224,0,32752,54.94,0.9782778188995804,56.08,0.989962990377498,4449.5048828125,-7309.85791015625,38.09999847412109,7.800054550170898,0,0.0,0.0,0.0,0.0,0.0,0.0,0.0,0.0,0.0,0.0,0.0,0.0,7,0.9841204046385392,44.82508138020833,-73.16429850260417,-0.5599204884,9.533005238400001,-0.7106683122,-0.5599204884,9.5401837062,-0.4163511324,0.007330359525,-0.09407294723750001,0.09285122065000001,0.1038467599375,0.11972920557500001,0.14172028415000001,-0.19952,-0.19604,-0.57072,-0.5017,-0.09918,-0.05452,-0.5599204884,9.536594472300001,-0.5635097223000001,0.05558855973125,0.01282812916875,0.11728575240000001,-0.35061000000000003,-0.14761,-0.31262,-6.59008,0.0,963.56384,55.51
76907,6741916,0,-74,1325,-101,19,-80,75,-344,-338,-984,-70,1329,-55,97,96,114,-865,-171,-94,-208,0,32752,54.94,0.9783172958302492,56.07,0.988156920799408,4449.5048828125,-7309.85791015625,38.09999847412109,7.828857421875,0,0.0,0.0,0.0,0.0,0.0,0.0,0.0,0.0,0.0,0.0,0.0,0.0,7,0.9832371083148286,44.82508138020833,-73.16429850260417,-0.5312066172000001,9.511469835,-0.7250252478,-0.502492746,9.5401837062,-0.394815729,0.023212805162500003,-0.09773812700000001,0.09162949406250001,0.11850747898750001,0.1172857524,0.13927683097500002,-0.19952,-0.19604,-0.57072,-0.5017,-0.09918,-0.05452,-0.5168496816000001,9.5258267706,-0.5599204884,0.07086014207500001,0.009773812699999995,0.11545316251875001,-0.35061000000000003,-0.14761,-0.31262,-6.11936,0.0,963.56384,55.504999999999995
76908,6741932,0,-76,1337,-103,22,-76,81,-344,-338,-984,-72,1328,-55,105,104,115,-865,-171,-94,-112,0,32752,54.94,0.9781495188749076,56.07,0.9878707130520602,4449.5048828125,-7309.85791015625,38.09999847412109,7.822210788726807,0,0.0,0.0,0.0,0.0,0.0,0.0,0.0,0.0,0.0,0.0,0.0,0.0,7,0.9830101159634839,44.82508138020833,-73.16429850260417,-0.5455635528,9.5976114486,-0.7393821834000001,-0.5168496816,9.533005238400001,-0.394815729,0.026877984925,-0.09285122065000001,0.09895985358750001,0.1282812916875,0.1270595651,0.14049855756250001,-0.19952,-0.19604,-0.57072,-0.5017,-0.09918,-0.05452,-0.5312066172000001,9.5653083435,-0.5670989562000001,0.07757963830625,0.01710417222499999,0.11972920557500001,-0.35061000000000003,-0.14761,-0.31262,-3.29504,0.0,963.56384,55.504999999999995
76909,6741947,0,-64,1331,-95,32,-81,75,-345,-297,-988,-72,1329,-54,94,97,115,-865,-171,-94,-256,0,32752,54.95,0.9781100419442388,56.08,0.989962990377498,4449.5048828125,-7309.85791015625,38.09999847412109,7.820549011230469,0,0.0,0.0,0.0,0.0,0.0,0.0,0.0,0.0,0.0,0.0,0.0,0.0,7,0.9840365161608684,44.82508138020833,-73.16429850260417,-0.4594219392,9.554540641800001,-0.681954441,-0.5168496816,9.5401837062,-0.3876372612,0.0390952508,-0.09895985358750001,0.09162949406250001,0.114842299225,0.11850747898750001,0.14049855756250001,-0.2001,-0.17226,-0.57304,-0.5017,-0.09918,-0.05452,-0.4881358104,9.547362174,-0.5347958511,0.0769687750125,0.009773812700000002,0.11606402581250001,-0.3509,-0.13572,-0.31378,-7.53152,0.0,963.56384,55.515
76910,6741962,0,-71,1332,-94,22,-89,76,-345,-297,-988,-77,1336,-54,103,98,111,-865,-171,-94,-224,0,32752,54.95,0.9779126572908956,56.07,0.9879990130767332,4449.5048828125,-7309.85791015625,38.09999847412109,7.821103096008301,0,0.0,0.0,0.0,0.0,0.0,0.0,0.0,0.0,0.0,0.0,0.0,0.0,7,0.9829558351838144,44.82508138020833,-73.16429850260417,-0.5096712138,9.5617191096,-0.6747759732,-0.5527420206,9.590432980800001,-0.3876372612,0.026877984925,-0.1087336662875,0.09285122065000001,0.1258378385125,0.11972920557500001,0.13561165121250002,-0.2001,-0.17226,-0.57304,-0.5017,-0.09918,-0.05452,-0.5312066172000001,9.5760760452,-0.5312066172000001,0.07635791171875,0.005497769643750004,0.11423143593125001,-0.3509,-0.13572,-0.31378,-6.59008,0.0,963.56384,55.510000000000005
76911,6741978,0,-68,1330,-97,15,-91,75,-345,-297,-988,-75,1331,-50,93,89,116,-865,-171,-94,-160,0,32752,54.95,0.97807056501357,56.07,0.9879990130767332,4449.5048828125,-7309.85791015625,38.09999847412109,7.816117763519287,0,0.0,0.0,0.0,0.0,0.0,0.0,0.0,0.0,0.0,0.0,0.0,0.0,7,0.9830347890451516,44.82508138020833,-73.16429850260417,-0.48813581040000004,9.547362174,-0.6963113766,-0.538385085,9.554540641800001,-0.35892339,0.0183258988125,-0.1111771194625,0.09162949406250001,0.1136205726375,0.1087336662875,0.14172028415000001,-0.2001,-0.17226,-0.57304,-0.5017,-0.09918,-0.05452,-0.5132604477,9.550951407900001,-0.5276173833,0.065973235725,-0.0012217265874999994,0.11667488910625001,-0.3509,-0.13572,-0.31378,-4.7072,0.0,963.56384,55.510000000000005
76912,6741993,0,-69,1333,-102,20,-93,74,-345,-297,-988,-71,1335,-59,94,89,114,-865,-171,-94,-288,0,32752,54.95,0.9780113496175672,56.07,0.988038490007402,4449.5048828125,-7309.85791015625,38.09999847412109,7.8116865158081055,0,0.0,0.0,0.0,0.0,0.0,0.0,0.0,0.0,0.0,0.0,0.0,0.0,7,0.9830249198124845,44.82508138020833,-73.16429850260417,-0.4953142782,9.5688975774,-0.7322037156000001,-0.5096712138,9.583254513,-0.4235296002,0.024434531750000002,-0.1136205726375,0.090407767475,0.114842299225,0.1087336662875,0.13927683097500002,-0.2001,-0.17226,-0.57304,-0.5017,-0.09918,-0.05452,-0.502492746,9.5760760452,-0.5778666579,0.0696384154875,-0.002443453174999999,0.114842299225,-0.3509,-0.13572,-0.31378,-8.47296,0.0,963.56384,55.510000000000005
76913,6742009,0,-74,1325,-100,22,-83,78,-345,-297,-988,-77,1330,-56,90,88,120,-865,-171,-94,-224,0,32752,54.94,0.9780409573155688,56.07,0.988038490007402,4449.5048828125,-7309.85791015625,38.09999847412109,7.833288669586182,0,0.0,0.0,0.0,0.0,0.0,0.0,0.0,0.0,0.0,0.0,0.0,0.0,7,0.9830397236614854,44.82508138020833,-73.16429850260417,-0.5312066172000001,9.511469835,-0.71784678,-0.5527420206,9.547362174,-0.40199419680000004,0.026877984925,-0.1014033067625,0.09529467382500001,0.109955392875,0.1075119397,0.1466071905,-0.2001,-0.17226,-0.57304,-0.5017,-0.09918,-0.05452,-0.5419743189,9.5294160045,-0.5599204884,0.0684166889,0.0030543164687499985,0.12095093216250001,-0.3509,-0.13572,-0.31378,-6.59008,0.0,963.56384,55.504999999999995
76914,6742024,0,-66,1333,-100,29,-86,79,-345,-297,-988,-75,1329,-58,99,106,108,-865,-171,-94,-192,0,32752,54.95,0.978307426597582,56.07,0.988038490007402,4449.5048828125,-7309.85791015625,38.09999847412109,7.820549011230469,0,0.0,0.0,0.0,0.0,0.0,0.0,0.0,0.0,0.0,0.0,0.0,0.0,7,0.983172958302492,44.82508138020833,-73.16429850260417,-0.4737788748,9.5688975774,-0.71784678,-0.538385085,9.5401837062,-0.4163511324,0.035430071037500004,-0.105068486525,0.09651640041250001,0.12095093216250001,0.129503018275,0.13194647145000002,-0.2001,-0.17226,-0.57304,-0.5017,-0.09918,-0.05452,-0.5060819799,9.5545406418,-0.5670989562,0.0781905016,0.012217265874999994,0.11423143593125001,-0.3509,-0.13572,-0.31378,-5.64864,0.0,963.56384,55.510000000000005
76915,6742039,0,-70,1333,-99,27,-79,74,-345,-297,-988,-74,1331,-56,99,88,116,-865,-171,-94,-336,-224,32752,54.95,0.9780804342462374,56.06,0.9880680977054034,4449.5048828125,-7309.85791015625,38.09999847412109,7.82719612121582,0,0.0,0.0,0.0,0.0,0.0,0.0,0.0,0.0,0.0,0.0,0.0,0.0,7,0.9830742659758204,44.82508138020833,-73.16429850260417,-0.502492746,9.5688975774,-0.7106683122,-0.5312066172000001,9.554540641800001,-0.40199419680000004,0.032986617862500005,-0.09651640041250001,0.090407767475,0.12095093216250001,0.1075119397,0.14172028415000001,-0.2001,-0.17226,-0.57304,-0.5017,-0.09918,-0.05452,-0.5168496816000001,9.5617191096,-0.5563312545000001,0.0769687750125,0.005497769643749997,0.1160640258125,-0.3509,-0.13572,-0.31378,-9.88512,-6.59008,963.56384,55.505
76916,6742055,0,-71,1335,-104,27,-76,78,-345,-297,-988,-69,1333,-60,98,104,121,-865,-171,-94,-336,0,32752,54.95,0.9780113496175672,56.08,0.9898544288181594,4449.5048828125,-7309.85791015625,38.09999847412109,7.829965591430664,0,0.0,0.0,0.0,0.0,0.0,0.0,0.0,0.0,0.0,0.0,0.0,0.0,7,0.9839328892178634,44.82508138020833,-73.16429850260417,-0.5096712138,9.583254513,-0.7465606512,-0.4953142782,9.5688975774,-0.430708068,0.032986617862500005,-0.09285122065000001,0.09529467382500001,0.11972920557500001,0.1270595651,0.1478289170875,-0.2001,-0.17226,-0.57304,-0.5017,-0.09918,-0.05452,-0.502492746,9.5760760452,-0.5886343596,0.07635791171875,0.01710417222499999,0.12156179545625001,-0.3509,-0.13572,-0.31378,-9.88512,0.0,963.56384,55.515
76917,6742070,0,-71,1339,-103,16,-81,78,-345,-297,-988,-73,1331,-63,93,110,114,-865,-171,-94,-272,0,32752,54.95,0.9780310880829016,56.08,0.9898346903528252,4449.5048828125,-7309.85791015625,38.09999847412109,7.829965591430664,0,0.0,0.0,0.0,0.0,0.0,0.0,0.0,0.0,0.0,0.0,0.0,0.0,7,0.9839328892178634,44.82508138020833,-73.16429850260417,-0.5096712138,9.6119683842,-0.7393821834000001,-0.5240281494,9.554540641800001,-0.45224347140000004,0.0195476254,-0.09895985358750001,0.09529467382500001,0.1136205726375,0.13438992462500002,0.13927683097500002,-0.2001,-0.17226,-0.57304,-0.5017,-0.09918,-0.05452,-0.5168496816,9.583254513,-0.5958128274000001,0.06658409901875,0.017715035518750005,0.11728575240000001,-0.3509,-0.13572,-0.31378,-8.00224,0.0,963.56384,55.515
76918,6742086,0,-71,1330,-106,28,-76,79,-345,-297,-988,-68,1331,-58,87,102,117,-872,-166,-83,-272,0,32752,54.95,0.978179126572909,56.07,0.988107574636072,4449.5048828125,-7309.85791015625,38.09999847412109,7.817779541015625,0,0.0,0.0,0.0,0.0,0.0,0.0,0.0,0.0,0.0,0.0,0.0,0.0,7,0.9831433506044904,44.82508138020833,-73.16429850260417,-0.5096712138,9.547362174,-0.7609175868,-0.48813581040000004,9.554540641800001,-0.4163511324,0.034208344450000004,-0.09285122065000001,0.09651640041250001,0.1062902131125,0.12461611192500001,0.1429420107375,-0.2001,-0.17226,-0.57304,-0.50576,-0.09628,-0.04814,-0.49890351210000006,9.550951407900001,-0.5886343596,0.07024927878125001,0.0158824456375,0.11972920557500001,-0.35292999999999997,-0.13427,-0.31059,-8.00224,0.0,963.56384,55.510000000000005
76919,6742101,0,-65,1326,-97,29,-74,79,-345,-297,-988,-69,1331,-49,96,100,118,-872,-166,-83,-224,0,32752,54.93,0.978179126572909,56.06,0.9881766592647422,4449.5048828125,-7309.85791015625,38.09999847412109,7.826642036437988,0,0.0,0.0,0.0,0.0,0.0,0.0,0.0,0.0,0.0,0.0,0.0,0.0,7,0.9831778929188255,44.82508138020833,-73.16429850260417,-0.466600407,9.5186483028,-0.6963113766,-0.4953142782,9.554540641800001,-0.35174492220000003,0.035430071037500004,-0.090407767475,0.09651640041250001,0.1172857524,0.12217265875000001,0.144163737325,-0.2001,-0.17226,-0.57304,-0.50576,-0.09628,-0.04814,-0.4809573426,9.536594472300001,-0.5240281494,0.07635791171875,0.015882445637500006,0.12034006886875001,-0.35292999999999997,-0.13427,-0.31059,-6.59008,0.0,963.56384,55.495000000000005
76920,6742116,0,-69,1330,-107,31,-83,76,-345,-297,-988,-75,1332,-57,107,93,121,-872,-166,-83,-256,0,32752,54.94,0.9782087342709104,56.06,0.9880680977054034,4449.5048828125,-7309.85791015625,38.09999847412109,7.829965591430664,0,0.0,0.0,0.0,0.0,0.0,0.0,0.0,0.0,0.0,0.0,0.0,0.0,7,0.9831384159881569,44.82508138020833,-73.16429850260417,-0.4953142782,9.547362174,-0.7680960546000001,-0.538385085,9.5617191096,-0.4091726646,0.0378735242125,-0.1014033067625,0.09285122065000001,0.13072474486250002,0.1136205726375,0.1478289170875,-0.2001,-0.17226,-0.57304,-0.50576,-0.09628,-0.04814,-0.5168496816,9.5545406418,-0.5886343596000001,0.08429913453750001,0.006108632937499997,0.12034006886875001,-0.35292999999999997,-0.13427,-0.31059,-7.53152,0.0,963.56384,55.5
76921,6742132,0,-68,1328,-104,27,-84,76,-345,-297,-988,-70,1332,-56,96,88,116,-872,-166,-83,-304,0,32752,54.95,0.9780804342462374,56.07,0.988107574636072,4449.5048828125,-7309.85791015625,38.09999847412109,7.816117763519287,0,0.0,0.0,0.0,0.0,0.0,0.0,0.0,0.0,0.0,0.0,0.0,0.0,7,0.9830940044411547,44.82508138020833,-73.16429850260417,-0.48813581040000004,9.533005238400001,-0.7465606512,-0.502492746,9.5617191096,-0.40199419680000004,0.032986617862500005,-0.10262503335,0.09285122065000001,0.1172857524,0.1075119397,0.14172028415000001,-0.2001,-0.17226,-0.57304,-0.50576,-0.09628,-0.04814,-0.49531427820000007,9.547362174,-0.574277424,0.07513618513125,0.002443453174999999,0.11728575240000001,-0.35292999999999997,-0.13427,-0.31059,-8.94368,0.0,963.56384,55.510000000000005
76922,6742147,0,-63,1327,-96,28,-71,77,-349,-319,-988,-74,1330,-51,92,98,119,-872,-166,-83,-192,0,32752,54.94,0.9781692573402418,56.07,0.9880483592400692,4449.5048828125,-7309.85791015625,38.09999847412109,7.829411506652832,0,0.0,0.0,0.0,0.0,0.0,0.0,0.0,0.0,0.0,0.0,0.0,0.0,7,0.9831088082901556,44.82508138020833,-73.16429850260417,-0.45224347140000004,9.5258267706,-0.6891329088,-0.5312066172000001,9.547362174,-0.36610185780000004,0.034208344450000004,-0.0867425877125,0.09407294723750001,0.11239884605,0.11972920557500001,0.1453854639125,-0.20242,-0.18502,-0.57304,-0.50576,-0.09628,-0.04814,-0.4917250443000001,9.5365944723,-0.5276173833,0.07330359525,0.016493308931250006,0.11972920557500001,-0.35409,-0.14065,-0.31059,-5.64864,0.0,963.56384,55.504999999999995
76923,6742163,0,-64,1332,-98,24,-76,92,-349,-319,-988,-74,1328,-57,104,95,124,-872,-166,-83,-272,0,32752,54.94,0.9779422649888972,56.07,0.987979274611399,4449.5048828125,-7309.85791015625,38.09999847412109,7.839935779571533,0,0.0,0.0,0.0,0.0,0.0,0.0,0.0,0.0,0.0,0.0,0.0,0.0,7,0.9829607698001481,44.82508138020833,-73.16429850260417,-0.4594219392,9.5617191096,-0.7034898444000001,-0.5312066172000001,9.533005238400001,-0.4091726646,0.0293214381,-0.09285122065000001,0.11239884605,0.1270595651,0.1160640258125,0.15149409685,-0.20242,-0.18502,-0.57304,-0.50576,-0.09628,-0.04814,-0.49531427820000007,9.547362174,-0.5563312545000001,0.07819050159999999,0.011606402581249994,0.13194647145,-0.35409,-0.14065,-0.31059,-8.00224,0.0,963.56384,55.504999999999995
