Metadata: 
[0,	0,	0,	0,	0,	0,	0,	0,	
0,	0,	0,	0,	0,	0,	0,	0,	
0,	0,	0,	0,	0,	0,	0,	FF,	
FF,	FF,	FF,	FF,	FF,	FF,	FF,	FF,	
FF,	FF,	FF,	FF,	FF,	FF,	FF,	FF,	
FF,	FF,	FF,	FF,	FF,	FF,	FF,	FF,	
FF,	FF,	FF,	FF,	FF,	FF,	FF,	FF,	
FF,	FF,	FF,	FF,	FF,	FF,	FF,	FF]

Location,state,time,pressure,alt,avgAltitude,velocity,temp,ax,ay,az,wx,wy,wz,cutSense1,cutSense2
0, 0, 0, 0, 0.00, 0.00, 0.00, nan, nan, nan, nan, nan, nan, nan, 65535, 65535
262144, 0, 3483, 100517, -0.03, -0.01, 2.03, 11.61, 0.88, 0.60, 0.00, 23.66, -11.28, 16.74, 231, 228
262208, 1, 3504, 100518, -0.12, 0.01, 2.02, 11.52, 0.84, 0.49, -0.05, 47.07, -5.73, 16.43, 231, 228
262272, 1, 3524, 100515, 0.14, 0.07, 2.01, 11.42, 0.78, 0.42, 0.13, 62.74, -20.37, 7.32, 230, 228
262336, 1, 3545, 100523, -0.53, 0.01, 1.96, 11.34, 0.84, 0.53, 0.03, 56.22, -31.77, 4.63, 230, 228
262400, 1, 3565, 100525, -0.70, -0.07, 1.91, 11.25, 0.87, 0.55, -0.03, 59.30, -24.27, 5.03, 231, 228
262464, 1, 3586, 100521, -0.36, -0.08, 1.91, 11.19, 0.93, 0.61, 0.01, 45.30, -12.96, 24.12, 230, 228
262528, 1, 3606, 100529, -1.04, -0.20, 1.85, 11.11, 0.80, 0.71, 0.23, -18.63, -11.80, 47.10, 231, 228
262592, 1, 3627, 100524, -0.62, -0.23, 1.84, 11.05, 0.92, 0.11, -0.58, -64.51, 8.35, 61.13, 231, 228
262656, 1, 3647, 100522, -0.45, -0.23, 1.79, 10.99, 0.72, 0.50, 0.04, 39.57, 9.82, 56.62, 231, 229
262720, 1, 3667, 100528, -0.95, -0.31, 1.72, 10.94, 0.79, 0.42, -0.00, 39.42, -10.03, 30.12, 231, 228
262784, 1, 3688, 100531, -1.20, -0.43, 1.64, 10.88, 0.84, 0.48, 0.03, 26.55, -17.23, 5.46, 231, 228
262848, 1, 3708, 100525, -0.70, -0.44, 1.64, 10.83, 0.73, 0.58, -0.61, 49.12, -8.38, -6.13, 231, 228
262912, 1, 3729, 100525, -0.70, -0.45, 1.65, 10.78, 0.93, 0.69, -0.02, 38.02, -14.57, 18.81, 231, 228
262976, 1, 3749, 100530, -1.12, -0.53, 1.60, 10.74, 0.91, 0.50, -0.12, -2.10, -4.91, 28.90, 231, 228
263040, 1, 3770, 100531, -1.20, -0.61, 1.55, 10.70, 0.95, 0.37, -0.14, 24.63, 14.42, 46.04, 231, 228
263104, 1, 3790, 100531, -1.20, -0.68, 1.50, 10.68, 0.91, 0.38, -0.12, 41.65, 18.35, 66.13, 231, 228
263168, 1, 3811, 100530, -1.12, -0.72, 1.46, 10.65, 0.87, 0.39, -0.09, 46.89, 21.62, 64.97, 231, 228
263232, 1, 3831, 100525, -0.70, -0.69, 1.46, 10.61, 0.87, 0.39, -0.22, 68.26, 15.64, 45.12, 231, 228
263296, 1, 3852, 100529, -1.04, -0.72, 1.47, 10.58, 0.69, 0.71, 0.70, 13.08, -25.30, 10.91, 231, 228
263360, 1, 3872, 100532, -1.29, -0.78, 1.40, 10.56, 0.81, 0.08, -0.25, -103.48, -24.15, -22.35, 231, 228
263424, 1, 3893, 100531, -1.20, -0.82, 1.37, 10.54, 0.95, 0.34, -0.02, -7.01, 2.77, -19.24, 231, 228
263488, 1, 3913, 100532, -1.29, -0.87, 1.35, 10.51, 0.99, 0.48, -0.06, -40.30, -3.20, -9.39, 231, 228
263552, 1, 3934, 100527, -0.87, -0.85, 1.37, 10.50, 1.02, 0.40, -0.26, -19.73, 18.14, 9.63, 231, 229
263616, 1, 3954, 100533, -1.37, -0.91, 1.33, 10.48, 0.85, 0.47, -0.09, -6.40, -1.52, 22.04, 231, 228
263680, 1, 3975, 100532, -1.29, -0.94, 1.27, 10.46, 0.75, 0.44, -0.07, -15.24, -12.90, 3.26, 231, 228
263744, 1, 3995, 100537, -1.71, -1.05, 1.20, 10.43, 0.84, 0.43, -0.08, -29.85, -29.76, -14.48, 230, 228
263808, 1, 4016, 100532, -1.29, -1.06, 1.19, 10.42, 1.00, 0.33, -0.14, -16.71, -19.79, -14.66, 231, 229
263872, 1, 4036, 100535, -1.54, -1.12, 1.15, 10.40, 0.90, 0.35, -0.11, -1.95, -7.80, 0.21, 231, 228
263936, 1, 4057, 100529, -1.04, -1.08, 1.15, 10.40, 0.86, 0.40, -0.09, 3.57, 1.43, 1.62, 231, 228
264000, 1, 4077, 100532, -1.29, -1.09, 1.11, 10.39, 0.81, 0.39, -0.07, 2.80, 11.16, 4.48, 231, 228
264064, 1, 4098, 100527, -0.87, -1.03, 1.09, 10.37, 0.73, 0.35, -0.08, 2.90, 4.12, 9.18, 231, 228
264128, 1, 4118, 100529, -1.04, -1.01, 1.08, 10.36, 0.87, 0.31, -0.13, 3.81, 0.70, 20.12, 231, 229
264192, 1, 4139, 100537, -1.71, -1.10, 1.00, 10.35, 0.78, 0.41, -0.09, 8.29, -10.06, 24.45, 231, 229
264256, 1, 4159, 100531, -1.20, -1.10, 0.97, 10.33, 0.82, 0.37, -0.15, 2.71, -22.84, 23.11, 231, 228
264320, 1, 4179, 100529, -1.04, -1.07, 0.97, 10.32, 0.85, 0.35, -0.22, 2.50, -23.02, 16.07, 231, 228
264384, 1, 4200, 100537, -1.71, -1.16, 0.90, 10.32, 0.81, 0.37, -0.21, 9.45, -28.69, 15.46, 231, 228
264448, 1, 4220, 100535, -1.54, -1.20, 0.96, 10.31, 1.08, 0.75, -0.66, -15.88, 8.93, 32.96, 229, 227
264512, 1, 4241, 100530, -1.12, -1.17, 0.96, 10.30, 0.86, 0.41, -0.19, -15.18, 18.60, 34.82, 229, 226
264576, 1, 4261, 100536, -1.63, -1.23, 0.92, 10.29, 0.88, 0.37, -0.25, -24.27, 19.94, 36.55, 229, 226
264640, 1, 4282, 100538, -1.79, -1.30, 0.86, 10.28, 0.82, 0.38, -0.26, -13.38, 23.29, 30.40, 229, 227
264704, 1, 4302, 100533, -1.37, -1.30, 0.84, 10.27, 0.82, 0.36, -0.24, -5.82, 13.81, 16.89, 229, 226
264768, 1, 4323, 100528, -0.95, -1.22, 0.83, 10.26, 0.75, 0.30, -0.19, 7.29, 10.49, -3.17, 229, 226
264832, 1, 4343, 100532, -1.29, -1.22, 0.82, 10.27, 0.86, 0.31, -0.18, 18.93, 3.54, -34.27, 229, 227
264896, 1, 4364, 100526, -0.79, -1.13, 0.87, 10.26, 0.97, 0.47, -0.07, 40.34, 4.05, -34.21, 229, 227
264960, 1, 4384, 100532, -1.29, -1.14, 0.89, 10.25, 1.04, 0.53, -0.04, 3.14, 9.48, -21.49, 229, 227
265024, 1, 4405, 100526, -0.79, -1.06, 0.93, 10.24, 0.96, 0.51, 0.02, -41.22, 32.53, -3.17, 229, 226
265088, 1, 4425, 100529, -1.04, -1.04, 0.96, 10.24, 1.06, 0.43, -0.11, -47.56, 53.38, 9.88, 229, 227
265152, 1, 4446, 100529, -1.04, -1.02, 1.00, 10.23, 1.12, 0.34, -0.18, -4.18, 76.43, 25.49, 229, 226
265216, 1, 4466, 100529, -1.04, -1.00, 1.05, 10.23, 1.15, 0.45, 0.19, -37.77, 62.77, 27.13, 229, 227
265280, 1, 4487, 100530, -1.12, -1.00, 1.07, 10.22, 1.07, 0.42, 0.04, -50.70, 61.55, 32.84, 229, 227
265344, 1, 4507, 100529, -1.04, -0.98, 1.07, 10.22, 0.98, 0.38, -0.02, -52.80, 62.01, 47.29, 229, 227
265408, 1, 4528, 100524, -0.62, -0.90, 1.12, 10.22, 1.02, 0.29, 0.11, -22.68, 54.18, 54.42, 229, 227
265472, 1, 4548, 100525, -0.70, -0.84, 1.13, 10.22, 0.93, 0.14, 0.22, -27.65, 35.76, 59.02, 230, 228
265536, 1, 4569, 100524, -0.62, -0.78, 1.16, 10.21, 1.01, 0.18, 0.28, -15.06, 20.06, 42.84, 230, 228
265600, 1, 4589, 100520, -0.28, -0.68, 1.22, 10.20, 1.03, 0.21, 0.28, -4.02, 4.33, 34.54, 230, 228
265664, 1, 4610, 100528, -0.95, -0.70, 1.22, 10.20, 1.08, 0.25, 0.25, -3.26, -6.31, 30.67, 230, 228
265728, 1, 4630, 100524, -0.62, -0.66, 1.25, 10.19, 1.07, 0.24, 0.25, -8.48, -11.31, 29.48, 230, 228
265792, 1, 4651, 100525, -0.70, -0.64, 1.27, 10.19, 1.06, 0.21, 0.25, -14.94, -14.24, 25.70, 230, 228
265856, 1, 4671, 100526, -0.79, -0.64, 1.27, 10.19, 1.02, 0.16, 0.21, -9.91, -20.88, 18.90, 230, 228
265920, 1, 4691, 100531, -1.20, -0.71, 1.22, 10.19, 0.95, 0.15, 0.19, -14.94, -27.07, 11.40, 231, 228
265984, 1, 4712, 100526, -0.79, -0.70, 1.20, 10.18, 0.92, 0.14, 0.11, -15.46, -30.98, 8.75, 230, 228
266048, 1, 4732, 100526, -0.79, -0.69, 1.17, 10.18, 0.86, 0.14, 0.08, -15.76, -30.55, 8.87, 231, 228
266112, 1, 4753, 100521, -0.36, -0.61, 1.16, 10.18, 0.83, 0.13, 0.02, -10.76, -29.42, 9.91, 230, 228
266176, 1, 4773, 100527, -0.87, -0.63, 1.10, 10.17, 0.80, 0.16, -0.01, -6.37, -31.77, 11.04, 231, 228
266240, 1, 4794, 100526, -0.79, -0.63, 1.07, 10.18, 0.87, 0.24, -0.06, -1.10, -32.04, 12.47, 230, 228
266304, 1, 4814, 100527, -0.87, -0.65, 1.05, 10.17, 0.92, 0.28, -0.09, -3.66, -24.91, 21.86, 230, 228
266368, 1, 4835, 100525, -0.70, -0.64, 1.05, 10.17, 0.97, 0.31, -0.16, -7.90, -10.61, 33.72, 230, 227
266432, 1, 4855, 100528, -0.95, -0.67, 1.03, 10.17, 0.96, 0.31, -0.13, -19.15, 5.70, 47.41, 230, 227
266496, 1, 4876, 100519, -0.20, -0.57, 1.06, 10.17, 0.95, 0.25, -0.21, -24.88, 24.09, 61.10, 230, 227
266560, 1, 4896, 100524, -0.62, -0.56, 1.06, 10.17, 0.98, 0.15, -0.03, -20.82, 28.96, 66.52, 230, 228
266624, 1, 4917, 100528, -0.95, -0.60, 1.03, 10.16, 1.02, 0.03, 0.04, -2.47, 23.60, 50.40, 230, 228
266688, 1, 4937, 100519, -0.20, -0.51, 1.06, 10.18, 0.99, 0.06, 0.03, 33.69, 30.61, 50.06, 230, 228
266752, 1, 4958, 100530, -1.12, -0.59, 1.00, 10.16, 0.95, -0.08, 0.00, 31.80, 45.79, 52.50, 230, 227
266816, 1, 4978, 100526, -0.79, -0.60, 0.97, 10.16, 0.92, 0.03, 0.11, 50.46, 64.60, 65.52, 230, 227
266880, 1, 4999, 100526, -0.79, -0.61, 0.93, 10.16, 0.86, -0.03, 0.17, 37.77, 51.89, 54.91, 230, 227
266944, 1, 5019, 100523, -0.53, -0.58, 0.94, 10.16, 1.03, -0.06, -0.01, 64.42, 61.46, 117.26, 231, 228
267008, 1, 5040, 100531, -1.20, -0.67, 0.87, 10.16, 0.87, 0.08, 0.13, 62.26, 37.20, 87.53, 229, 226
267072, 1, 5060, 100526, -0.79, -0.67, 0.88, 10.16, 1.08, 0.10, -0.09, 77.20, 39.18, 114.91, 229, 226
267136, 1, 5081, 100524, -0.62, -0.64, 0.90, 10.17, 1.06, 0.04, 0.19, 71.28, 44.76, 125.52, 229, 227
267200, 1, 5101, 100521, -0.36, -0.58, 0.96, 10.16, 1.16, 0.03, 0.21, 38.63, 57.90, 114.18, 229, 226
267264, 1, 5122, 100526, -0.79, -0.59, 0.98, 10.17, 1.20, 0.03, 0.13, 34.88, 73.90, 111.22, 229, 226
267328, 1, 5142, 100526, -0.79, -0.61, 0.99, 10.15, 1.08, -0.09, 0.21, 25.70, 87.10, 95.30, 229, 226
267392, 1, 5163, 100527, -0.87, -0.63, 0.97, 10.17, 0.94, -0.16, 0.31, 16.37, 95.82, 83.93, 229, 227
267456, 1, 5183, 100526, -0.79, -0.64, 0.94, 10.15, 0.83, -0.31, 0.33, 6.59, 95.00, 74.70, 230, 228
267520, 1, 5203, 100523, -0.53, -0.60, 0.94, 10.15, 0.71, -0.45, 0.44, 17.29, 91.01, 60.49, 231, 229
267584, 1, 5224, 100528, -0.95, -0.64, 0.93, 10.16, 1.02, -0.24, 0.33, 51.43, 69.36, 42.35, 231, 229
267648, 1, 5244, 100526, -0.79, -0.65, 0.92, 10.16, 0.88, -0.17, 0.43, 26.04, 91.71, 47.41, 231, 228
267712, 1, 5265, 100528, -0.95, -0.68, 0.86, 10.14, 0.75, -0.22, 0.25, 5.03, 106.28, 53.38, 230, 228
267776, 1, 5285, 100527, -0.87, -0.69, 0.80, 10.15, 0.66, -0.31, 0.24, 20.95, 101.16, 58.48, 230, 228
267840, 1, 5306, 100524, -0.62, -0.66, 0.76, 10.15, 0.66, -0.35, 0.32, 45.09, 102.80, 67.96, 231, 228
267904, 1, 5326, 100526, -0.79, -0.67, 0.72, 10.15, 0.63, -0.39, 0.32, 65.00, 108.93, 72.20, 230, 228
267968, 1, 5347, 100529, -1.04, -0.72, 0.70, 10.14, 0.50, -0.32, 0.87, 51.34, 80.95, 48.87, 231, 229
268032, 1, 5367, 100527, -0.87, -0.73, 0.65, 10.14, 0.57, -0.53, 0.31, 95.55, 111.86, 29.09, 231, 228
268096, 1, 5388, 100531, -1.20, -0.79, 0.57, 10.15, 0.40, -0.16, 0.65, 67.20, 156.52, 17.56, 231, 228
268160, 1, 5408, 100529, -1.04, -0.82, 0.56, 10.15, 0.28, -0.48, 0.89, 69.73, 166.04, 9.36, 231, 229
268224, 1, 5429, 100530, -1.12, -0.86, 0.65, 10.14, -0.16, -0.23, 1.53, 78.78, 115.70, -49.79, 231, 229
268288, 1, 5449, 100533, -1.37, -0.93, 0.66, 10.15, -0.21, -0.39, 1.18, 90.67, 66.10, -2.29, 231, 229
268352, 1, 5470, 100534, -1.46, -1.01, 0.61, 10.14, 0.63, -0.15, 0.69, 78.90, 150.79, -84.18, 231, 229
268416, 1, 5490, 100529, -1.04, -1.00, 0.65, 10.14, 0.81, -0.17, 0.94, 25.12, 129.70, -42.44, 231, 229
268480, 1, 5511, 100530, -1.12, -1.01, 0.72, 10.13, 0.90, -0.57, 0.85, 148.48, 20.09, -47.53, 231, 229
268544, 1, 5531, 100527, -0.87, -0.97, 0.77, 10.15, 0.58, -0.04, 1.07, 50.85, -12.38, -75.73, 231, 229
268608, 1, 5552, 100528, -0.95, -0.95, 0.81, 10.15, 0.43, -0.32, 1.02, 24.97, -2.59, -64.45, 231, 229
268672, 1, 5572, 100530, -1.12, -0.96, 0.79, 10.14, 0.70, -0.35, 0.59, -14.18, 21.34, -102.23, 231, 229
268736, 1, 5593, 100531, -1.20, -0.99, 0.79, 10.13, 0.80, 0.10, 0.73, -78.57, 36.25, -148.60, 231, 229
268800, 1, 5613, 100529, -1.04, -0.98, 0.67, 10.13, 0.24, -0.19, 0.31, 87.84, 38.23, -117.04, 231, 229
268864, 1, 5634, 100533, -1.37, -1.03, 0.62, 10.14, 0.48, 0.07, 0.79, 335.12, -97.23, -108.75, 231, 229
268928, 1, 5654, 100529, -1.04, -1.02, 0.70, 10.13, 0.56, 0.40, 1.20, 227.16, -49.45, -104.09, 231, 229
268992, 1, 5675, 100530, -1.12, -1.02, 0.78, 10.12, 0.58, 0.63, 1.15, -25.37, 56.77, -109.15, 232, 229
269056, 1, 5695, 100524, -0.62, -0.94, 0.73, 10.13, 0.55, 0.12, 0.17, -73.38, 114.73, -94.60, 231, 229
269120, 1, 5715, 100531, -1.20, -0.97, 0.67, 10.14, 0.42, 0.32, 0.58, 34.82, 130.91, -57.93, 232, 229
269184, 1, 5736, 100532, -1.29, -1.01, 0.65, 10.14, 0.37, 0.44, 0.88, -25.06, 141.10, -42.50, 231, 229
269248, 1, 5756, 100533, -1.37, -1.06, 0.62, 10.14, 0.37, 0.43, 0.82, -76.10, 155.09, -17.84, 232, 230
269312, 1, 5777, 100527, -0.87, -1.01, 0.64, 10.12, 0.26, 0.42, 0.91, -64.24, 165.58, 18.14, 231, 229
269376, 1, 5797, 100530, -1.12, -1.02, 0.72, 10.13, 0.21, 0.51, 1.33, 10.67, 125.15, 67.96, 232, 229
269440, 1, 5818, 100530, -1.12, -1.02, 0.84, 10.14, 0.28, 0.45, 1.53, 4.54, 52.96, 102.56, 231, 229
269504, 1, 5838, 100525, -0.70, -0.95, 0.98, 10.15, 0.30, 0.35, 1.52, -71.16, -23.14, 89.91, 231, 229
269568, 1, 5859, 100530, -1.12, -0.96, 0.91, 10.15, 0.26, -0.07, 0.66, -112.99, -34.97, 58.48, 232, 229
269632, 1, 5879, 100524, -0.62, -0.88, 0.83, 10.14, 0.25, -0.14, 0.39, -46.46, 14.60, 32.41, 232, 229
269696, 1, 5900, 100527, -0.87, -0.86, 0.74, 10.14, 0.19, 0.00, 0.51, -39.76, 85.12, 23.75, 231, 229
269760, 1, 5920, 100531, -1.20, -0.91, 0.71, 10.14, 0.19, 0.35, 0.90, 6.52, 114.91, 61.22, 231, 229
269824, 1, 5941, 100526, -0.79, -0.87, 0.77, 10.14, 0.11, 0.22, 1.25, -129.45, 104.48, 94.76, 231, 229
269888, 1, 5961, 100530, -1.12, -0.90, 0.78, 10.14, -0.27, -0.32, 1.04, -208.90, 99.51, 95.67, 231, 229
269952, 1, 5982, 100528, -0.95, -0.89, 0.93, 10.14, -0.57, -0.88, 1.41, -21.04, 54.18, 52.47, 232, 229
270016, 1, 6002, 100533, -1.37, -0.95, 1.02, 10.14, 0.06, -0.50, 1.56, 21.80, -46.55, -25.64, 231, 229
270080, 1, 6023, 100527, -0.87, -0.92, 0.95, 10.13, 0.14, -0.10, 0.62, 58.32, -57.41, -68.05, 232, 229
270144, 1, 6043, 100530, -1.12, -0.93, 0.90, 10.14, 0.21, 0.21, 0.79, 58.63, -25.12, -22.62, 231, 229
270208, 1, 6064, 100528, -0.95, -0.92, 0.88, 10.15, 0.18, 0.27, 0.85, -3.35, 2.44, 3.02, 232, 229
270272, 1, 6084, 100526, -0.79, -0.88, 0.87, 10.14, 0.11, -0.05, 0.89, -22.87, 18.38, 20.30, 231, 229
270336, 1, 6105, 100532, -1.29, -0.93, 0.87, 10.14, 0.05, -0.13, 1.15, -5.70, 13.45, 9.79, 232, 229
270400, 1, 6125, 100533, -1.37, -0.99, 0.85, 10.15, 0.07, -0.14, 1.03, 0.03, -8.23, -4.02, 231, 229
270464, 1, 6146, 100532, -1.29, -1.02, 0.82, 10.14, 0.11, -0.01, 0.96, 16.71, -8.11, -7.80, 231, 229
270528, 1, 6166, 100532, -1.29, -1.05, 0.78, 10.14, 0.13, 0.05, 0.93, -1.13, -1.98, 0.12, 231, 229
270592, 1, 6187, 100531, -1.20, -1.06, 0.76, 10.15, 0.11, -0.03, 0.97, -6.89, 4.45, 4.73, 232, 229
270656, 1, 6207, 100529, -1.04, -1.04, 0.77, 10.16, 0.08, -0.08, 1.01, -2.16, 1.59, 1.89, 231, 229
270720, 1, 6227, 100535, -1.54, -1.11, 0.73, 10.14, 0.10, -0.05, 0.98, 2.87, -2.23, -1.34, 231, 229
270784, 1, 6248, 100533, -1.37, -1.14, 0.70, 10.15, 0.11, -0.02, 0.97, 0.40, -0.82, 0.00, 231, 229
270848, 1, 6268, 100531, -1.20, -1.13, 0.69, 10.16, 0.10, -0.04, 0.98, -2.90, 0.88, 1.83, 231, 229
270912, 1, 6289, 100528, -0.95, -1.09, 0.70, 10.14, 0.10, -0.05, 0.99, -0.55, -0.06, 0.61, 232, 229
270976, 1, 6309, 100531, -1.20, -1.09, 0.69, 10.15, 0.10, -0.04, 0.98, 0.73, -0.76, 0.00, 232, 229
271040, 1, 6330, 100531, -1.20, -1.10, 0.68, 10.15, 0.10, -0.03, 0.98, -0.85, 0.03, 0.82, 231, 229
271104, 1, 6350, 100530, -1.12, -1.09, 0.68, 10.16, 0.10, -0.04, 0.98, -0.46, -0.15, 0.85, 232, 229
271168, 1, 6371, 100528, -0.95, -1.05, 0.68, 10.16, 0.10, -0.04, 0.98, 0.15, -0.61, 0.37, 231, 229
271232, 1, 6391, 100526, -0.79, -0.99, 0.70, 10.17, 0.10, -0.04, 0.98, -0.61, -0.21, 0.76, 232, 229
271296, 1, 6412, 100529, -1.04, -0.99, 0.70, 10.15, 0.10, -0.04, 0.98, -0.46, -0.09, 0.64, 231, 229
271360, 1, 6432, 100531, -1.20, -1.01, 0.67, 10.15, 0.10, -0.04, 0.98, 0.15, -0.24, 0.49, 232, 229
271424, 1, 6453, 100536, -1.63, -1.10, 0.62, 10.14, 0.11, -0.03, 0.98, -0.55, -0.06, 0.58, 231, 229
271488, 1, 6473, 100530, -1.12, -1.09, 0.62, 10.16, 0.10, -0.04, 0.98, -0.52, -0.40, 0.64, 232, 229
271552, 1, 6494, 100528, -0.95, -1.05, 0.63, 10.15, 0.10, -0.04, 0.98, -0.49, -0.30, 0.67, 231, 229
271616, 1, 6514, 100529, -1.04, -1.04, 0.62, 10.16, 0.09, -0.04, 0.97, -0.49, -0.82, -0.12, 232, 229
271680, 1, 6535, 100528, -0.95, -1.01, 0.63, 10.16, 0.11, -0.04, 0.99, -0.40, 0.82, 0.73, 232, 229
271744, 1, 6555, 100529, -1.04, -1.00, 0.62, 10.14, 0.10, -0.04, 0.99, -0.64, -0.58, 0.58, 232, 230
271808, 1, 6576, 100529, -1.04, -0.99, 0.62, 10.15, 0.10, -0.04, 0.98, -0.03, -0.46, 0.76, 232, 229
271872, 1, 6596, 100534, -1.46, -1.06, 0.58, 10.15, 0.10, -0.03, 0.99, 0.09, -0.49, 0.85, 231, 229
271936, 1, 6617, 100531, -1.20, -1.07, 0.57, 10.15, 0.10, -0.04, 0.99, -0.24, -0.64, 0.58, 231, 229
272000, 1, 6637, 100528, -0.95, -1.04, 0.57, 10.16, 0.10, -0.04, 0.98, -0.52, -0.43, 0.58, 231, 229
272064, 1, 6658, 100531, -1.20, -1.06, 0.56, 10.15, 0.10, -0.04, 0.98, -0.37, -0.49, 0.67, 231, 229
272128, 1, 6678, 100529, -1.04, -1.04, 0.56, 10.15, 0.10, -0.04, 0.98, -0.18, -0.06, 0.61, 231, 229
272192, 1, 6699, 100528, -0.95, -1.01, 0.56, 10.15, 0.10, -0.04, 0.98, -0.49, -0.30, 0.79, 232, 229
272256, 1, 6719, 100527, -0.87, -0.98, 0.57, 10.14, 0.10, -0.04, 0.98, -0.40, 0.06, 0.43, 231, 229
272320, 1, 6739, 100530, -1.12, -0.99, 0.56, 10.15, 0.10, -0.04, 0.98, -0.55, -0.43, 0.67, 232, 229
272384, 1, 6760, 100534, -1.46, -1.06, 0.52, 10.15, 0.10, -0.04, 0.98, -0.15, -0.30, 0.52, 231, 229
272448, 1, 6780, 100533, -1.37, -1.10, 0.49, 10.14, 0.10, -0.04, 0.98, -0.37, -0.34, 0.55, 232, 230
272512, 1, 6801, 100534, -1.46, -1.15, 0.46, 10.14, 0.10, -0.04, 0.98, -0.43, -0.12, 0.43, 231, 229
272576, 1, 6821, 100528, -0.95, -1.11, 0.47, 10.15, 0.10, -0.04, 0.98, -0.34, -0.12, 0.58, 232, 230
272640, 1, 6842, 100532, -1.29, -1.13, 0.45, 10.15, 0.10, -0.04, 0.98, -0.55, -0.34, 0.52, 231, 229
272704, 1, 6862, 100530, -1.12, -1.12, 0.45, 10.14, 0.10, -0.04, 0.98, -0.27, -0.27, 0.70, 232, 229
272768, 1, 6883, 100524, -0.62, -1.02, 0.49, 10.15, 0.10, -0.04, 0.98, -0.73, -0.46, 0.98, 232, 229
272832, 1, 6903, 100530, -1.12, -1.03, 0.48, 10.15, 0.10, -0.04, 0.98, -0.21, -0.52, 0.37, 231, 229
272896, 1, 6924, 100535, -1.54, -1.11, 0.43, 10.14, 0.10, -0.04, 0.98, -0.12, -0.21, 0.61, 231, 229
272960, 1, 6944, 100531, -1.20, -1.11, 0.42, 10.15, 0.10, -0.04, 0.98, -0.18, -0.27, 0.67, 231, 229
273024, 1, 6965, 100528, -0.95, -1.08, 0.43, 10.14, 0.10, -0.04, 0.98, -0.12, -0.12, 0.76, 231, 229
273088, 1, 6985, 100530, -1.12, -1.08, 0.43, 10.14, 0.10, -0.04, 0.98, -0.58, -0.21, 0.34, 232, 229
273152, 1, 7006, 100532, -1.29, -1.10, 0.42, 10.14, 0.06, -0.04, 1.03, -0.95, -1.10, -0.34, 231, 229
273216, 1, 7026, 100532, -1.29, -1.13, 0.40, 10.14, 0.09, -0.04, 1.00, -0.98, -0.82, 1.16, 231, 229
273280, 1, 7047, 100530, -1.12, -1.12, 0.40, 10.13, 0.10, -0.05, 0.99, -0.95, -0.79, 1.01, 232, 229
273344, 1, 7067, 100531, -1.20, -1.12, 0.39, 10.13, 0.09, -0.04, 0.98, -0.24, -0.73, 0.30, 231, 229
273408, 1, 7088, 100532, -1.29, -1.14, 0.38, 10.14, 0.11, -0.04, 0.99, -1.68, -2.53, -0.79, 231, 229
524224, 0, 4083, 100516, -0.07, -0.04, 0.24, 10.47, 0.08, 0.50, -0.87, 1.37, -0.95, 0.70, 0, 0
524288, 1, 4104, 100517, -0.16, -0.05, 0.23, 10.36, 0.08, 0.49, -0.87, 1.83, -0.79, 0.88, 0, 0
524352, 1, 4124, 100513, 0.18, -0.01, 0.25, 10.25, 0.08, 0.49, -0.88, 1.37, -0.91, 0.61, 0, 0
524416, 1, 4145, 100515, 0.01, 0.00, 0.25, 10.15, 0.08, 0.49, -0.87, 0.88, -0.61, 0.34, 0, 0
524480, 1, 4165, 100514, 0.10, 0.02, 0.26, 10.06, 0.08, 0.50, -0.87, 0.58, -0.70, 0.24, 0, 0
524544, 1, 4186, 100518, -0.24, -0.02, 0.24, 9.96, 0.08, 0.50, -0.87, 1.31, -1.10, 0.46, 0, 0
524608, 1, 4206, 100514, 0.10, 0.01, 0.25, 9.89, 0.08, 0.49, -0.87, 2.50, -0.98, 1.04, 0, 0
524672, 1, 4227, 100519, -0.33, -0.04, 0.23, 9.79, 0.08, 0.49, -0.88, 2.53, -0.95, 1.13, 0, 0
524736, 1, 4247, 100518, -0.24, -0.07, 0.21, 9.73, 0.08, 0.49, -0.88, 1.25, -0.79, 0.52, 0, 0
524800, 1, 4268, 100514, 0.10, -0.04, 0.23, 9.65, 0.08, 0.49, -0.87, 1.10, -0.76, 0.52, 0, 0
524864, 1, 4288, 100518, -0.24, -0.07, 0.21, 9.59, 0.08, 0.49, -0.88, 0.85, -0.64, 0.52, 0, 0
524928, 1, 4308, 100521, -0.50, -0.14, 0.18, 9.53, 0.08, 0.49, -0.88, 0.09, -0.67, 0.24, 0, 0
524992, 1, 4329, 100524, -0.75, -0.24, 0.13, 9.47, 0.08, 0.49, -0.87, 0.46, -0.49, 0.30, 0, 0
525056, 1, 4349, 100521, -0.50, -0.28, 0.11, 9.44, 0.08, 0.50, -0.88, 0.46, -0.82, 0.12, 0, 0
525120, 1, 4370, 100516, -0.07, -0.24, 0.13, 9.39, 0.08, 0.50, -0.87, 0.58, -0.64, 0.30, 0, 0
525184, 1, 4390, 100516, -0.07, -0.21, 0.14, 9.34, 0.08, 0.50, -0.88, 1.31, -0.82, 0.64, 0, 0
525248, 1, 4411, 100523, -0.66, -0.28, 0.11, 9.30, 0.08, 0.49, -0.87, 1.59, -0.98, 0.70, 0, 0
525312, 1, 4431, 100521, -0.50, -0.32, 0.09, 9.27, 0.08, 0.49, -0.88, 0.91, -0.58, 0.40, 0, 0
525376, 1, 4452, 100524, -0.75, -0.39, 0.06, 9.24, 0.08, 0.49, -0.88, 0.46, -0.73, 0.21, 0, 0
525440, 1, 4472, 100520, -0.41, -0.39, 0.06, 9.19, 0.08, 0.50, -0.87, 0.40, -0.55, 0.21, 0, 0
525504, 1, 4493, 100527, -1.00, -0.49, 0.01, 9.17, 0.08, 0.49, -0.88, 0.46, -0.95, 0.40, 0, 0
525568, 1, 4513, 100524, -0.75, -0.53, -0.01, 9.15, 0.08, 0.50, -0.87, 1.25, -0.85, 0.49, 0, 0
525632, 1, 4534, 100523, -0.66, -0.55, -0.01, 9.12, 0.08, 0.49, -0.88, 2.47, -0.76, 1.16, 0, 0
525696, 1, 4554, 100519, -0.33, -0.52, 0.00, 9.09, 0.08, 0.49, -0.88, 2.01, -0.82, 0.82, 0, 0
525760, 1, 4575, 100525, -0.83, -0.57, -0.02, 9.08, 0.08, 0.49, -0.88, 1.31, -0.76, 0.61, 0, 0
525824, 1, 4595, 100523, -0.66, -0.58, -0.02, 9.05, 0.08, 0.49, -0.88, 0.79, -0.70, 0.46, 0, 0
525888, 1, 4616, 100524, -0.75, -0.61, -0.04, 9.04, 0.08, 0.49, -0.88, 0.27, -0.52, 0.09, 0, 0
525952, 1, 4636, 100522, -0.58, -0.61, -0.03, 9.01, 0.08, 0.50, -0.87, -0.55, -0.76, -0.34, 0, 0
526016, 1, 4657, 100525, -0.83, -0.65, -0.05, 8.99, 0.08, 0.50, -0.87, 1.86, -0.79, 0.85, 0, 0
526080, 1, 4677, 100529, -1.17, -0.73, -0.09, 8.98, 0.08, 0.49, -0.87, 2.16, -0.73, 0.91, 0, 0
526144, 1, 4698, 100525, -0.83, -0.75, -0.10, 8.96, 0.08, 0.49, -0.87, 2.20, -0.98, 0.76, 0, 0
526208, 1, 4718, 100525, -0.83, -0.77, -0.10, 8.95, 0.08, 0.49, -0.88, 1.74, -0.91, 0.67, 0, 0
526272, 1, 4739, 100521, -0.50, -0.72, -0.08, 8.94, 0.08, 0.49, -0.88, 0.55, -0.76, 0.40, 0, 0
526336, 1, 4759, 100527, -1.00, -0.77, -0.10, 8.92, 0.08, 0.49, -0.87, 0.64, -0.61, 0.37, 0, 0
526400, 1, 4780, 100525, -0.83, -0.78, -0.10, 8.91, 0.08, 0.50, -0.87, 1.31, -0.76, 0.55, 0, 0
526464, 1, 4800, 100523, -0.66, -0.76, -0.09, 8.89, 0.08, 0.49, -0.88, 1.86, -0.85, 0.85, 0, 0
526528, 1, 4820, 100522, -0.58, -0.74, -0.07, 8.88, 0.08, 0.50, -0.88, 1.55, -1.01, 0.64, 0, 0
526592, 1, 4841, 100520, -0.41, -0.68, -0.05, 8.88, 0.08, 0.49, -0.87, 1.83, -0.98, 0.76, 0, 0
526656, 1, 4861, 100528, -1.08, -0.75, -0.08, 8.86, 0.08, 0.49, -0.88, 2.01, -0.91, 0.91, 0, 0
526720, 1, 4882, 100525, -0.83, -0.77, -0.08, 8.85, 0.08, 0.49, -0.88, 1.89, -0.91, 0.76, 0, 0
526784, 1, 4902, 100525, -0.83, -0.78, -0.09, 8.84, 0.08, 0.49, -0.88, 1.13, -0.76, 0.37, 0, 0
526848, 1, 4923, 100525, -0.83, -0.79, -0.09, 8.83, 0.08, 0.49, -0.88, 0.46, -0.64, 0.21, 0, 0
526912, 1, 4943, 100525, -0.83, -0.80, -0.09, 8.82, 0.08, 0.49, -0.88, 0.43, -0.64, 0.30, 0, 0
526976, 1, 4964, 100520, -0.41, -0.73, -0.06, 8.82, 0.08, 0.49, -0.88, 1.01, -0.58, 0.49, 0, 0
527040, 1, 4984, 100530, -1.25, -0.82, -0.10, 8.81, 0.08, 0.49, -0.87, 1.34, -0.85, 0.52, 0, 0
527104, 1, 5005, 100530, -1.25, -0.90, -0.13, 8.79, 0.08, 0.49, -0.88, 2.01, -0.73, 0.82, 1, 0
527168, 1, 5025, 100527, -1.00, -0.92, -0.14, 8.79, 0.08, 0.49, -0.88, 2.23, -0.73, 0.91, 0, 0
527232, 1, 5046, 100525, -0.83, -0.90, -0.13, 8.79, 0.08, 0.49, -0.88, 1.55, -0.76, 0.52, 0, 0
527296, 1, 5066, 100526, -0.91, -0.91, -0.13, 8.79, 0.08, 0.49, -0.88, 1.28, -0.79, 0.49, 0, 0
527360, 1, 5087, 100524, -0.75, -0.88, -0.11, 8.78, 0.08, 0.49, -0.87, 1.40, -0.88, 0.58, 0, 0
527424, 1, 5107, 100526, -0.91, -0.89, -0.11, 8.78, 0.08, 0.50, -0.87, 1.89, -1.04, 0.67, 0, 0
527488, 1, 5128, 100518, -0.24, -0.79, -0.06, 8.77, 0.08, 0.49, -0.88, 2.10, -1.16, 0.76, 0, 0
527552, 1, 5148, 100523, -0.66, -0.77, -0.05, 8.76, 0.08, 0.49, -0.88, 1.92, -1.25, 0.91, 0, 0
527616, 1, 5169, 100526, -0.91, -0.79, -0.06, 8.76, 0.08, 0.49, -0.88, 1.55, -0.91, 0.70, 0, 0
527680, 1, 5189, 100527, -1.00, -0.83, -0.07, 8.75, 0.08, 0.49, -0.88, 1.46, -1.07, 0.52, 0, 0
527744, 1, 5210, 100527, -1.00, -0.86, -0.09, 8.74, 0.08, 0.49, -0.88, 1.40, -0.88, 0.64, 0, 0
527808, 1, 5230, 100531, -1.33, -0.94, -0.12, 8.73, 0.08, 0.49, -0.88, 1.83, -1.10, 0.98, 0, 0
527872, 1, 5251, 100524, -0.75, -0.91, -0.11, 8.74, 0.07, 0.48, -0.88, 1.16, -0.91, 0.70, 0, 0
527936, 1, 5271, 100526, -0.91, -0.91, -0.11, 8.73, 0.08, 0.48, -0.88, 0.09, -0.46, 0.24, 0, 0
528000, 1, 5292, 100525, -0.83, -0.90, -0.10, 8.73, 0.08, 0.49, -0.88, 0.27, -0.64, 0.18, 0, 0
528064, 1, 5312, 100528, -1.08, -0.93, -0.11, 8.73, 0.08, 0.49, -0.88, -0.18, -0.79, 0.18, 0, 0
528128, 1, 5332, 100526, -0.91, -0.93, -0.11, 8.72, 0.08, 0.49, -0.88, 0.34, -0.95, 0.34, 0, 0
528192, 1, 5353, 100524, -0.75, -0.90, -0.09, 8.72, 0.07, 0.48, -0.89, 8.96, -1.68, -1.55, 0, 0
528256, 1, 5373, 100530, -1.25, -0.96, -0.12, 8.70, 0.05, 0.47, -0.87, 17.71, -1.55, -1.31, 0, 0
528320, 1, 5394, 100528, -1.08, -0.99, -0.14, 8.69, 0.03, 0.41, -0.82, 7.59, 5.85, -3.63, 0, 0
528384, 1, 5414, 100526, -0.91, -0.98, -0.14, 8.70, 0.12, 0.45, -0.86, -10.06, 2.71, -5.55, 0, 0
528448, 1, 5435, 100528, -1.08, -1.00, -0.14, 8.70, 0.10, 0.53, -0.88, -0.43, -0.15, -2.93, 0, 0
528512, 1, 5455, 100521, -0.50, -0.92, -0.10, 8.69, 0.09, 0.43, -0.89, 2.35, 1.31, -2.47, 0, 0
528576, 1, 5476, 100527, -1.00, -0.93, -0.11, 8.69, 0.05, 0.47, -0.90, -1.43, 1.16, -7.44, 0, 0
528640, 1, 5496, 100526, -0.91, -0.93, -0.09, 8.68, 0.11, 0.53, -0.90, 38.57, 0.49, -5.67, 0, 0
528704, 1, 5517, 100526, -0.91, -0.93, -0.10, 8.68, 0.05, 0.49, -0.85, 42.96, 4.63, -4.42, 0, 0
528768, 1, 5537, 100525, -0.83, -0.92, -0.09, 8.68, 0.05, 0.40, -0.91, 16.83, 0.73, -3.81, 0, 0
528832, 1, 5558, 100527, -1.00, -0.93, -0.11, 8.67, 0.09, 0.47, -0.80, -2.77, -0.24, -3.08, 0, 0
528896, 1, 5578, 100528, -1.08, -0.96, -0.12, 8.67, 0.08, 0.43, -0.90, -10.61, 2.01, -3.45, 0, 0
528960, 1, 5599, 100522, -0.58, -0.90, -0.08, 8.66, 0.14, 0.50, -0.92, -18.05, 1.19, -4.12, 0, 0
529024, 1, 5619, 100523, -0.66, -0.86, -0.04, 8.66, -0.12, 0.52, -0.99, 19.39, -4.39, 3.93, 0, 0
529088, 1, 5640, 100514, 0.10, -0.70, 0.02, 8.66, 0.14, 0.42, -0.78, 15.09, 11.10, 3.05, 0, 0
529152, 1, 5660, 100460, 4.63, 0.19, 0.48, 8.91, 0.14, 0.54, -1.02, 6.43, -6.46, 2.23, 0, 0
529216, 1, 5681, 100418, 8.15, 1.53, 1.11, 9.11, 0.01, 0.39, -0.87, 8.75, -0.03, 0.37, 0, 0
786368, 0, 4083, 103169, 0.09, 0.04, 4.55, 8.63, 1.02, 0.17, -0.41, 2.62, 0.21, 4.27, 0, 0
786432, 1, 4104, 103169, 0.09, 0.15, 4.56, 8.76, 1.02, 0.04, -0.23, -6.59, 2.04, 5.15, 0, 0
786496, 1, 4124, 103166, 0.33, 0.27, 4.58, 8.88, 0.97, -0.25, -0.18, -17.20, 3.90, 8.66, 0, 0
786560, 1, 4145, 103167, 0.25, 0.36, 4.58, 8.99, 1.01, -0.11, -0.03, -13.69, 2.84, 10.46, 0, 0
786624, 1, 4165, 103169, 0.09, 0.41, 4.56, 9.09, 1.02, -0.12, 0.06, -10.43, 4.73, 10.21, 0, 0
786688, 1, 4186, 103171, -0.08, 0.42, 4.54, 9.19, 1.06, 0.05, -0.12, 0.24, 5.52, 8.38, 0, 0
786752, 1, 4206, 103174, -0.32, 0.39, 4.49, 9.27, 0.98, -0.39, -0.14, -5.27, 4.45, 6.86, 0, 0
786816, 1, 4227, 103173, -0.24, 0.38, 4.45, 9.36, 1.00, -0.25, -0.15, -22.62, 3.84, 4.94, 0, 0
786880, 1, 4247, 103171, -0.08, 0.39, 4.41, 9.44, 0.94, -0.33, 0.04, -24.54, 2.23, 2.07, 0, 0
786944, 1, 4268, 103175, -0.41, 0.35, 4.36, 9.51, 0.97, -0.32, 0.15, -13.20, 4.30, -1.80, 0, 0
787008, 1, 4288, 103175, -0.41, 0.31, 4.31, 9.57, 1.01, -0.34, 0.06, -0.55, 1.19, -5.27, 0, 0
787072, 1, 4308, 103173, -0.24, 0.30, 4.27, 9.63, 1.00, -0.22, 0.07, 14.27, 0.15, -7.80, 0, 0
787136, 1, 4329, 103173, -0.24, 0.30, 4.22, 9.68, 0.99, -0.06, 0.02, 18.11, -1.92, -9.24, 0, 0
787200, 1, 4349, 103174, -0.32, 0.28, 4.17, 9.72, 0.99, -0.11, -0.03, 14.91, -3.08, -10.85, 0, 0
787264, 1, 4370, 103173, -0.24, 0.28, 4.13, 9.77, 1.01, -0.08, 0.03, 10.67, -3.11, -10.88, 0, 0
787328, 1, 4390, 103177, -0.57, 0.22, 4.07, 9.82, 1.00, -0.08, -0.04, 9.42, -4.63, -10.30, 0, 0
787392, 1, 4411, 103177, -0.57, 0.17, 4.01, 9.85, 1.02, 0.03, -0.04, 15.55, -6.16, -10.15, 0, 0
787456, 1, 4431, 103174, -0.32, 0.17, 3.97, 9.89, 1.01, 0.06, -0.04, 15.82, -7.13, -10.40, 0, 0
787520, 1, 4452, 103174, -0.32, 0.17, 3.92, 9.93, 0.97, -0.02, 0.01, 5.21, -10.95, -3.96, 0, 0
787584, 1, 4472, 103176, -0.49, 0.14, 3.90, 9.95, 1.01, 0.44, -0.39, 16.98, -9.18, -6.59, 0, 0
787648, 1, 4493, 103180, -0.81, 0.06, 3.82, 10.00, 0.89, -0.37, 0.05, 8.05, -5.82, 0.18, 0, 0
787712, 1, 4513, 103177, -0.57, 0.03, 3.78, 10.02, 1.00, 0.18, -0.17, 1.46, -6.71, 0.09, 0, 0
787776, 1, 4534, 103174, -0.32, 0.05, 3.75, 10.04, 0.97, 0.02, -0.28, 1.40, -5.91, 2.53, 0, 0
787840, 1, 4554, 103174, -0.32, 0.07, 3.72, 10.06, 1.00, 0.15, -0.11, 5.24, -2.32, 3.02, 0, 0
787904, 1, 4575, 103176, -0.49, 0.05, 3.69, 10.09, 0.99, 0.02, -0.37, 0.15, 0.73, 4.48, 0, 0
787968, 1, 4595, 103181, -0.90, -0.03, 3.63, 10.11, 1.01, -0.12, -0.32, -14.27, 2.71, 6.86, 0, 0
788032, 1, 4616, 103181, -0.90, -0.10, 3.56, 10.12, 1.00, -0.05, -0.11, -18.69, 3.84, 8.41, 0, 0
788096, 1, 4636, 103178, -0.65, -0.12, 3.51, 10.15, 0.96, -0.08, -0.12, -14.94, 5.30, 8.23, 0, 0
788160, 1, 4657, 103179, -0.73, -0.15, 3.47, 10.17, 1.02, -0.09, -0.10, -11.98, 5.98, 8.57, 0, 0
788224, 1, 4677, 103179, -0.73, -0.18, 3.43, 10.18, 1.02, -0.11, -0.12, -15.85, 4.54, 9.60, 0, 0
788288, 1, 4698, 103177, -0.57, -0.17, 3.40, 10.20, 1.00, -0.03, -0.09, -8.69, 6.92, 9.36, 0, 0
788352, 1, 4718, 103176, -0.49, -0.16, 3.38, 10.20, 0.98, -0.26, -0.05, -10.88, 5.49, 6.31, 0, 0
788416, 1, 4739, 103181, -0.90, -0.21, 3.32, 10.22, 1.03, -0.13, -0.07, -18.87, 1.62, 4.51, 0, 0
788480, 1, 4759, 103178, -0.65, -0.22, 3.30, 10.23, 0.97, -0.34, -0.01, -19.73, 5.64, 2.10, 0, 0
788544, 1, 4780, 103178, -0.65, -0.22, 3.27, 10.25, 0.99, -0.25, 0.03, -14.57, 2.29, -0.55, 0, 0
788608, 1, 4800, 103182, -0.98, -0.28, 3.21, 10.25, 0.99, -0.18, 0.06, -1.04, 1.19, -3.96, 0, 0
788672, 1, 4820, 103181, -0.90, -0.32, 3.16, 10.27, 1.00, -0.09, 0.12, 10.67, 0.67, -6.28, 0, 0
788736, 1, 4841, 103178, -0.65, -0.31, 3.14, 10.28, 1.02, -0.07, -0.05, 11.83, -0.73, -8.11, 0, 0
788800, 1, 4861, 103180, -0.81, -0.33, 3.10, 10.29, 1.00, -0.04, -0.05, 9.76, -1.62, -8.51, 0, 0
788864, 1, 4882, 103178, -0.65, -0.32, 3.07, 10.30, 1.00, -0.07, -0.03, -1.07, -1.98, -7.77, 0, 0
788928, 1, 4902, 103175, -0.41, -0.27, 3.08, 10.30, 1.06, 0.03, 0.02, -5.85, 6.04, -6.13, 0, 0
788992, 1, 4923, 103177, -0.57, -0.26, 3.08, 10.31, 1.10, -0.16, 0.12, -1.31, -2.01, -0.21, 0, 0
789056, 1, 4943, 103176, -0.49, -0.23, 3.05, 10.33, 0.96, -0.11, -0.15, 7.13, -3.72, 0.64, 0, 0
789120, 1, 4964, 103181, -0.90, -0.28, 3.00, 10.34, 1.01, 0.06, 0.01, 9.60, -5.85, -0.46, 0, 0
789184, 1, 4984, 103183, -1.06, -0.35, 2.95, 10.34, 1.02, -0.19, -0.21, 2.23, -5.43, 0.70, 0, 0
789248, 1, 5005, 103179, -0.73, -0.35, 2.91, 10.34, 0.93, -0.03, -0.09, 4.39, -7.07, 0.79, 1, 0
789312, 1, 5025, 103178, -0.65, -0.34, 2.89, 10.34, 1.00, -0.03, -0.16, -2.10, -8.48, 0.61, 0, 0
789376, 1, 5046, 103182, -0.98, -0.39, 2.84, 10.36, 1.01, -0.09, -0.06, 2.56, -6.71, 0.58, 0, 0
789440, 1, 5066, 103180, -0.81, -0.40, 2.81, 10.36, 0.98, -0.07, -0.23, 4.39, -7.41, 0.82, 0, 0
789504, 1, 5087, 103180, -0.81, -0.41, 2.78, 10.36, 0.99, -0.07, -0.20, 3.29, -6.28, 0.64, 0, 0
789568, 1, 5107, 103175, -0.41, -0.36, 2.78, 10.36, 1.00, 0.03, -0.16, 1.16, -3.90, -0.27, 0, 0
789632, 1, 5128, 103178, -0.65, -0.35, 2.76, 10.38, 0.98, -0.11, -0.27, -0.91, -2.59, -0.64, 0, 0
789696, 1, 5148, 103178, -0.65, -0.34, 2.74, 10.40, 0.98, -0.11, -0.20, -1.40, -0.61, 0.15, 0, 0
789760, 1, 5169, 103179, -0.73, -0.35, 2.71, 10.40, 1.00, -0.03, -0.19, -3.51, 0.95, 0.21, 0, 0
789824, 1, 5189, 103181, -0.90, -0.39, 2.67, 10.40, 1.00, -0.02, -0.15, -4.94, 2.04, -0.43, 0, 0
789888, 1, 5210, 103181, -0.90, -0.42, 2.63, 10.40, 1.00, -0.05, -0.11, -5.30, 2.77, -0.55, 0, 0
789952, 1, 5230, 103181, -0.90, -0.45, 2.60, 10.41, 1.00, -0.07, -0.13, -4.48, 2.87, -0.15, 0, 0
790016, 1, 5251, 103181, -0.90, -0.47, 2.56, 10.42, 1.00, -0.03, -0.14, -3.87, 2.68, 0.15, 0, 0
790080, 1, 5271, 103177, -0.57, -0.43, 2.55, 10.42, 1.00, -0.01, -0.09, -4.05, 2.68, 0.12, 0, 0
790144, 1, 5292, 103181, -0.90, -0.46, 2.52, 10.42, 1.00, -0.03, -0.11, -6.07, 2.62, 0.43, 0, 0
790208, 1, 5312, 103177, -0.57, -0.43, 2.51, 10.43, 1.00, -0.05, -0.08, -6.83, 2.62, 0.98, 0, 0
790272, 1, 5332, 103181, -0.90, -0.45, 2.47, 10.44, 1.00, -0.06, -0.07, -6.34, 2.50, 1.59, 0, 0
790336, 1, 5353, 103183, -1.06, -0.50, 2.42, 10.44, 1.00, -0.03, -0.04, -5.30, 2.99, 1.95, 0, 0
790400, 1, 5373, 103174, -0.32, -0.42, 2.44, 10.44, 1.00, -0.05, -0.05, -4.91, 2.71, 2.20, 0, 0
790464, 1, 5394, 103177, -0.57, -0.40, 2.43, 10.45, 1.00, -0.05, -0.06, -5.03, 2.32, 2.44, 0, 0
790528, 1, 5414, 103178, -0.65, -0.39, 2.41, 10.45, 1.01, -0.07, -0.05, -4.91, 1.77, 2.59, 0, 0
790592, 1, 5435, 103178, -0.65, -0.38, 2.39, 10.45, 1.00, -0.08, -0.03, -4.15, 1.46, 2.80, 0, 0
790656, 1, 5455, 103181, -0.90, -0.42, 2.35, 10.46, 1.00, -0.07, -0.04, -1.52, 0.98, 2.77, 0, 0
790720, 1, 5476, 103179, -0.73, -0.43, 2.33, 10.47, 1.00, -0.08, -0.05, -1.55, 0.12, 2.90, 0, 0
790784, 1, 5496, 103177, -0.57, -0.40, 2.32, 10.46, 1.01, -0.10, -0.05, -1.74, -0.67, 3.14, 0, 0
790848, 1, 5517, 103181, -0.90, -0.44, 2.28, 10.46, 1.00, -0.10, -0.05, -0.61, -1.80, 3.14, 0, 0
790912, 1, 5537, 103180, -0.81, -0.45, 2.25, 10.47, 1.00, -0.09, -0.05, -0.49, -2.53, 2.87, 0, 0
790976, 1, 5558, 103181, -0.90, -0.48, 2.22, 10.47, 1.00, -0.10, -0.07, 0.79, -3.23, 2.44, 0, 0
791040, 1, 5578, 103180, -0.81, -0.49, 2.19, 10.47, 1.00, -0.11, -0.10, 1.31, -3.90, 1.40, 0, 0
791104, 1, 5599, 103185, -1.22, -0.57, 2.14, 10.47, 1.00, -0.12, -0.13, -0.12, -3.90, 0.46, 0, 0
791168, 1, 5619, 103180, -0.81, -0.57, 2.12, 10.48, 1.00, -0.10, -0.13, -1.13, -3.63, -0.52, 0, 0
791232, 1, 5640, 103178, -0.65, -0.54, 2.11, 10.48, 0.99, -0.10, -0.14, 0.24, -3.08, -1.74, 0, 0
791296, 1, 5660, 103178, -0.65, -0.51, 2.11, 10.49, 0.99, -0.10, -0.12, 0.34, -2.29, -2.53, 0, 0
791360, 1, 5681, 103184, -1.14, -0.57, 2.06, 10.50, 1.00, -0.06, -0.08, 2.87, 0.12, -3.17, 0, 0
791424, 1, 5701, 103182, -0.98, -0.60, 2.02, 10.51, 0.97, -0.06, -0.13, -1.34, -1.22, -3.20, 0, 0
791488, 1, 5722, 103183, -1.06, -0.63, 1.99, 10.50, 1.00, 0.04, -0.18, -1.13, -1.28, -3.17, 0, 0
791552, 1, 5742, 103185, -1.22, -0.69, 1.94, 10.51, 0.99, -0.08, -0.09, -2.84, -0.03, -2.16, 0, 0
791616, 1, 5763, 103180, -0.81, -0.67, 1.93, 10.51, 1.00, -0.01, -0.09, -3.11, 0.76, -0.98, 0, 0
791680, 1, 5783, 103182, -0.98, -0.68, 1.91, 10.51, 0.99, -0.03, -0.12, -3.26, 1.55, 0.46, 0, 0
791744, 1, 5804, 103177, -0.57, -0.63, 1.92, 10.51, 1.00, -0.02, -0.08, -1.71, 1.52, 0.88, 0, 0
791808, 1, 5824, 103181, -0.90, -0.63, 1.89, 10.51, 0.99, -0.05, -0.09, -4.18, 1.65, 1.80, 0, 0
791872, 1, 5844, 103177, -0.57, -0.58, 1.90, 10.52, 1.00, -0.08, -0.07, -6.43, 2.13, 2.90, 0, 0
791936, 1, 5865, 103180, -0.81, -0.58, 1.88, 10.52, 1.00, -0.06, -0.06, -3.60, 1.52, 3.20, 0, 0
792000, 1, 5885, 103180, -0.81, -0.58, 1.86, 10.52, 1.01, -0.03, -0.07, -1.16, 1.19, 2.84, 0, 0
792064, 1, 5906, 103182, -0.98, -0.61, 1.84, 10.52, 1.01, -0.07, -0.09, -2.84, 0.76, 2.87, 0, 0
792128, 1, 5926, 103177, -0.57, -0.57, 1.84, 10.52, 1.00, -0.08, -0.07, -4.02, 0.06, 2.71, 0, 0
792192, 1, 5947, 103181, -0.90, -0.58, 1.81, 10.53, 1.00, -0.07, -0.06, -4.02, -0.43, 2.68, 0, 0
792256, 1, 5967, 103181, -0.90, -0.60, 1.79, 10.52, 1.00, -0.09, -0.05, -1.92, -0.82, 2.44, 0, 0
792320, 1, 5988, 103177, -0.57, -0.56, 1.79, 10.53, 1.00, -0.08, -0.08, -1.40, -1.22, 1.98, 0, 0
792384, 1, 6008, 103181, -0.90, -0.58, 1.77, 10.54, 0.99, -0.11, -0.10, -1.68, -1.43, 1.71, 0, 0
792448, 1, 6029, 103181, -0.90, -0.60, 1.74, 10.54, 1.00, -0.10, -0.09, -1.62, -1.49, 1.19, 0, 0
792512, 1, 6049, 103181, -0.90, -0.61, 1.72, 10.55, 1.00, -0.09, -0.09, -1.34, -1.10, 0.52, 0, 0
792576, 1, 6070, 103175, -0.41, -0.54, 1.74, 10.54, 0.99, -0.10, -0.10, -0.58, -0.73, 0.21, 0, 0
792640, 1, 6090, 103179, -0.73, -0.54, 1.72, 10.54, 1.00, -0.09, -0.11, 0.27, -0.88, 0.00, 0, 0
792704, 1, 6111, 103177, -0.57, -0.51, 1.72, 10.55, 0.99, -0.07, -0.10, -0.40, -0.52, -0.27, 0, 0
792768, 1, 6131, 103179, -0.73, -0.51, 1.70, 10.56, 1.00, -0.06, -0.10, -1.62, -0.43, -0.34, 0, 0
792832, 1, 6152, 103179, -0.73, -0.51, 1.69, 10.55, 1.00, -0.07, -0.10, -1.71, -0.43, -0.30, 0, 0
792896, 1, 6172, 103174, -0.32, -0.45, 1.70, 10.55, 1.00, -0.07, -0.10, -1.13, -0.61, -0.24, 0, 0
792960, 1, 6193, 103172, -0.16, -0.36, 1.73, 10.56, 1.00, -0.06, -0.10, -0.88, -0.46, -0.15, 0, 0
793024, 1, 6213, 103177, -0.57, -0.36, 1.71, 10.56, 1.00, -0.05, -0.11, -1.16, -0.46, -0.09, 0, 0
793088, 1, 6234, 103178, -0.65, -0.38, 1.69, 10.57, 1.00, -0.06, -0.11, -1.77, -0.37, 0.00, 0, 0
793152, 1, 6254, 103180, -0.81, -0.41, 1.66, 10.56, 1.00, -0.05, -0.10, -2.41, -0.06, 0.27, 0, 0
793216, 1, 6275, 103180, -0.81, -0.45, 1.63, 10.58, 1.00, -0.05, -0.09, -2.41, 0.03, 0.37, 0, 0
793280, 1, 6295, 103181, -0.90, -0.49, 1.59, 10.57, 1.00, -0.05, -0.09, -2.04, 0.15, 0.61, 0, 0
793344, 1, 6316, 103178, -0.65, -0.48, 1.58, 10.58, 1.00, -0.05, -0.09, -2.41, 0.18, 0.98, 0, 0
793408, 1, 6336, 103179, -0.73, -0.49, 1.56, 10.57, 1.00, -0.05, -0.09, -2.87, 0.40, 1.13, 0, 0
793472, 1, 6356, 103179, -0.73, -0.50, 1.54, 10.59, 1.00, -0.06, -0.08, -2.90, 0.12, 1.31, 0, 0
793536, 1, 6377, 103179, -0.73, -0.51, 1.52, 10.58, 1.00, -0.06, -0.08, -2.71, 0.06, 1.37, 0, 0
793600, 1, 6397, 103180, -0.81, -0.53, 1.50, 10.58, 1.00, -0.07, -0.08, -2.65, -0.18, 1.28, 0, 0
793664, 1, 6418, 103179, -0.73, -0.53, 1.49, 10.59, 1.00, -0.08, -0.09, -2.50, -0.30, 1.43, 0, 0
793728, 1, 6438, 103180, -0.81, -0.55, 1.46, 10.59, 1.00, -0.08, -0.09, -2.23, -0.40, 1.25, 0, 0
793792, 1, 6459, 103183, -1.06, -0.60, 1.42, 10.59, 0.99, -0.08, -0.09, -2.01, -0.21, 1.07, 0, 0
793856, 1, 6479, 103179, -0.73, -0.60, 1.41, 10.59, 0.99, -0.09, -0.09, -2.07, -0.37, 0.95, 0, 0
793920, 1, 6500, 103175, -0.41, -0.54, 1.43, 10.59, 1.00, -0.08, -0.09, -1.80, -0.37, 0.64, 0, 0
793984, 1, 6520, 103176, -0.49, -0.50, 1.44, 10.59, 1.00, -0.08, -0.09, -1.83, -0.43, 0.52, 0, 0
794048, 1, 6541, 103176, -0.49, -0.47, 1.44, 10.59, 1.00, -0.09, -0.09, -1.65, -0.49, 0.43, 0, 0
794112, 1, 6561, 103177, -0.57, -0.46, 1.43, 10.60, 1.00, -0.08, -0.09, -1.31, -0.37, 0.21, 0, 0
794176, 1, 6582, 103178, -0.65, -0.46, 1.42, 10.59, 1.00, -0.07, -0.09, -0.91, -0.52, 0.09, 0, 0
794240, 1, 6602, 103180, -0.81, -0.49, 1.39, 10.61, 1.00, -0.07, -0.09, -1.16, -0.49, 0.21, 0, 0
794304, 1, 6623, 103181, -0.90, -0.53, 1.36, 10.61, 1.00, -0.06, -0.09, -1.13, -0.49, 0.12, 0, 0
794368, 1, 6643, 103181, -0.90, -0.56, 1.33, 10.61, 1.00, -0.05, -0.10, -1.19, -0.37, 0.15, 0, 0
794432, 1, 6664, 103177, -0.57, -0.54, 1.33, 10.60, 1.00, -0.06, -0.10, -1.31, -0.37, 0.24, 0, 0
794496, 1, 6684, 103183, -1.06, -0.60, 1.29, 10.62, 1.00, -0.05, -0.10, -1.46, -0.30, 0.21, 0, 0
794560, 1, 6705, 103182, -0.98, -0.63, 1.26, 10.61, 1.00, -0.05, -0.10, -1.80, -0.18, 0.43, 0, 0
794624, 1, 6725, 103178, -0.65, -0.61, 1.26, 10.61, 1.00, -0.05, -0.09, -1.83, -0.21, 0.61, 0, 0
794688, 1, 6746, 103187, -1.38, -0.71, 1.20, 10.62, 1.00, -0.05, -0.10, -2.01, -0.15, 0.73, 0, 0
794752, 1, 6766, 103175, -0.41, -0.64, 1.23, 10.62, 1.00, -0.06, -0.09, -2.23, -0.15, 1.10, 0, 0
794816, 1, 6787, 103177, -0.57, -0.60, 1.23, 10.63, 1.00, -0.06, -0.09, -2.23, -0.03, 1.10, 0, 0
794880, 1, 6807, 103175, -0.41, -0.54, 1.25, 10.62, 1.00, -0.06, -0.10, -2.47, -0.15, 1.10, 0, 0
794944, 1, 6828, 103183, -1.06, -0.60, 1.21, 10.63, 1.00, -0.07, -0.10, -2.50, -0.21, 1.16, 0, 0
795008, 1, 6848, 103179, -0.73, -0.60, 1.20, 10.62, 1.00, -0.07, -0.10, -2.41, -0.12, 1.13, 0, 0
795072, 1, 6868, 103177, -0.57, -0.57, 1.20, 10.64, 1.00, -0.08, -0.09, -2.35, -0.12, 1.04, 0, 0
795136, 1, 6889, 103182, -0.98, -0.62, 1.17, 10.63, 1.00, -0.08, -0.10, -2.41, 0.00, 0.98, 0, 0
795200, 1, 6909, 103180, -0.81, -0.62, 1.16, 10.63, 1.00, -0.08, -0.09, -2.44, -0.18, 0.91, 0, 0
795264, 1, 6930, 103183, -1.06, -0.67, 1.12, 10.63, 1.00, -0.08, -0.09, -2.13, -0.15, 0.70, 0, 0
795328, 1, 6950, 103180, -0.81, -0.67, 1.11, 10.63, 1.00, -0.08, -0.09, -2.10, -0.12, 0.64, 0, 0
795392, 1, 6971, 103183, -1.06, -0.71, 1.08, 10.64, 1.00, -0.08, -0.09, -1.98, -0.37, 0.46, 0, 0
795456, 1, 6991, 103180, -0.81, -0.71, 1.08, 10.63, 1.00, -0.08, -0.09, -1.80, -0.30, 0.37, 0, 0
795520, 1, 7012, 103181, -0.90, -0.72, 1.06, 10.64, 1.00, -0.08, -0.09, -1.55, -0.21, 0.43, 0, 0
795584, 1, 7032, 103179, -0.73, -0.70, 1.06, 10.64, 1.00, -0.07, -0.09, -1.40, -0.34, 0.21, 0, 0
795648, 1, 7053, 103176, -0.49, -0.64, 1.08, 10.64, 1.00, -0.07, -0.09, -1.25, -0.24, 0.18, 0, 0
795712, 1, 7073, 103181, -0.90, -0.66, 1.06, 10.64, 1.00, -0.07, -0.09, -1.46, -0.40, 0.27, 0, 0
795776, 1, 7094, 103176, -0.49, -0.61, 1.08, 10.65, 1.00, -0.06, -0.09, -1.28, -0.61, 0.24, 0, 0
795840, 1, 7114, 103175, -0.41, -0.56, 1.09, 10.66, 1.00, -0.05, -0.10, -1.31, -0.49, 0.43, 0, 0
795904, 1, 7135, 103180, -0.81, -0.58, 1.07, 10.65, 1.00, -0.06, -0.09, -1.34, -0.43, 0.52, 0, 0
795968, 1, 7155, 103182, -0.98, -0.62, 1.04, 10.65, 1.00, -0.06, -0.09, -1.52, -0.43, 0.61, 0, 0
796032, 1, 7176, 103177, -0.57, -0.59, 1.05, 10.66, 1.00, -0.05, -0.10, -1.28, -0.37, 0.79, 0, 0
796096, 1, 7196, 103183, -1.06, -0.65, 1.01, 10.66, 1.00, -0.05, -0.10, -2.10, -0.30, 0.91, 0, 0
796160, 1, 7217, 103175, -0.41, -0.59, 1.03, 10.66, 1.00, -0.06, -0.10, -1.77, -0.37, 0.85, 0, 0
796224, 1, 7237, 103181, -0.90, -0.62, 1.01, 10.66, 1.00, -0.06, -0.10, -1.98, -0.34, 0.98, 0, 0
796288, 1, 7258, 103178, -0.65, -0.60, 1.01, 10.66, 1.00, -0.07, -0.10, -2.44, -0.37, 1.13, 0, 0
796352, 1, 7278, 103176, -0.49, -0.56, 1.02, 10.65, 1.00, -0.07, -0.10, -2.44, -0.18, 1.13, 0, 0
796416, 1, 7299, 103176, -0.49, -0.53, 1.03, 10.67, 1.00, -0.08, -0.10, -2.20, -0.24, 0.88, 0, 0
796480, 1, 7319, 103181, -0.90, -0.57, 1.00, 10.67, 1.00, -0.07, -0.10, -2.56, -0.06, 1.07, 0, 0
796544, 1, 7340, 103180, -0.81, -0.59, 0.98, 10.67, 1.00, -0.08, -0.09, -2.44, -0.18, 0.91, 0, 0
796608, 1, 7360, 103179, -0.73, -0.59, 0.97, 10.68, 1.00, -0.08, -0.10, -2.29, -0.15, 0.95, 0, 0
796672, 1, 7380, 103184, -1.14, -0.67, 0.93, 10.67, 1.00, -0.08, -0.09, -2.35, -0.15, 0.73, 0, 0
796736, 1, 7401, 103179, -0.73, -0.66, 0.92, 10.68, 1.00, -0.08, -0.09, -2.35, 0.00, 0.61, 0, 0
796800, 1, 7421, 103175, -0.41, -0.60, 0.94, 10.67, 1.00, -0.07, -0.09, -2.23, -0.06, 0.58, 0, 0
796864, 1, 7442, 103181, -0.90, -0.63, 0.92, 10.67, 1.00, -0.08, -0.09, -2.13, -0.12, 0.52, 0, 0
796928, 1, 7462, 103181, -0.90, -0.66, 0.90, 10.67, 1.00, -0.07, -0.09, -1.77, -0.24, 0.34, 0, 0
796992, 1, 7483, 103181, -0.90, -0.68, 0.88, 10.68, 1.00, -0.07, -0.09, -1.55, -0.24, 0.34, 0, 0
797056, 1, 7503, 103181, -0.90, -0.70, 0.86, 10.68, 1.00, -0.07, -0.08, -1.43, -0.40, 0.40, 0, 0
797120, 1, 7524, 103178, -0.65, -0.67, 0.87, 10.69, 1.00, -0.07, -0.08, -1.25, -0.49, 0.37, 0, 0
797184, 1, 7544, 103181, -0.90, -0.69, 0.85, 10.68, 1.00, -0.06, -0.09, -1.43, -0.34, 0.30, 0, 0
797248, 1, 7565, 103176, -0.49, -0.64, 0.87, 10.69, 1.00, -0.06, -0.09, -1.40, -0.52, 0.37, 0, 0
797312, 1, 7585, 103179, -0.73, -0.64, 0.86, 10.69, 1.00, -0.06, -0.09, -1.28, -0.49, 0.64, 0, 0
797376, 1, 7606, 103176, -0.49, -0.59, 0.88, 10.69, 1.00, -0.06, -0.09, -1.49, -0.52, 0.58, 0, 0
797440, 1, 7626, 103179, -0.73, -0.60, 0.87, 10.69, 1.00, -0.06, -0.10, -1.49, -0.43, 0.64, 0, 0
797504, 1, 7647, 103181, -0.90, -0.63, 0.84, 10.69, 1.00, -0.06, -0.10, -1.55, -0.49, 0.82, 0, 0
797568, 1, 7667, 103182, -0.98, -0.67, 0.82, 10.69, 1.00, -0.06, -0.10, -1.86, -0.37, 0.79, 0, 0
797632, 1, 7688, 103181, -0.90, -0.69, 0.80, 10.70, 1.00, -0.07, -0.10, -1.95, -0.40, 0.98, 0, 0
797696, 1, 7708, 103184, -1.14, -0.75, 0.76, 10.71, 1.00, -0.06, -0.10, -2.07, -0.27, 0.95, 0, 0
797760, 1, 7729, 103177, -0.57, -0.71, 0.78, 10.71, 1.00, -0.07, -0.10, -2.29, -0.15, 0.95, 0, 0
797824, 1, 7749, 103177, -0.57, -0.67, 0.79, 10.69, 1.00, -0.07, -0.10, -2.29, -0.21, 0.91, 0, 0
797888, 1, 7770, 103180, -0.81, -0.68, 0.78, 10.69, 1.00, -0.07, -0.10, -2.44, -0.03, 1.01, 0, 0
797952, 1, 7790, 103180, -0.81, -0.68, 0.77, 10.70, 1.00, -0.07, -0.10, -2.44, 0.06, 0.85, 0, 0
798016, 1, 7811, 103176, -0.49, -0.63, 0.79, 10.71, 1.00, -0.08, -0.09, -2.56, 0.03, 0.73, 0, 0
798080, 1, 7831, 103180, -0.81, -0.65, 0.77, 10.71, 1.00, -0.08, -0.09, -2.41, -0.06, 0.70, 0, 0
798144, 1, 7852, 103176, -0.49, -0.60, 0.79, 10.71, 1.00, -0.07, -0.09, -2.41, 0.15, 0.67, 0, 0
798208, 1, 7872, 103181, -0.90, -0.64, 0.77, 10.72, 1.00, -0.07, -0.09, -2.26, 0.09, 0.52, 0, 0
798272, 1, 7892, 103180, -0.81, -0.65, 0.75, 10.72, 1.00, -0.07, -0.09, -2.10, -0.12, 0.46, 0, 0
798336, 1, 7913, 103180, -0.81, -0.66, 0.74, 10.71, 1.00, -0.07, -0.09, -2.04, -0.15, 0.55, 0, 0
798400, 1, 7933, 103182, -0.98, -0.70, 0.72, 10.71, 1.00, -0.07, -0.08, -1.98, -0.12, 0.30, 0, 0
798464, 1, 7954, 103175, -0.41, -0.64, 0.74, 10.72, 1.00, -0.07, -0.08, -1.68, -0.27, 0.46, 0, 0
798528, 1, 7974, 103180, -0.81, -0.65, 0.73, 10.72, 1.00, -0.07, -0.08, -1.68, -0.52, 0.64, 0, 0
798592, 1, 7995, 103175, -0.41, -0.60, 0.75, 10.71, 1.00, -0.07, -0.09, -1.34, -0.52, 0.37, 0, 0
798656, 1, 8015, 103177, -0.57, -0.58, 0.75, 10.72, 1.00, -0.06, -0.09, -1.31, -0.49, 0.55, 0, 0
798720, 1, 8036, 103178, -0.65, -0.57, 0.75, 10.73, 1.00, -0.06, -0.09, -1.22, -0.61, 0.67, 0, 0
798784, 1, 8056, 103176, -0.49, -0.54, 0.76, 10.72, 1.00, -0.06, -0.09, -1.31, -0.70, 0.70, 0, 0
798848, 1, 8077, 103182, -0.98, -0.60, 0.72, 10.71, 1.00, -0.06, -0.10, -1.46, -0.52, 0.55, 0, 0
798912, 1, 8097, 103181, -0.90, -0.64, 0.70, 10.73, 1.00, -0.06, -0.10, -1.40, -0.52, 0.67, 0, 0
798976, 1, 8118, 103177, -0.57, -0.61, 0.71, 10.72, 1.00, -0.07, -0.10, -1.59, -0.55, 0.82, 0, 0
799040, 1, 8138, 103178, -0.65, -0.60, 0.70, 10.73, 1.00, -0.07, -0.10, -1.65, -0.40, 0.82, 0, 0
799104, 1, 8159, 103177, -0.57, -0.58, 0.71, 10.73, 1.00, -0.07, -0.10, -1.83, -0.43, 0.73, 0, 0
799168, 1, 8179, 103173, -0.24, -0.51, 0.74, 10.73, 1.00, -0.07, -0.10, -1.98, -0.27, 0.91, 0, 0
799232, 1, 8200, 103177, -0.57, -0.51, 0.73, 10.72, 1.00, -0.07, -0.10, -2.23, -0.06, 0.88, 0, 0
799296, 1, 8220, 103180, -0.81, -0.54, 0.71, 10.73, 1.00, -0.07, -0.10, -2.29, -0.09, 0.70, 0, 0
799360, 1, 8241, 103179, -0.73, -0.56, 0.70, 10.74, 1.00, -0.07, -0.10, -2.23, 0.00, 0.73, 0, 0
799424, 1, 8261, 103179, -0.73, -0.58, 0.68, 10.73, 1.00, -0.07, -0.10, -2.32, 0.03, 0.61, 0, 0
799488, 1, 8282, 103178, -0.65, -0.57, 0.68, 10.73, 1.00, -0.07, -0.09, -2.53, 0.12, 0.64, 0, 0
799552, 1, 8302, 103179, -0.73, -0.59, 0.67, 10.74, 1.00, -0.07, -0.09, -2.29, 0.12, 0.70, 0, 0
799616, 1, 8323, 103180, -0.81, -0.61, 0.65, 10.74, 1.00, -0.07, -0.09, -2.32, 0.18, 0.67, 0, 0
799680, 1, 8343, 103180, -0.81, -0.63, 0.63, 10.73, 1.00, -0.07, -0.09, -2.35, -0.03, 0.58, 0, 0
799744, 1, 8364, 103178, -0.65, -0.62, 0.63, 10.74, 1.00, -0.06, -0.09, -2.20, 0.00, 0.67, 0, 0
799808, 1, 8384, 103178, -0.65, -0.61, 0.63, 10.75, 1.00, -0.07, -0.08, -2.07, -0.21, 0.64, 0, 0
799872, 1, 8404, 103177, -0.57, -0.59, 0.64, 10.73, 1.00, -0.07, -0.08, -1.77, -0.15, 0.55, 0, 0
799936, 1, 8425, 103181, -0.90, -0.63, 0.61, 10.76, 1.00, -0.07, -0.08, -1.80, -0.43, 0.70, 0, 0
800000, 1, 8445, 103177, -0.57, -0.61, 0.62, 10.75, 1.00, -0.07, -0.09, -1.55, -0.43, 0.55, 0, 0
800064, 1, 8466, 103181, -0.90, -0.64, 0.60, 10.74, 1.00, -0.06, -0.09, -1.65, -0.55, 0.61, 0, 0
800128, 1, 8486, 103179, -0.73, -0.65, 0.59, 10.76, 1.00, -0.07, -0.09, -1.37, -0.58, 0.67, 0, 0
800192, 1, 8507, 103182, -0.98, -0.69, 0.57, 10.75, 1.00, -0.07, -0.09, -1.22, -0.64, 0.76, 0, 0
800256, 1, 8527, 103181, -0.90, -0.71, 0.55, 10.75, 1.00, -0.07, -0.10, -1.34, -0.70, 0.76, 0, 0
800320, 1, 8548, 103179, -0.73, -0.71, 0.55, 10.75, 1.00, -0.07, -0.10, -1.31, -0.58, 0.76, 0, 0
800384, 1, 8568, 103175, -0.41, -0.64, 0.57, 10.77, 1.00, -0.07, -0.10, -1.55, -0.52, 0.73, 0, 0
800448, 1, 8589, 103177, -0.57, -0.62, 0.58, 10.76, 1.00, -0.07, -0.10, -1.62, -0.37, 0.61, 0, 0
800512, 1, 8609, 103180, -0.81, -0.64, 0.57, 10.76, 1.00, -0.07, -0.10, -1.68, -0.55, 0.70, 0, 0
800576, 1, 8630, 103174, -0.32, -0.58, 0.60, 10.76, 1.00, -0.07, -0.10, -1.71, -0.40, 0.58, 0, 0
800640, 1, 8650, 103179, -0.73, -0.59, 0.58, 10.77, 1.00, -0.07, -0.10, -1.77, -0.15, 0.73, 0, 0
800704, 1, 8671, 103182, -0.98, -0.64, 0.55, 10.76, 1.00, -0.07, -0.10, -1.98, -0.12, 0.61, 0, 0
800768, 1, 8691, 103176, -0.49, -0.61, 0.57, 10.76, 1.00, -0.07, -0.10, -2.26, -0.06, 0.70, 0, 0
800832, 1, 8712, 103181, -0.90, -0.64, 0.54, 10.76, 1.00, -0.07, -0.10, -2.23, 0.00, 0.67, 0, 0
800896, 1, 8732, 103178, -0.65, -0.63, 0.55, 10.75, 1.00, -0.07, -0.09, -2.35, 0.15, 0.64, 0, 0
800960, 1, 8753, 103180, -0.81, -0.65, 0.53, 10.76, 1.00, -0.06, -0.09, -2.32, 0.12, 0.76, 0, 0
801024, 1, 8773, 103175, -0.41, -0.60, 0.55, 10.77, 1.00, -0.06, -0.09, -2.29, 0.03, 0.70, 0, 0
801088, 1, 8794, 103186, -1.31, -0.71, 0.50, 10.77, 1.00, -0.07, -0.09, -2.26, 0.00, 0.70, 0, 0
801152, 1, 8814, 103177, -0.57, -0.67, 0.51, 10.76, 1.00, -0.07, -0.09, -2.26, -0.06, 0.73, 0, 0
801216, 1, 8835, 103180, -0.81, -0.69, 0.50, 10.77, 1.00, -0.06, -0.08, -2.16, -0.06, 0.82, 0, 0
801280, 1, 8855, 103177, -0.57, -0.66, 0.51, 10.78, 1.00, -0.06, -0.08, -2.01, -0.12, 0.70, 0, 0
801344, 1, 8876, 103176, -0.49, -0.62, 0.53, 10.78, 1.00, -0.07, -0.08, -1.95, -0.27, 0.79, 0, 0
801408, 1, 8896, 103180, -0.81, -0.64, 0.51, 10.76, 1.00, -0.07, -0.09, -1.80, -0.46, 0.79, 0, 0
801472, 1, 8916, 103177, -0.57, -0.62, 0.52, 10.78, 1.00, -0.07, -0.09, -1.62, -0.49, 0.76, 0, 0
801536, 1, 8937, 103178, -0.65, -0.61, 0.52, 10.78, 1.00, -0.07, -0.09, -1.59, -0.55, 0.70, 0, 0
801600, 1, 8957, 103179, -0.73, -0.62, 0.51, 10.79, 1.00, -0.07, -0.09, -1.43, -0.52, 0.73, 0, 0
801664, 1, 8978, 103176, -0.49, -0.59, 0.52, 10.77, 1.00, -0.07, -0.09, -1.34, -0.49, 0.58, 0, 0
801728, 1, 8998, 103181, -0.90, -0.63, 0.50, 10.78, 1.00, -0.07, -0.10, -1.46, -0.52, 0.64, 0, 0
801792, 1, 9019, 103175, -0.41, -0.58, 0.52, 10.78, 1.00, -0.07, -0.10, -1.40, -0.43, 0.55, 0, 0
801856, 1, 9039, 103181, -0.90, -0.63, 0.49, 10.78, 1.00, -0.07, -0.10, -1.43, -0.49, 0.58, 0, 0
801920, 1, 9060, 103178, -0.65, -0.62, 0.49, 10.79, 1.00, -0.07, -0.10, -1.52, -0.30, 0.49, 0, 0
801984, 1, 9080, 103182, -0.98, -0.67, 0.46, 10.79, 1.00, -0.07, -0.10, -1.65, -0.27, 0.55, 0, 0
802048, 1, 9101, 103179, -0.73, -0.67, 0.46, 10.79, 1.00, -0.07, -0.10, -1.77, -0.34, 0.52, 0, 0
802112, 1, 9121, 103182, -0.98, -0.71, 0.43, 10.80, 1.00, -0.06, -0.10, -1.80, -0.06, 0.55, 0, 0
802176, 1, 9142, 103177, -0.57, -0.68, 0.45, 10.78, 1.00, -0.06, -0.10, -1.80, -0.12, 0.67, 0, 0
802240, 1, 9162, 103179, -0.73, -0.68, 0.44, 10.78, 1.00, -0.06, -0.10, -2.20, -0.15, 0.64, 0, 0
802304, 1, 9183, 103177, -0.57, -0.65, 0.45, 10.79, 1.00, -0.06, -0.09, -2.07, -0.09, 0.70, 0, 0
802368, 1, 9203, 103178, -0.65, -0.64, 0.46, 10.80, 1.00, -0.06, -0.09, -2.29, -0.06, 0.64, 0, 0
802432, 1, 9224, 103182, -0.98, -0.69, 0.43, 10.78, 1.00, -0.06, -0.09, -2.29, -0.21, 0.76, 0, 0
802496, 1, 9244, 103176, -0.49, -0.65, 0.45, 10.79, 1.00, -0.06, -0.09, -2.29, -0.18, 0.82, 0, 0
802560, 1, 9265, 103183, -1.06, -0.71, 0.42, 10.80, 1.00, -0.06, -0.09, -2.16, -0.03, 0.91, 0, 0
802624, 1, 9285, 103181, -0.90, -0.73, 0.40, 10.79, 1.00, -0.07, -0.09, -2.10, -0.15, 0.88, 0, 0
802688, 1, 9306, 103181, -0.90, -0.75, 0.39, 10.80, 1.00, -0.07, -0.09, -2.01, -0.24, 0.85, 0, 0
802752, 1, 9326, 103180, -0.81, -0.75, 0.38, 10.80, 1.00, -0.07, -0.09, -2.01, -0.30, 0.88, 0, 0
802816, 1, 9347, 103180, -0.81, -0.75, 0.38, 10.79, 1.00, -0.07, -0.09, -1.98, -0.34, 0.82, 0, 0
802880, 1, 9367, 103178, -0.65, -0.73, 0.39, 10.80, 1.00, -0.07, -0.09, -1.80, -0.49, 0.76, 0, 0
802944, 1, 9388, 103179, -0.73, -0.72, 0.39, 10.80, 1.00, -0.07, -0.09, -1.80, -0.43, 0.58, 0, 0
803008, 1, 9408, 103180, -0.81, -0.73, 0.39, 10.81, 1.00, -0.08, -0.09, -1.77, -0.46, 0.70, 0, 0
803072, 1, 9428, 103178, -0.65, -0.71, 0.39, 10.80, 1.00, -0.07, -0.09, -1.59, -0.40, 0.67, 0, 0
803136, 1, 9449, 103178, -0.65, -0.69, 0.40, 10.80, 1.00, -0.07, -0.10, -1.62, -0.55, 0.70, 0, 0
803200, 1, 9469, 103180, -0.81, -0.70, 0.39, 10.80, 1.00, -0.07, -0.10, -1.49, -0.43, 0.55, 0, 0
803264, 1, 9490, 103180, -0.81, -0.71, 0.38, 10.81, 1.00, -0.07, -0.10, -1.55, -0.46, 0.52, 0, 0
803328, 1, 9510, 103180, -0.81, -0.72, 0.38, 10.81, 1.00, -0.07, -0.10, -1.46, -0.52, 0.43, 0, 0
803392, 1, 9531, 103179, -0.73, -0.72, 0.38, 10.80, 1.00, -0.07, -0.10, -1.62, -0.27, 0.37, 0, 0
803456, 1, 9551, 103179, -0.73, -0.71, 0.37, 10.81, 1.00, -0.07, -0.10, -1.65, -0.12, 0.58, 0, 0
803520, 1, 9572, 103180, -0.81, -0.72, 0.37, 10.81, 1.00, -0.07, -0.10, -1.74, -0.34, 0.46, 0, 0
803584, 1, 9592, 103179, -0.73, -0.72, 0.37, 10.81, 1.00, -0.06, -0.10, -1.83, -0.21, 0.52, 0, 0
803648, 1, 9613, 103184, -1.14, -0.78, 0.34, 10.82, 1.00, -0.06, -0.09, -1.92, -0.24, 0.55, 0, 0
803712, 1, 9633, 103177, -0.57, -0.74, 0.35, 10.81, 1.00, -0.06, -0.09, -1.98, -0.03, 0.70, 0, 0
803776, 1, 9654, 103177, -0.57, -0.70, 0.37, 10.82, 1.00, -0.06, -0.09, -2.10, -0.15, 0.79, 0, 0
803840, 1, 9674, 103177, -0.57, -0.67, 0.38, 10.81, 1.00, -0.06, -0.09, -2.13, -0.21, 0.67, 0, 0
803904, 1, 9695, 103181, -0.90, -0.70, 0.36, 10.83, 1.00, -0.06, -0.09, -2.10, -0.12, 0.73, 0, 0
803968, 1, 9715, 103177, -0.57, -0.67, 0.37, 10.82, 1.00, -0.07, -0.09, -2.04, -0.18, 0.95, 0, 0
804032, 1, 9736, 103181, -0.90, -0.70, 0.36, 10.82, 1.00, -0.06, -0.09, -2.04, -0.18, 0.85, 0, 0
804096, 1, 9756, 103178, -0.65, -0.69, 0.36, 10.82, 1.00, -0.07, -0.09, -2.29, -0.30, 0.88, 0, 0
804160, 1, 9777, 103178, -0.65, -0.67, 0.37, 10.82, 1.00, -0.07, -0.09, -2.13, -0.37, 0.82, 0, 0
804224, 1, 9797, 103176, -0.49, -0.63, 0.38, 10.82, 1.00, -0.07, -0.09, -2.23, -0.24, 0.73, 0, 0
804288, 1, 9818, 103180, -0.81, -0.66, 0.37, 10.82, 1.00, -0.07, -0.09, -2.07, -0.34, 0.73, 0, 0
804352, 1, 9838, 103175, -0.41, -0.61, 0.39, 10.82, 1.00, -0.08, -0.09, -1.83, -0.40, 0.76, 0, 0
804416, 1, 9859, 103180, -0.81, -0.63, 0.37, 10.82, 1.00, -0.07, -0.09, -1.80, -0.27, 0.76, 0, 0
804480, 1, 9879, 103180, -0.81, -0.66, 0.36, 10.83, 1.00, -0.08, -0.09, -1.89, -0.34, 0.46, 0, 0
804544, 1, 9900, 103182, -0.98, -0.70, 0.34, 10.84, 1.00, -0.08, -0.09, -1.55, -0.18, 0.58, 0, 0
804608, 1, 9920, 103178, -0.65, -0.69, 0.34, 10.83, 1.00, -0.07, -0.09, -1.62, -0.40, 0.58, 0, 0
804672, 1, 9940, 103178, -0.65, -0.67, 0.35, 10.83, 1.00, -0.07, -0.09, -1.65, -0.37, 0.34, 0, 0
804736, 1, 9961, 103182, -0.98, -0.72, 0.32, 10.82, 1.00, -0.07, -0.09, -1.52, -0.30, 0.37, 0, 0
804800, 1, 9981, 103180, -0.81, -0.73, 0.32, 10.83, 1.00, -0.07, -0.09, -1.34, -0.37, 0.49, 0, 0
804864, 1, 10002, 103177, -0.57, -0.69, 0.33, 10.83, 1.00, -0.07, -0.10, -1.52, -0.21, 0.46, 0, 0
804928, 1, 10022, 103181, -0.90, -0.72, 0.32, 10.84, 1.00, -0.06, -0.09, -0.06, -0.15, 0.27, 0, 3
804992, 1, 10043, 103173, -0.24, -0.64, 0.36, 10.84, 1.00, -0.06, -0.09, -1.77, -0.30, 0.55, 0, 0
805056, 1, 10063, 103181, -0.90, -0.67, 0.34, 10.85, 1.00, -0.06, -0.09, -1.65, -0.34, 0.55, 0, 0
805120, 1, 10084, 103181, -0.90, -0.70, 0.32, 10.84, 1.00, -0.06, -0.09, -1.80, -0.24, 0.70, 0, 0
805184, 1, 10104, 103181, -0.90, -0.73, 0.30, 10.84, 1.00, -0.06, -0.09, -1.92, -0.27, 0.73, 0, 0
805248, 1, 10125, 103177, -0.57, -0.70, 0.32, 10.85, 1.00, -0.06, -0.09, -2.01, -0.15, 0.79, 0, 0
805312, 1, 10145, 103177, -0.57, -0.67, 0.33, 10.85, 1.00, -0.06, -0.09, -2.01, -0.24, 0.82, 0, 0
805376, 1, 10166, 103180, -0.81, -0.69, 0.32, 10.85, 1.00, -0.06, -0.09, -2.10, -0.27, 0.91, 0, 0
805440, 1, 10186, 103179, -0.73, -0.69, 0.32, 10.85, 1.00, -0.06, -0.09, -2.16, -0.21, 0.95, 0, 0
805504, 1, 10207, 103180, -0.81, -0.70, 0.31, 10.85, 1.00, -0.07, -0.09, -2.10, -0.21, 0.98, 0, 0
805568, 1, 10227, 103178, -0.65, -0.69, 0.31, 10.85, 1.00, -0.07, -0.09, -2.23, -0.21, 0.82, 0, 0
805632, 1, 10248, 103179, -0.73, -0.69, 0.31, 10.85, 1.00, -0.07, -0.09, -2.26, 0.00, 0.73, 0, 0
805696, 1, 10268, 103178, -0.65, -0.68, 0.31, 10.84, 1.00, -0.08, -0.09, -1.98, -0.03, 0.82, 0, 0
805760, 1, 10289, 103182, -0.98, -0.72, 0.29, 10.85, 1.00, -0.07, -0.09, -1.95, -0.27, 0.73, 0, 0
805824, 1, 10309, 103178, -0.65, -0.70, 0.30, 10.85, 1.00, -0.07, -0.09, -1.92, -0.34, 0.73, 0, 0
805888, 1, 10330, 103181, -0.90, -0.73, 0.28, 10.85, 1.00, -0.07, -0.09, -1.71, -0.18, 0.70, 0, 0
805952, 1, 10350, 103186, -1.31, -0.82, 0.24, 10.86, 1.00, -0.07, -0.09, -1.89, -0.24, 0.64, 0, 0
806016, 1, 10371, 103179, -0.73, -0.80, 0.25, 10.86, 1.00, -0.07, -0.09, -1.83, -0.15, 0.58, 0, 0
806080, 1, 10391, 103178, -0.65, -0.77, 0.26, 10.85, 1.00, -0.07, -0.09, -1.80, -0.24, 0.52, 0, 0
806144, 1, 10412, 103178, -0.65, -0.74, 0.27, 10.86, 1.00, -0.07, -0.09, -1.68, -0.27, 0.49, 0, 0
806208, 1, 10432, 103178, -0.65, -0.72, 0.28, 10.86, 1.00, -0.07, -0.09, -1.62, -0.43, 0.49, 0, 0
806272, 1, 10452, 103181, -0.90, -0.75, 0.26, 10.85, 1.00, -0.07, -0.09, -1.71, -0.43, 0.55, 0, 0
806336, 1, 10473, 103180, -0.81, -0.75, 0.26, 10.86, 1.00, -0.06, -0.09, -1.55, -0.40, 0.64, 0, 0
806400, 1, 10493, 103177, -0.57, -0.72, 0.28, 10.86, 1.00, -0.06, -0.09, -1.55, -0.30, 0.58, 0, 0
806464, 1, 10514, 103176, -0.49, -0.67, 0.30, 10.86, 1.00, -0.06, -0.09, -1.68, -0.34, 0.61, 0, 0
806528, 1, 10534, 103180, -0.81, -0.69, 0.29, 10.87, 1.00, -0.06, -0.09, -1.65, -0.34, 0.64, 0, 0
806592, 1, 10555, 103178, -0.65, -0.68, 0.29, 10.87, 1.00, -0.06, -0.09, -1.71, -0.40, 0.76, 0, 0
806656, 1, 10575, 103174, -0.32, -0.61, 0.32, 10.85, 1.00, -0.06, -0.09, -1.77, -0.43, 0.91, 0, 0
806720, 1, 10596, 103185, -1.22, -0.71, 0.27, 10.87, 1.00, -0.07, -0.10, -1.95, -0.37, 0.79, 0, 0
806784, 1, 10616, 103179, -0.73, -0.71, 0.27, 10.86, 1.00, -0.07, -0.09, -1.95, -0.24, 0.88, 0, 0
806848, 1, 10637, 103178, -0.65, -0.69, 0.28, 10.87, 1.00, -0.07, -0.10, -2.13, -0.27, 0.73, 0, 0
806912, 1, 10657, 103182, -0.98, -0.73, 0.25, 10.87, 1.00, -0.07, -0.10, -2.04, -0.06, 0.73, 0, 0
806976, 1, 10678, 103181, -0.90, -0.76, 0.24, 10.88, 1.00, -0.07, -0.10, -2.07, -0.24, 0.70, 0, 0
807040, 1, 10698, 103182, -0.98, -0.79, 0.23, 10.87, 1.00, -0.07, -0.09, -2.13, -0.24, 0.76, 0, 0
807104, 1, 10719, 103182, -0.98, -0.82, 0.21, 10.87, 1.00, -0.07, -0.09, -2.16, -0.12, 0.76, 0, 0
807168, 1, 10739, 103177, -0.57, -0.77, 0.23, 10.88, 1.00, -0.07, -0.09, -2.20, -0.15, 0.70, 0, 0
807232, 1, 10760, 103180, -0.81, -0.77, 0.23, 10.87, 1.00, -0.07, -0.09, -2.01, -0.18, 0.58, 0, 0
807296, 1, 10780, 103177, -0.57, -0.73, 0.25, 10.88, 1.00, -0.07, -0.09, -2.01, -0.24, 0.70, 0, 0
807360, 1, 10801, 103183, -1.06, -0.78, 0.22, 10.88, 1.00, -0.07, -0.09, -1.98, -0.18, 0.52, 0, 0
807424, 1, 10821, 103179, -0.73, -0.77, 0.23, 10.88, 1.00, -0.07, -0.09, -1.77, -0.09, 0.49, 0, 0
807488, 1, 10842, 103179, -0.73, -0.76, 0.23, 10.88, 1.00, -0.07, -0.09, -1.83, -0.34, 0.46, 0, 0
807552, 1, 10862, 103178, -0.65, -0.74, 0.24, 10.89, 1.00, -0.07, -0.09, -1.77, -0.24, 0.52, 0, 0
807616, 1, 10883, 103178, -0.65, -0.72, 0.25, 10.88, 1.00, -0.07, -0.09, -1.65, -0.30, 0.64, 0, 0
807680, 1, 10903, 103178, -0.65, -0.70, 0.26, 10.87, 1.00, -0.07, -0.09, -1.65, -0.43, 0.55, 0, 0
807744, 1, 10924, 103177, -0.57, -0.67, 0.27, 10.88, 1.00, -0.06, -0.09, -1.74, -0.46, 0.58, 0, 0
807808, 1, 10944, 103182, -0.98, -0.72, 0.24, 10.88, 1.00, -0.06, -0.09, -1.62, -0.49, 0.67, 0, 0
807872, 1, 10964, 103176, -0.49, -0.68, 0.26, 10.89, 1.00, -0.06, -0.09, -1.71, -0.49, 0.64, 0, 0
807936, 1, 10985, 103176, -0.49, -0.64, 0.28, 10.89, 1.00, -0.06, -0.09, -1.77, -0.27, 0.55, 0, 0
808000, 1, 11005, 103178, -0.65, -0.63, 0.28, 10.88, 1.00, -0.07, -0.09, -1.71, -0.37, 0.70, 0, 0
808064, 1, 11026, 103181, -0.90, -0.67, 0.26, 10.89, 1.00, -0.06, -0.10, -1.98, -0.37, 0.67, 0, 0
808128, 1, 11046, 103180, -0.81, -0.69, 0.25, 10.89, 1.00, -0.07, -0.10, -1.86, -0.30, 0.64, 0, 0
808192, 1, 11067, 103177, -0.57, -0.67, 0.26, 10.88, 1.00, -0.07, -0.09, -1.95, -0.30, 0.82, 0, 0
808256, 1, 11087, 103179, -0.73, -0.67, 0.26, 10.89, 1.00, -0.07, -0.10, -1.98, -0.18, 0.76, 0, 0
808320, 1, 11108, 103182, -0.98, -0.72, 0.23, 10.90, 1.00, -0.07, -0.10, -1.89, -0.18, 0.58, 0, 0
808384, 1, 11128, 103180, -0.81, -0.73, 0.22, 10.89, 1.00, -0.07, -0.10, -1.98, -0.30, 0.79, 0, 0
808448, 1, 11149, 103181, -0.90, -0.75, 0.21, 10.90, 1.00, -0.07, -0.10, -2.10, -0.12, 0.73, 0, 0
808512, 1, 11169, 103181, -0.90, -0.77, 0.20, 10.89, 1.00, -0.07, -0.09, -1.98, -0.12, 0.52, 0, 0
808576, 1, 11190, 103182, -0.98, -0.80, 0.19, 10.90, 1.00, -0.07, -0.09, -2.20, -0.06, 0.73, 0, 0
808640, 1, 11210, 103178, -0.65, -0.77, 0.20, 10.89, 1.00, -0.07, -0.09, -1.92, -0.06, 0.70, 0, 0
808704, 1, 11231, 103178, -0.65, -0.75, 0.21, 10.90, 1.00, -0.07, -0.09, -2.16, -0.15, 0.61, 0, 0
808768, 1, 11251, 103178, -0.65, -0.73, 0.22, 10.90, 0.99, -0.07, -0.09, -2.10, 0.03, 0.67, 0, 0
808832, 1, 11272, 103180, -0.81, -0.74, 0.21, 10.90, 1.00, -0.07, -0.09, -1.95, -0.15, 0.67, 0, 0
808896, 1, 11292, 103180, -0.81, -0.75, 0.21, 10.89, 1.00, -0.06, -0.09, -1.86, -0.34, 0.49, 0, 0
808960, 1, 11313, 103175, -0.41, -0.69, 0.24, 10.90, 1.00, -0.07, -0.09, -1.71, -0.30, 0.52, 0, 0
809024, 1, 11333, 103177, -0.57, -0.66, 0.25, 10.90, 1.00, -0.07, -0.09, -1.83, -0.27, 0.61, 0, 0
809088, 1, 11354, 103179, -0.73, -0.67, 0.24, 10.90, 1.00, -0.06, -0.09, -1.68, -0.27, 0.67, 0, 0
809152, 1, 11374, 103179, -0.73, -0.67, 0.24, 10.91, 1.00, -0.06, -0.09, -1.77, -0.30, 0.61, 0, 0
809216, 1, 11395, 103181, -0.90, -0.71, 0.22, 10.91, 1.00, -0.07, -0.09, -1.55, -0.52, 0.49, 0, 0
809280, 1, 11415, 103178, -0.65, -0.69, 0.23, 10.91, 1.00, -0.06, -0.09, -1.62, -0.37, 0.67, 0, 0
809344, 1, 11436, 103176, -0.49, -0.65, 0.24, 10.89, 1.00, -0.07, -0.09, -1.80, -0.40, 0.67, 0, 0
809408, 1, 11456, 103177, -0.57, -0.63, 0.25, 10.91, 1.00, -0.07, -0.10, -1.71, -0.40, 0.67, 0, 0
809472, 1, 11476, 103183, -1.06, -0.70, 0.22, 10.90, 1.00, -0.07, -0.10, -1.62, -0.40, 0.64, 0, 0
809536, 1, 11497, 103179, -0.73, -0.70, 0.22, 10.92, 1.00, -0.07, -0.10, -1.83, -0.37, 0.64, 0, 0
809600, 1, 11517, 103179, -0.73, -0.70, 0.22, 10.91, 1.00, -0.07, -0.10, -1.74, -0.30, 0.76, 0, 0
809664, 1, 11538, 103179, -0.73, -0.70, 0.21, 10.91, 1.00, -0.07, -0.10, -1.74, -0.27, 0.73, 0, 0
809728, 1, 11558, 103178, -0.65, -0.69, 0.22, 10.91, 1.00, -0.06, -0.10, -1.89, -0.27, 0.64, 0, 0
809792, 1, 11579, 103177, -0.57, -0.67, 0.23, 10.92, 1.00, -0.07, -0.09, -2.01, -0.24, 0.79, 0, 0
809856, 1, 11599, 103179, -0.73, -0.67, 0.23, 10.92, 1.00, -0.07, -0.10, -1.95, -0.15, 0.70, 0, 0
809920, 1, 11620, 103181, -0.90, -0.71, 0.21, 10.92, 1.00, -0.07, -0.10, -1.98, -0.21, 0.52, 0, 0
809984, 1, 11640, 103181, -0.90, -0.73, 0.19, 10.92, 0.99, -0.07, -0.09, -2.10, -0.12, 0.64, 0, 0
810048, 1, 11661, 103176, -0.49, -0.69, 0.21, 10.92, 1.00, -0.07, -0.09, -2.10, -0.12, 0.55, 0, 0
810112, 1, 11681, 103178, -0.65, -0.68, 0.22, 10.91, 1.00, -0.07, -0.09, -2.01, -0.18, 0.61, 0, 0
810176, 1, 11702, 103180, -0.81, -0.70, 0.21, 10.92, 1.00, -0.07, -0.09, -2.07, -0.24, 0.61, 0, 0
810240, 1, 11722, 103178, -0.65, -0.68, 0.21, 10.93, 1.00, -0.06, -0.09, -1.92, -0.18, 0.67, 0, 0
810304, 1, 11743, 103178, -0.65, -0.67, 0.22, 10.92, 1.00, -0.06, -0.09, -2.04, -0.21, 0.73, 0, 0
810368, 1, 11763, 103176, -0.49, -0.64, 0.23, 10.92, 1.00, -0.07, -0.09, -1.89, -0.40, 0.61, 0, 0
810432, 1, 11784, 103177, -0.57, -0.62, 0.24, 10.93, 1.00, -0.07, -0.09, -1.83, -0.49, 0.82, 0, 0
810496, 1, 11804, 103182, -0.98, -0.68, 0.21, 10.93, 1.00, -0.07, -0.09, -1.80, -0.30, 0.67, 0, 0
810560, 1, 11825, 103183, -1.06, -0.74, 0.18, 10.93, 1.00, -0.07, -0.09, -1.68, -0.40, 0.76, 0, 0
810624, 1, 11845, 103178, -0.65, -0.72, 0.19, 10.92, 1.00, -0.07, -0.09, -1.80, -0.34, 0.73, 0, 0
810688, 1, 11866, 103181, -0.90, -0.74, 0.18, 10.94, 1.00, -0.07, -0.09, -1.74, -0.40, 0.67, 0, 0
810752, 1, 11886, 103181, -0.90, -0.77, 0.17, 10.93, 1.00, -0.07, -0.09, -1.80, -0.40, 0.58, 0, 0
810816, 1, 11907, 103177, -0.57, -0.73, 0.18, 10.92, 1.00, -0.07, -0.09, -1.65, -0.43, 0.73, 0, 0
810880, 1, 11927, 103178, -0.65, -0.71, 0.19, 10.94, 1.00, -0.07, -0.10, -1.74, -0.43, 0.70, 0, 0
810944, 1, 11948, 103178, -0.65, -0.70, 0.20, 10.94, 1.00, -0.07, -0.10, -1.77, -0.30, 0.64, 0, 0
811008, 1, 11968, 103178, -0.65, -0.69, 0.20, 10.93, 1.00, -0.07, -0.10, -1.74, -0.40, 0.64, 0, 0
811072, 1, 11988, 103183, -1.06, -0.74, 0.17, 10.93, 1.00, -0.07, -0.10, -1.83, -0.40, 0.58, 0, 0
811136, 1, 12009, 103180, -0.81, -0.75, 0.17, 10.93, 1.00, -0.07, -0.10, -1.89, -0.18, 0.61, 0, 0
811200, 1, 12029, 103178, -0.65, -0.73, 0.18, 10.93, 1.00, -0.07, -0.10, -1.92, -0.37, 0.67, 0, 0
811264, 1, 12050, 103178, -0.65, -0.71, 0.19, 10.93, 1.00, -0.07, -0.09, -1.95, -0.12, 0.58, 0, 0
811328, 1, 12070, 103179, -0.73, -0.71, 0.18, 10.93, 1.00, -0.07, -0.09, -1.95, -0.15, 0.67, 0, 0
811392, 1, 12091, 103180, -0.81, -0.73, 0.18, 10.94, 1.00, -0.07, -0.09, -1.83, -0.24, 0.64, 0, 0
811456, 1, 12111, 103180, -0.81, -0.74, 0.17, 10.94, 1.00, -0.07, -0.09, -2.04, -0.09, 0.67, 0, 0
811520, 1, 12132, 103175, -0.41, -0.68, 0.20, 10.93, 1.00, -0.07, -0.09, -1.92, -0.37, 0.76, 0, 0
811584, 1, 12152, 103178, -0.65, -0.67, 0.20, 10.93, 1.00, -0.07, -0.09, -1.83, -0.30, 0.58, 0, 0
811648, 1, 12173, 103180, -0.81, -0.69, 0.19, 10.94, 1.00, -0.07, -0.09, -1.98, -0.18, 0.55, 0, 0
811712, 1, 12193, 103180, -0.81, -0.71, 0.18, 10.94, 1.00, -0.07, -0.09, -1.83, -0.27, 0.73, 0, 0
811776, 1, 12214, 103180, -0.81, -0.72, 0.18, 10.95, 1.00, -0.07, -0.09, -1.95, -0.34, 0.79, 0, 0
811840, 1, 12234, 103178, -0.65, -0.71, 0.18, 10.95, 1.00, -0.07, -0.09, -1.95, -0.30, 0.67, 0, 0
811904, 1, 12255, 103176, -0.49, -0.66, 0.20, 10.94, 1.00, -0.06, -0.09, -1.89, -0.24, 0.67, 0, 0
811968, 1, 12275, 103178, -0.65, -0.66, 0.20, 10.94, 1.00, -0.07, -0.09, -1.86, -0.34, 0.58, 0, 0
812032, 1, 12296, 103180, -0.81, -0.68, 0.19, 10.95, 1.00, -0.06, -0.09, -1.68, -0.21, 0.67, 0, 0
812096, 1, 12316, 103172, -0.16, -0.59, 0.23, 10.95, 1.00, -0.07, -0.09, -1.68, -0.24, 0.73, 0, 0
812160, 1, 12337, 103179, -0.73, -0.61, 0.22, 10.94, 1.00, -0.07, -0.09, -1.86, -0.37, 0.73, 0, 0
812224, 1, 12357, 103181, -0.90, -0.65, 0.20, 10.95, 1.00, -0.07, -0.09, -1.74, -0.30, 0.67, 0, 0
812288, 1, 12378, 103177, -0.57, -0.63, 0.21, 10.94, 1.00, -0.07, -0.10, -1.74, -0.30, 0.70, 0, 0
812352, 1, 12398, 103183, -1.06, -0.70, 0.18, 10.94, 1.00, -0.07, -0.10, -1.74, -0.24, 0.58, 0, 0
812416, 1, 12419, 103177, -0.57, -0.68, 0.19, 10.95, 1.00, -0.07, -0.09, -1.74, -0.43, 0.64, 0, 0
812480, 1, 12439, 103179, -0.73, -0.68, 0.19, 10.95, 1.00, -0.07, -0.10, -1.86, -0.27, 0.61, 0, 0
812544, 1, 12460, 103180, -0.81, -0.70, 0.18, 10.95, 1.00, -0.06, -0.10, -1.80, -0.21, 0.64, 0, 0
812608, 1, 12480, 103178, -0.65, -0.69, 0.18, 10.96, 1.00, -0.07, -0.10, -1.92, -0.34, 0.61, 0, 0
812672, 1, 12500, 103178, -0.65, -0.68, 0.19, 10.97, 1.00, -0.07, -0.10, -1.98, -0.21, 0.52, 0, 0
812736, 1, 12521, 103177, -0.57, -0.66, 0.19, 10.96, 1.00, -0.06, -0.09, -1.98, -0.12, 0.55, 0, 0
812800, 1, 12541, 103178, -0.65, -0.65, 0.20, 10.96, 1.00, -0.06, -0.09, -1.80, -0.30, 0.67, 0, 0
812864, 1, 12562, 103181, -0.90, -0.69, 0.18, 10.96, 1.00, -0.06, -0.09, -2.01, -0.18, 0.55, 0, 0
812928, 1, 12582, 103175, -0.41, -0.64, 0.20, 10.96, 1.00, -0.06, -0.09, -1.98, -0.21, 0.58, 0, 0
812992, 1, 12603, 103179, -0.73, -0.65, 0.19, 10.96, 1.00, -0.06, -0.09, -2.01, -0.34, 0.73, 0, 0
813056, 1, 12623, 103182, -0.98, -0.70, 0.17, 10.96, 1.00, -0.07, -0.09, -1.83, -0.15, 0.79, 0, 0
813120, 1, 12644, 103180, -0.81, -0.72, 0.16, 10.96, 1.00, -0.07, -0.09, -2.04, -0.24, 0.73, 0, 0
813184, 1, 12664, 103180, -0.81, -0.73, 0.15, 10.96, 1.00, -0.07, -0.09, -1.95, -0.27, 0.70, 0, 0
813248, 1, 12685, 103178, -0.65, -0.71, 0.16, 10.97, 1.00, -0.07, -0.09, -1.89, -0.30, 0.61, 0, 0
813312, 1, 12705, 103179, -0.73, -0.71, 0.16, 10.97, 1.00, -0.07, -0.09, -1.95, -0.34, 0.70, 0, 0
813376, 1, 12726, 103182, -0.98, -0.75, 0.14, 10.97, 1.00, -0.07, -0.09, -1.86, -0.27, 0.76, 0, 0
813440, 1, 12746, 103177, -0.57, -0.72, 0.16, 10.97, 1.00, -0.07, -0.09, -1.86, -0.46, 0.55, 0, 0
813504, 1, 12767, 103178, -0.65, -0.71, 0.16, 10.96, 1.00, -0.07, -0.09, -1.89, -0.37, 0.79, 0, 0
813568, 1, 12787, 103181, -0.90, -0.73, 0.15, 10.97, 1.00, -0.07, -0.09, -1.83, -0.37, 0.58, 0, 0
813632, 1, 12808, 103176, -0.49, -0.69, 0.17, 10.97, 1.00, -0.07, -0.09, -1.83, -0.27, 0.61, 0, 0
813696, 1, 12828, 103176, -0.49, -0.65, 0.19, 10.98, 1.00, -0.07, -0.09, -1.68, -0.30, 0.76, 0, 0
813760, 1, 12849, 103176, -0.49, -0.62, 0.20, 10.97, 1.00, -0.07, -0.09, -1.71, -0.18, 0.70, 0, 0
813824, 1, 12869, 103172, -0.16, -0.54, 0.24, 10.97, 1.00, -0.07, -0.09, -1.77, -0.12, 0.61, 0, 0
813888, 1, 12890, 103180, -0.81, -0.58, 0.22, 10.97, 1.00, -0.07, -0.09, -1.74, -0.30, 0.49, 0, 0
813952, 1, 12910, 103177, -0.57, -0.57, 0.22, 10.98, 1.00, -0.07, -0.10, -1.77, -0.15, 0.61, 0, 0
814016, 1, 12931, 103178, -0.65, -0.58, 0.22, 10.98, 1.00, -0.07, -0.10, -1.89, -0.34, 0.61, 0, 0
814080, 1, 12951, 103174, -0.32, -0.53, 0.24, 10.98, 1.00, -0.06, -0.09, -1.74, -0.30, 0.55, 0, 0
814144, 1, 12972, 103181, -0.90, -0.59, 0.21, 10.98, 1.00, -0.07, -0.10, -2.10, -0.30, 0.70, 0, 0
814208, 1, 12992, 103183, -1.06, -0.66, 0.17, 10.98, 1.00, -0.07, -0.09, -1.92, -0.18, 0.52, 0, 0
814272, 1, 13012, 103177, -0.57, -0.65, 0.18, 10.98, 1.00, -0.06, -0.09, -1.95, -0.21, 0.67, 0, 0
814336, 1, 13033, 103181, -0.90, -0.68, 0.16, 10.98, 1.00, -0.06, -0.09, -1.89, -0.34, 0.73, 0, 0
814400, 1, 13053, 103176, -0.49, -0.65, 0.18, 10.98, 1.00, -0.07, -0.09, -2.01, -0.15, 0.58, 0, 0
814464, 1, 13074, 103176, -0.49, -0.62, 0.19, 10.98, 1.00, -0.07, -0.09, -2.01, -0.09, 0.82, 0, 0
814528, 1, 13094, 103174, -0.32, -0.56, 0.22, 10.98, 1.00, -0.06, -0.09, -1.95, -0.18, 0.67, 0, 0
814592, 1, 13115, 103181, -0.90, -0.62, 0.19, 10.98, 1.00, -0.07, -0.09, -1.98, -0.27, 0.82, 0, 0
814656, 1, 13135, 103177, -0.57, -0.60, 0.20, 10.98, 1.00, -0.07, -0.09, -1.95, -0.34, 0.76, 0, 0
814720, 1, 13156, 103178, -0.65, -0.61, 0.19, 10.98, 1.00, -0.07, -0.09, -1.95, -0.27, 0.76, 0, 0
814784, 1, 13176, 103182, -0.98, -0.67, 0.16, 10.99, 1.00, -0.07, -0.09, -1.71, -0.40, 0.73, 0, 0
814848, 1, 13197, 103178, -0.65, -0.66, 0.17, 10.99, 1.00, -0.07, -0.09, -1.95, -0.43, 0.76, 0, 0
814912, 1, 13217, 103180, -0.81, -0.68, 0.15, 10.99, 1.00, -0.07, -0.09, -1.86, -0.24, 0.55, 0, 0
814976, 1, 13238, 103174, -0.32, -0.62, 0.18, 10.98, 1.00, -0.07, -0.09, -1.92, -0.30, 0.67, 0, 0
815040, 1, 13258, 103182, -0.98, -0.67, 0.16, 10.98, 1.00, -0.07, -0.09, -1.83, -0.24, 0.58, 0, 0
815104, 1, 13279, 103181, -0.90, -0.71, 0.14, 10.98, 1.00, -0.07, -0.09, -1.77, -0.30, 0.61, 0, 0
815168, 1, 13299, 103181, -0.90, -0.74, 0.13, 10.99, 1.00, -0.07, -0.09, -1.71, -0.30, 0.49, 0, 0
815232, 1, 13320, 103178, -0.65, -0.72, 0.13, 11.00, 1.00, -0.07, -0.09, -1.62, -0.37, 0.58, 0, 0
815296, 1, 13340, 103178, -0.65, -0.71, 0.14, 10.99, 1.00, -0.07, -0.09, -1.74, -0.30, 0.58, 0, 0
815360, 1, 13361, 103179, -0.73, -0.71, 0.14, 10.99, 1.00, -0.07, -0.09, -1.83, -0.34, 0.67, 0, 0
815424, 1, 13381, 103180, -0.81, -0.72, 0.13, 11.00, 1.00, -0.07, -0.09, -1.77, -0.24, 0.64, 0, 0
815488, 1, 13402, 103177, -0.57, -0.69, 0.14, 11.00, 1.00, -0.07, -0.09, -1.83, -0.37, 0.46, 0, 0
815552, 1, 13422, 103181, -0.90, -0.73, 0.13, 11.00, 1.00, -0.06, -0.09, -1.89, -0.27, 0.55, 0, 0
815616, 1, 13443, 103177, -0.57, -0.70, 0.14, 10.98, 1.00, -0.07, -0.09, -1.95, -0.30, 0.73, 0, 0
815680, 1, 13463, 103185, -1.22, -0.78, 0.10, 11.00, 1.00, -0.06, -0.09, -2.01, -0.30, 0.67, 0, 0
815744, 1, 13484, 103180, -0.81, -0.79, 0.10, 11.00, 1.00, -0.07, -0.09, -2.10, -0.24, 0.67, 0, 0
815808, 1, 13504, 103178, -0.65, -0.76, 0.11, 11.00, 1.00, -0.07, -0.09, -1.92, -0.15, 0.64, 0, 0
815872, 1, 13524, 103175, -0.41, -0.70, 0.14, 11.00, 1.00, -0.07, -0.09, -1.95, -0.24, 0.82, 0, 0
815936, 1, 13545, 103179, -0.73, -0.70, 0.14, 11.00, 1.00, -0.07, -0.09, -1.92, -0.27, 0.70, 0, 0
816000, 1, 13565, 103179, -0.73, -0.70, 0.14, 11.00, 1.00, -0.07, -0.10, -1.95, -0.15, 0.76, 0, 0
816064, 1, 13586, 103181, -0.90, -0.73, 0.13, 11.00, 1.00, -0.07, -0.09, -1.92, -0.27, 0.67, 0, 0
816128, 1, 13606, 103183, -1.06, -0.79, 0.10, 11.01, 1.00, -0.07, -0.09, -1.86, -0.30, 0.76, 0, 0
816192, 1, 13627, 103179, -0.73, -0.77, 0.11, 11.01, 1.00, -0.07, -0.10, -1.86, -0.34, 0.73, 0, 0
816256, 1, 13647, 103179, -0.73, -0.77, 0.11, 11.00, 1.00, -0.07, -0.09, -1.74, -0.30, 0.76, 0, 0
816320, 1, 13668, 103179, -0.73, -0.76, 0.12, 11.00, 1.00, -0.07, -0.09, -1.98, -0.18, 0.67, 0, 0
816384, 1, 13688, 103178, -0.65, -0.74, 0.12, 11.00, 1.00, -0.07, -0.09, -1.83, -0.24, 0.67, 0, 0
816448, 1, 13709, 103173, -0.24, -0.65, 0.17, 11.00, 1.00, -0.07, -0.09, -1.71, -0.18, 0.61, 0, 0
816512, 1, 13729, 103178, -0.65, -0.65, 0.17, 11.00, 1.00, -0.07, -0.09, -1.80, -0.24, 0.64, 0, 0
816576, 1, 13750, 103175, -0.41, -0.60, 0.19, 11.00, 1.00, -0.07, -0.09, -1.62, -0.30, 0.64, 0, 0
816640, 1, 13770, 103179, -0.73, -0.62, 0.18, 11.01, 1.00, -0.07, -0.09, -1.80, -0.27, 0.64, 0, 0
816704, 1, 13791, 103179, -0.73, -0.64, 0.17, 11.00, 1.00, -0.06, -0.09, -1.83, -0.24, 0.49, 0, 0
816768, 1, 13811, 103177, -0.57, -0.62, 0.18, 11.01, 1.00, -0.07, -0.09, -1.80, -0.24, 0.61, 0, 0
816832, 1, 13832, 103181, -0.90, -0.67, 0.16, 11.01, 1.00, -0.07, -0.09, -1.74, -0.37, 0.67, 0, 0
816896, 1, 13852, 103179, -0.73, -0.67, 0.15, 11.01, 1.00, -0.06, -0.09, -1.74, -0.24, 0.70, 0, 0
816960, 1, 13873, 103179, -0.73, -0.68, 0.15, 11.01, 1.00, -0.07, -0.09, -1.89, -0.34, 0.64, 0, 0
817024, 1, 13893, 103181, -0.90, -0.71, 0.13, 11.01, 1.00, -0.07, -0.09, -1.92, -0.27, 0.67, 0, 0
817088, 1, 13914, 103175, -0.41, -0.66, 0.16, 11.01, 1.00, -0.06, -0.09, -1.92, -0.30, 0.58, 0, 0
817152, 1, 13934, 103177, -0.57, -0.64, 0.17, 11.01, 1.00, -0.07, -0.10, -1.86, -0.34, 0.70, 0, 0
817216, 1, 13955, 103178, -0.65, -0.64, 0.17, 11.02, 1.00, -0.07, -0.09, -2.04, -0.27, 0.79, 0, 0
817280, 1, 13975, 103179, -0.73, -0.65, 0.16, 11.01, 1.00, -0.07, -0.09, -1.98, -0.21, 0.73, 0, 0
817344, 1, 13996, 103179, -0.73, -0.66, 0.15, 11.01, 1.00, -0.07, -0.10, -2.07, -0.18, 0.73, 0, 0
817408, 1, 14016, 103178, -0.65, -0.66, 0.16, 11.01, 1.00, -0.07, -0.09, -1.92, -0.34, 0.76, 0, 0
817472, 1, 14036, 103177, -0.57, -0.64, 0.16, 11.02, 1.00, -0.07, -0.09, -2.10, -0.30, 0.70, 0, 0
817536, 1, 14057, 103183, -1.06, -0.71, 0.13, 11.03, 1.00, -0.07, -0.09, -1.95, -0.15, 0.67, 0, 0
817600, 1, 14077, 103181, -0.90, -0.74, 0.12, 11.02, 1.00, -0.07, -0.09, -1.89, -0.37, 0.64, 0, 0
817664, 1, 14098, 103183, -1.06, -0.79, 0.09, 11.01, 1.00, -0.07, -0.09, -1.92, -0.24, 0.76, 0, 0
817728, 1, 14118, 103178, -0.65, -0.76, 0.10, 11.02, 1.00, -0.07, -0.09, -2.01, -0.30, 0.61, 0, 0
817792, 1, 14139, 103175, -0.41, -0.70, 0.13, 11.01, 1.00, -0.07, -0.09, -2.01, -0.24, 0.64, 0, 0
817856, 1, 14159, 103176, -0.49, -0.66, 0.15, 11.02, 1.00, -0.07, -0.09, -1.77, -0.27, 0.64, 0, 0
817920, 1, 14180, 103173, -0.24, -0.59, 0.19, 11.01, 1.00, -0.07, -0.09, -1.77, -0.30, 0.76, 0, 0
817984, 1, 14200, 103177, -0.57, -0.58, 0.19, 11.03, 1.00, -0.07, -0.09, -1.68, -0.30, 0.58, 0, 0
818048, 1, 14221, 103179, -0.73, -0.60, 0.18, 11.02, 1.00, -0.07, -0.09, -1.80, -0.27, 0.52, 0, 0
818112, 1, 14241, 103174, -0.32, -0.55, 0.20, 11.02, 1.00, -0.07, -0.09, -1.80, -0.34, 0.52, 0, 0
818176, 1, 14262, 103183, -1.06, -0.63, 0.16, 11.02, 1.00, -0.07, -0.09, -1.80, -0.43, 0.64, 0, 0
818240, 1, 14282, 103181, -0.90, -0.67, 0.14, 11.03, 1.00, -0.07, -0.09, -1.65, -0.43, 0.67, 0, 0
818304, 1, 14303, 103179, -0.73, -0.68, 0.14, 11.03, 1.00, -0.07, -0.09, -1.83, -0.40, 0.70, 0, 0
818368, 1, 14323, 103177, -0.57, -0.66, 0.15, 11.02, 1.00, -0.06, -0.09, -1.92, -0.21, 0.61, 0, 0
818432, 1, 14344, 103182, -0.98, -0.71, 0.12, 11.03, 1.00, -0.06, -0.10, -1.86, -0.30, 0.67, 0, 0
818496, 1, 14364, 103180, -0.81, -0.72, 0.12, 11.03, 1.00, -0.06, -0.09, -1.98, -0.43, 0.73, 0, 0
818560, 1, 14385, 103180, -0.81, -0.74, 0.11, 11.03, 1.00, -0.07, -0.09, -1.89, -0.30, 0.64, 0, 0
818624, 1, 14405, 103176, -0.49, -0.69, 0.13, 11.03, 1.00, -0.07, -0.09, -1.86, -0.27, 0.67, 0, 0
818688, 1, 14426, 103176, -0.49, -0.66, 0.15, 11.03, 1.00, -0.07, -0.09, -1.86, -0.30, 0.73, 0, 0
818752, 1, 14446, 103178, -0.65, -0.65, 0.15, 11.03, 1.00, -0.07, -0.09, -1.89, -0.21, 0.70, 0, 0
818816, 1, 14467, 103176, -0.49, -0.62, 0.16, 11.04, 1.00, -0.07, -0.09, -1.95, -0.30, 0.73, 0, 0
818880, 1, 14487, 103179, -0.73, -0.64, 0.16, 11.05, 1.00, -0.07, -0.09, -2.04, -0.34, 0.67, 0, 0
818944, 1, 14508, 103178, -0.65, -0.64, 0.16, 11.05, 1.00, -0.07, -0.09, -1.98, -0.21, 0.82, 0, 0
819008, 1, 14528, 103178, -0.65, -0.63, 0.16, 11.06, 1.00, -0.07, -0.09, -1.83, -0.24, 0.67, 0, 0
819072, 1, 14548, 103176, -0.49, -0.61, 0.17, 11.04, 1.00, -0.07, -0.09, -1.86, -0.21, 0.61, 0, 0
819136, 1, 14569, 103175, -0.41, -0.57, 0.19, 11.03, 1.00, -0.07, -0.09, -1.86, -0.15, 0.79, 0, 0
819200, 1, 14589, 103179, -0.73, -0.59, 0.17, 11.04, 1.00, -0.07, -0.09, -1.95, -0.18, 0.61, 0, 0
819264, 1, 14610, 103180, -0.81, -0.63, 0.16, 11.04, 1.00, -0.07, -0.09, -1.89, -0.27, 0.73, 0, 0
819328, 1, 14630, 103173, -0.24, -0.56, 0.19, 11.04, 1.00, -0.07, -0.09, -1.83, -0.15, 0.58, 0, 0
819392, 1, 14651, 103179, -0.73, -0.58, 0.18, 11.04, 1.00, -0.07, -0.09, -1.92, -0.15, 0.58, 0, 0
819456, 1, 14671, 103180, -0.81, -0.62, 0.16, 11.05, 1.00, -0.07, -0.09, -1.89, -0.27, 0.52, 0, 0
819520, 1, 14692, 103178, -0.65, -0.62, 0.16, 11.04, 1.00, -0.07, -0.09, -1.86, -0.30, 0.61, 0, 0
819584, 1, 14712, 103184, -1.14, -0.71, 0.12, 11.05, 1.00, -0.06, -0.09, -1.77, -0.12, 0.67, 0, 0
819648, 1, 14733, 103178, -0.65, -0.69, 0.12, 11.05, 1.00, -0.06, -0.09, -1.80, -0.24, 0.73, 0, 0
819712, 1, 14753, 103176, -0.49, -0.66, 0.14, 11.06, 1.00, -0.07, -0.09, -1.77, -0.46, 0.64, 0, 0
819776, 1, 14774, 103178, -0.65, -0.65, 0.14, 11.06, 1.00, -0.07, -0.09, -1.83, -0.27, 0.55, 0, 0
819840, 1, 14794, 103180, -0.81, -0.68, 0.13, 11.05, 1.00, -0.07, -0.09, -1.80, -0.21, 0.55, 0, 0
819904, 1, 14815, 103178, -0.65, -0.67, 0.13, 11.05, 1.00, -0.07, -0.09, -1.89, -0.34, 0.64, 0, 0
819968, 1, 14835, 103178, -0.65, -0.66, 0.14, 11.05, 1.00, -0.07, -0.09, -1.92, -0.27, 0.67, 0, 0
820032, 1, 14856, 103182, -0.98, -0.71, 0.11, 11.05, 1.00, -0.07, -0.09, -1.68, -0.30, 0.85, 0, 0
820096, 1, 14876, 103175, -0.41, -0.66, 0.14, 11.04, 1.00, -0.07, -0.10, -1.89, -0.30, 0.64, 0, 0
820160, 1, 14897, 103177, -0.57, -0.64, 0.15, 11.04, 1.00, -0.07, -0.10, -1.92, -0.40, 0.67, 0, 0
820224, 1, 14917, 103178, -0.65, -0.64, 0.15, 11.06, 1.00, -0.07, -0.09, -1.89, -0.18, 0.76, 0, 0
820288, 1, 14938, 103178, -0.65, -0.64, 0.15, 11.05, 1.00, -0.07, -0.10, -1.95, -0.15, 0.67, 0, 0
820352, 1, 14958, 103182, -0.98, -0.69, 0.12, 11.06, 1.00, -0.07, -0.09, -1.95, -0.24, 0.55, 0, 0
820416, 1, 14979, 103176, -0.49, -0.66, 0.14, 11.07, 1.00, -0.07, -0.09, -2.04, -0.06, 0.70, 0, 0
820480, 1, 14999, 103180, -0.81, -0.68, 0.13, 11.06, 1.00, -0.07, -0.09, -1.95, -0.21, 0.52, 0, 0
820544, 1, 15020, 103179, -0.73, -0.69, 0.12, 11.06, 1.00, -0.07, -0.09, -1.89, -0.34, 0.70, 0, 0
820608, 1, 15040, 103176, -0.49, -0.65, 0.14, 11.07, 1.00, -0.07, -0.09, -0.70, -0.06, 0.40, 3, 0
820672, 1, 15060, 103173, -0.24, -0.58, 0.17, 11.06, 1.00, -0.07, -0.09, -1.95, -0.21, 0.67, 0, 0
820736, 1, 15081, 103174, -0.32, -0.53, 0.20, 11.05, 1.00, -0.06, -0.09, -1.86, -0.21, 0.76, 0, 0
820800, 1, 15101, 103180, -0.81, -0.58, 0.17, 11.06, 1.00, -0.07, -0.09, -1.92, -0.18, 0.64, 0, 0
820864, 1, 15122, 103173, -0.24, -0.52, 0.20, 11.07, 1.00, -0.07, -0.09, -1.98, -0.46, 0.64, 0, 0
820928, 1, 15142, 103177, -0.57, -0.52, 0.20, 11.06, 1.00, -0.07, -0.09, -1.95, -0.30, 0.76, 0, 0
820992, 1, 15163, 103180, -0.81, -0.57, 0.18, 11.06, 1.00, -0.07, -0.09, -1.86, -0.27, 0.64, 0, 0
821056, 1, 15183, 103177, -0.57, -0.56, 0.18, 11.06, 1.00, -0.07, -0.09, -1.86, -0.34, 0.64, 0, 0
821120, 1, 15204, 103178, -0.65, -0.57, 0.17, 11.06, 1.00, -0.07, -0.09, -1.86, -0.34, 0.67, 0, 0
821184, 1, 15224, 103177, -0.57, -0.57, 0.17, 11.06, 1.00, -0.07, -0.09, -1.65, -0.30, 0.64, 0, 0
821248, 1, 15245, 103181, -0.90, -0.62, 0.15, 11.07, 1.00, -0.07, -0.09, -1.86, -0.40, 0.67, 0, 0
821312, 1, 15265, 103180, -0.81, -0.65, 0.13, 11.08, 1.00, -0.07, -0.10, -1.68, -0.43, 0.67, 0, 0
821376, 1, 15286, 103174, -0.32, -0.59, 0.16, 11.07, 1.00, -0.07, -0.10, -1.86, -0.24, 0.67, 0, 0
821440, 1, 15306, 103178, -0.65, -0.60, 0.16, 11.07, 1.00, -0.07, -0.10, -1.86, -0.15, 0.73, 0, 0
821504, 1, 15327, 103177, -0.57, -0.59, 0.16, 11.07, 1.00, -0.07, -0.09, -1.83, -0.34, 0.73, 0, 0
821568, 1, 15347, 103176, -0.49, -0.57, 0.17, 11.08, 1.00, -0.07, -0.10, -1.89, -0.12, 0.76, 0, 0
821632, 1, 15368, 103179, -0.73, -0.59, 0.16, 11.06, 1.00, -0.07, -0.09, -1.98, -0.40, 0.61, 0, 0
821696, 1, 15388, 103180, -0.81, -0.63, 0.14, 11.09, 1.00, -0.07, -0.09, -1.95, -0.27, 0.61, 0, 0
821760, 1, 15409, 103180, -0.81, -0.66, 0.13, 11.09, 1.00, -0.07, -0.09, -1.98, -0.30, 0.61, 0, 0
821824, 1, 15429, 103182, -0.98, -0.71, 0.10, 11.08, 1.00, -0.07, -0.09, -1.77, -0.18, 0.58, 0, 0
821888, 1, 15450, 103176, -0.49, -0.67, 0.12, 11.08, 1.00, -0.07, -0.09, -1.92, -0.15, 0.76, 0, 0
821952, 1, 15470, 103174, -0.32, -0.61, 0.15, 11.07, 1.00, -0.07, -0.09, -2.04, -0.34, 0.73, 0, 0
822016, 1, 15491, 103184, -1.14, -0.69, 0.11, 11.07, 1.00, -0.07, -0.09, -1.83, -0.12, 0.64, 0, 0
822080, 1, 15511, 103178, -0.65, -0.68, 0.11, 11.08, 1.00, -0.07, -0.09, -1.77, -0.21, 0.58, 0, 0
822144, 1, 15532, 103177, -0.57, -0.66, 0.12, 11.08, 1.00, -0.07, -0.09, -1.92, -0.43, 0.73, 0, 0
822208, 1, 15552, 103175, -0.41, -0.62, 0.14, 11.08, 1.00, -0.07, -0.09, -1.92, -0.21, 0.58, 0, 0
822272, 1, 15572, 103179, -0.73, -0.63, 0.14, 11.08, 1.00, -0.07, -0.09, -1.89, -0.37, 0.76, 0, 0
822336, 1, 15593, 103180, -0.81, -0.66, 0.12, 11.08, 1.00, -0.07, -0.09, -1.68, -0.24, 0.67, 0, 0
822400, 1, 15613, 103181, -0.90, -0.70, 0.10, 11.08, 1.00, -0.07, -0.09, -1.92, -0.40, 0.58, 0, 0
822464, 1, 15634, 103175, -0.41, -0.65, 0.13, 11.08, 1.00, -0.07, -0.09, -1.86, -0.40, 0.73, 0, 0
822528, 1, 15654, 103180, -0.81, -0.67, 0.12, 11.09, 1.00, -0.06, -0.09, -1.80, -0.46, 0.70, 0, 0
822592, 1, 15675, 103181, -0.90, -0.71, 0.10, 11.08, 1.00, -0.07, -0.09, -1.80, -0.27, 0.70, 0, 0
822656, 1, 15695, 103179, -0.73, -0.71, 0.10, 11.09, 1.00, -0.07, -0.09, -1.68, -0.34, 0.67, 0, 0
822720, 1, 15716, 103183, -1.06, -0.77, 0.07, 11.09, 1.00, -0.07, -0.09, -1.59, -0.34, 0.61, 0, 0
822784, 1, 15736, 103175, -0.41, -0.70, 0.10, 11.08, 1.00, -0.07, -0.09, -1.77, -0.27, 0.67, 0, 0
822848, 1, 15757, 103178, -0.65, -0.69, 0.11, 11.09, 1.00, -0.07, -0.09, -1.89, -0.24, 0.73, 0, 0
822912, 1, 15777, 103175, -0.41, -0.64, 0.13, 11.09, 1.00, -0.07, -0.09, -1.86, -0.24, 0.58, 0, 0
822976, 1, 15798, 103176, -0.49, -0.61, 0.14, 11.09, 1.00, -0.07, -0.09, -1.92, -0.27, 0.67, 0, 0
823040, 1, 15818, 103177, -0.57, -0.60, 0.15, 11.09, 1.00, -0.07, -0.09, -1.95, -0.15, 0.67, 0, 0
823104, 1, 15839, 103180, -0.81, -0.64, 0.13, 11.09, 1.00, -0.07, -0.09, -1.89, -0.12, 0.64, 0, 0
823168, 1, 15859, 103180, -0.81, -0.66, 0.12, 11.09, 1.00, -0.06, -0.10, -1.98, -0.21, 0.61, 0, 0
823232, 1, 15880, 103177, -0.57, -0.65, 0.13, 11.09, 1.00, -0.07, -0.09, -1.80, -0.34, 0.61, 0, 0
823296, 1, 15900, 103177, -0.57, -0.63, 0.13, 11.10, 1.00, -0.06, -0.09, -1.95, -0.30, 0.61, 0, 0
823360, 1, 15921, 103178, -0.65, -0.63, 0.13, 11.09, 1.00, -0.06, -0.09, -1.83, -0.27, 0.79, 0, 0
823424, 1, 15941, 103179, -0.73, -0.65, 0.13, 11.10, 1.00, -0.07, -0.09, -1.92, -0.34, 0.73, 0, 0
823488, 1, 15962, 103177, -0.57, -0.63, 0.13, 11.09, 1.00, -0.07, -0.09, -1.95, -0.30, 0.67, 0, 0
823552, 1, 15982, 103181, -0.90, -0.67, 0.11, 11.09, 1.00, -0.07, -0.09, -1.95, -0.30, 0.70, 0, 0
823616, 1, 16003, 103180, -0.81, -0.69, 0.10, 11.10, 1.00, -0.07, -0.09, -2.10, -0.30, 0.67, 0, 0
823680, 1, 16023, 103173, -0.24, -0.62, 0.14, 11.09, 1.00, -0.07, -0.09, -1.74, -0.30, 0.73, 0, 0
823744, 1, 16044, 103177, -0.57, -0.61, 0.14, 11.10, 1.00, -0.07, -0.09, -1.98, -0.34, 0.85, 0, 0
823808, 1, 16064, 103175, -0.41, -0.57, 0.16, 11.09, 1.00, -0.07, -0.09, -1.86, -0.34, 0.58, 0, 0
823872, 1, 16084, 103177, -0.57, -0.57, 0.16, 11.10, 1.00, -0.07, -0.09, -1.83, -0.37, 0.61, 0, 0
823936, 1, 16105, 103176, -0.49, -0.55, 0.17, 11.09, 1.00, -0.07, -0.09, -1.74, -0.30, 0.64, 0, 0
824000, 1, 16125, 103178, -0.65, -0.56, 0.16, 11.10, 1.00, -0.07, -0.09, -1.77, -0.43, 0.82, 0, 0
824064, 1, 16146, 103178, -0.65, -0.57, 0.16, 11.10, 1.00, -0.07, -0.09, -1.74, -0.46, 0.70, 0, 0
824128, 1, 16166, 103181, -0.90, -0.63, 0.13, 11.10, 1.00, -0.07, -0.09, -1.92, -0.24, 0.61, 0, 0
824192, 1, 16187, 103175, -0.41, -0.59, 0.15, 11.10, 1.00, -0.07, -0.10, -1.89, -0.30, 0.55, 0, 0
824256, 1, 16207, 103176, -0.49, -0.57, 0.16, 11.11, 1.00, -0.07, -0.09, -1.80, -0.37, 0.52, 0, 0
824320, 1, 16228, 103172, -0.16, -0.49, 0.19, 11.10, 1.00, -0.07, -0.09, -1.68, -0.24, 0.61, 0, 0
824384, 1, 16248, 103175, -0.41, -0.48, 0.20, 11.11, 1.00, -0.07, -0.09, -1.71, -0.18, 0.67, 0, 0
824448, 1, 16269, 103176, -0.49, -0.47, 0.20, 11.11, 1.00, -0.07, -0.09, -1.83, -0.18, 0.55, 0, 0
824512, 1, 16289, 103172, -0.16, -0.42, 0.23, 11.11, 1.00, -0.06, -0.09, -1.80, -0.27, 0.55, 0, 0
824576, 1, 16310, 103179, -0.73, -0.47, 0.20, 11.11, 1.00, -0.06, -0.10, -2.07, -0.30, 0.79, 0, 0
824640, 1, 16330, 103184, -1.14, -0.57, 0.15, 11.11, 1.00, -0.07, -0.09, -1.86, -0.27, 0.73, 0, 0
824704, 1, 16351, 103182, -0.98, -0.64, 0.12, 11.10, 1.00, -0.07, -0.09, -1.83, -0.24, 0.61, 0, 0
824768, 1, 16371, 103178, -0.65, -0.64, 0.12, 11.10, 1.00, -0.07, -0.09, -1.98, -0.21, 0.61, 0, 0
824832, 1, 16392, 103181, -0.90, -0.68, 0.10, 11.11, 1.00, -0.06, -0.10, -1.80, -0.24, 0.64, 0, 0
824896, 1, 16412, 103180, -0.81, -0.70, 0.09, 11.10, 1.00, -0.07, -0.09, -1.92, -0.21, 0.76, 0, 0
824960, 1, 16433, 103176, -0.49, -0.66, 0.11, 11.10, 1.00, -0.07, -0.09, -1.83, -0.40, 0.55, 0, 0
825024, 1, 16453, 103178, -0.65, -0.66, 0.11, 11.10, 1.00, -0.07, -0.09, -1.83, -0.34, 0.76, 0, 0
825088, 1, 16474, 103175, -0.41, -0.61, 0.13, 11.11, 1.00, -0.07, -0.09, -1.92, -0.27, 0.73, 0, 0
825152, 1, 16494, 103175, -0.41, -0.58, 0.15, 11.11, 1.00, -0.07, -0.09, -1.86, -0.18, 0.67, 0, 0
825216, 1, 16515, 103181, -0.90, -0.63, 0.13, 11.11, 1.00, -0.07, -0.09, -1.83, -0.43, 0.67, 0, 0
825280, 1, 16535, 103172, -0.16, -0.55, 0.16, 11.11, 1.00, -0.07, -0.09, -1.74, -0.30, 0.64, 0, 0
825344, 1, 16556, 103175, -0.41, -0.52, 0.18, 11.11, 1.00, -0.07, -0.09, -1.89, -0.27, 0.64, 0, 0
825408, 1, 16576, 103180, -0.81, -0.57, 0.15, 11.12, 1.00, -0.07, -0.09, -1.80, -0.37, 0.55, 0, 0
825472, 1, 16596, 103180, -0.81, -0.60, 0.14, 11.12, 1.00, -0.07, -0.10, -1.74, -0.46, 0.58, 0, 0
825536, 1, 16617, 103172, -0.16, -0.53, 0.17, 11.12, 1.00, -0.07, -0.10, -1.80, -0.34, 0.52, 0, 0
825600, 1, 16637, 103181, -0.90, -0.59, 0.14, 11.11, 1.00, -0.07, -0.09, -1.71, -0.30, 0.67, 0, 0
825664, 1, 16658, 103180, -0.81, -0.62, 0.13, 11.12, 1.00, -0.07, -0.09, -1.74, -0.30, 0.52, 0, 0
825728, 1, 16678, 103180, -0.81, -0.65, 0.11, 11.11, 1.00, -0.07, -0.09, -1.77, -0.34, 0.64, 0, 0
825792, 1, 16699, 103180, -0.81, -0.68, 0.10, 11.11, 1.00, -0.07, -0.09, -1.74, -0.24, 0.55, 0, 0
825856, 1, 16719, 103174, -0.32, -0.61, 0.13, 11.11, 1.00, -0.07, -0.09, -1.86, -0.34, 0.55, 0, 0
825920, 1, 16740, 103176, -0.49, -0.59, 0.14, 11.12, 1.00, -0.07, -0.09, -2.04, -0.15, 0.61, 0, 0
825984, 1, 16760, 103180, -0.81, -0.62, 0.12, 11.13, 1.00, -0.06, -0.10, -1.77, -0.27, 0.67, 0, 0
826048, 1, 16781, 103174, -0.32, -0.57, 0.15, 11.13, 1.00, -0.06, -0.09, -1.98, -0.30, 0.58, 0, 0
826112, 1, 16801, 103179, -0.73, -0.60, 0.14, 11.12, 1.00, -0.07, -0.09, -2.04, -0.37, 0.73, 0, 0
826176, 1, 16822, 103176, -0.49, -0.57, 0.15, 11.13, 1.00, -0.07, -0.09, -1.98, -0.15, 0.67, 0, 0
826240, 1, 16842, 103179, -0.73, -0.60, 0.13, 11.13, 1.00, -0.07, -0.09, -1.89, -0.18, 0.67, 0, 0
826304, 1, 16863, 103175, -0.41, -0.56, 0.15, 11.12, 1.00, -0.06, -0.09, -1.86, -0.34, 0.67, 0, 0
826368, 1, 16883, 103177, -0.57, -0.56, 0.15, 11.13, 1.00, -0.07, -0.09, -2.07, -0.34, 0.67, 0, 0
826432, 1, 16904, 103178, -0.65, -0.57, 0.15, 11.13, 1.00, -0.07, -0.09, -1.86, -0.09, 0.67, 0, 0
826496, 1, 16924, 103178, -0.65, -0.58, 0.14, 11.13, 1.00, -0.07, -0.09, -1.83, -0.15, 0.67, 0, 0
826560, 1, 16945, 103179, -0.73, -0.61, 0.13, 11.13, 1.00, -0.07, -0.09, -1.89, -0.18, 0.79, 0, 0
826624, 1, 16965, 103180, -0.81, -0.64, 0.11, 11.13, 1.00, -0.07, -0.09, -1.89, -0.24, 0.70, 0, 0
826688, 1, 16986, 103173, -0.24, -0.57, 0.15, 11.13, 1.00, -0.07, -0.09, -1.89, -0.21, 0.58, 0, 0
826752, 1, 17006, 103171, -0.08, -0.48, 0.19, 11.13, 1.00, -0.07, -0.10, -1.74, -0.37, 0.61, 0, 0
826816, 1, 17027, 103179, -0.73, -0.52, 0.17, 11.13, 1.00, -0.07, -0.09, -1.83, -0.24, 0.61, 0, 0
826880, 1, 17047, 103174, -0.32, -0.49, 0.18, 11.14, 1.00, -0.07, -0.09, -1.83, -0.18, 0.49, 0, 0
826944, 1, 17068, 103178, -0.65, -0.51, 0.17, 11.13, 1.00, -0.07, -0.09, -1.89, -0.30, 0.55, 0, 0
827008, 1, 17088, 103177, -0.57, -0.52, 0.17, 11.13, 1.00, -0.07, -0.09, -1.86, -0.21, 0.73, 0, 0
827072, 1, 17108, 103178, -0.65, -0.54, 0.16, 11.13, 1.00, -0.07, -0.09, -1.71, -0.30, 0.55, 0, 0
827136, 1, 17129, 103176, -0.49, -0.52, 0.16, 11.14, 1.00, -0.07, -0.09, -1.86, -0.27, 0.61, 0, 0
827200, 1, 17149, 103178, -0.65, -0.54, 0.15, 11.14, 1.00, -0.07, -0.09, -1.83, -0.30, 0.52, 0, 0
827264, 1, 17170, 103175, -0.41, -0.52, 0.17, 11.13, 1.00, -0.06, -0.09, -1.65, -0.21, 0.70, 0, 0
827328, 1, 17190, 103179, -0.73, -0.55, 0.15, 11.14, 1.00, -0.07, -0.09, -1.80, -0.27, 0.67, 0, 0
827392, 1, 17211, 103180, -0.81, -0.59, 0.13, 11.14, 1.00, -0.06, -0.09, -1.89, -0.24, 0.70, 0, 0
827456, 1, 17231, 103182, -0.98, -0.65, 0.10, 11.15, 1.00, -0.07, -0.09, -1.77, -0.37, 0.67, 0, 0
827520, 1, 17252, 103177, -0.57, -0.64, 0.11, 11.13, 0.99, -0.07, -0.09, -1.86, -0.37, 0.67, 0, 0
827584, 1, 17272, 103184, -1.14, -0.72, 0.07, 11.14, 1.00, -0.07, -0.09, -1.92, -0.18, 0.76, 0, 0
827648, 1, 17293, 103179, -0.73, -0.72, 0.07, 11.15, 1.00, -0.07, -0.09, -2.13, -0.21, 0.61, 0, 0
827712, 1, 17313, 103176, -0.49, -0.68, 0.09, 11.15, 1.00, -0.07, -0.09, -1.92, -0.30, 0.73, 0, 0
827776, 1, 17334, 103177, -0.57, -0.66, 0.10, 11.14, 1.00, -0.07, -0.09, -1.83, -0.15, 0.67, 0, 0
827840, 1, 17354, 103180, -0.81, -0.68, 0.08, 11.15, 1.00, -0.07, -0.09, -1.98, -0.27, 0.79, 0, 0
827904, 1, 17375, 103177, -0.57, -0.66, 0.09, 11.15, 0.99, -0.07, -0.09, -1.92, -0.18, 0.76, 0, 0
827968, 1, 17395, 103179, -0.73, -0.67, 0.09, 11.15, 1.00, -0.07, -0.09, -1.98, -0.30, 0.73, 0, 0
828032, 1, 17416, 103175, -0.41, -0.63, 0.11, 11.14, 1.00, -0.07, -0.09, -1.95, -0.37, 0.76, 0, 0
828096, 1, 17436, 103179, -0.73, -0.64, 0.10, 11.15, 1.00, -0.07, -0.09, -1.95, -0.18, 0.67, 0, 0
828160, 1, 17457, 103175, -0.41, -0.60, 0.12, 11.15, 1.00, -0.07, -0.09, -1.86, -0.24, 0.67, 0, 0
828224, 1, 17477, 103176, -0.49, -0.58, 0.13, 11.15, 1.00, -0.07, -0.09, -1.86, -0.27, 0.64, 0, 0
828288, 1, 17498, 103181, -0.90, -0.63, 0.11, 11.16, 1.00, -0.07, -0.09, -1.92, -0.24, 0.55, 0, 0
828352, 1, 17518, 103178, -0.65, -0.63, 0.11, 11.16, 1.00, -0.07, -0.09, -1.80, -0.12, 0.76, 0, 0
828416, 1, 17539, 103175, -0.41, -0.59, 0.13, 11.15, 1.00, -0.07, -0.09, -1.74, -0.15, 0.70, 0, 0
828480, 1, 17559, 103179, -0.73, -0.61, 0.12, 11.16, 1.00, -0.06, -0.09, -1.77, -0.27, 0.64, 0, 0
828544, 1, 17580, 103180, -0.81, -0.64, 0.10, 11.15, 1.00, -0.07, -0.09, -1.74, -0.30, 0.64, 0, 0
828608, 1, 17600, 103176, -0.49, -0.62, 0.12, 11.15, 1.00, -0.07, -0.09, -1.83, -0.34, 0.67, 0, 0
828672, 1, 17620, 103177, -0.57, -0.61, 0.12, 11.15, 1.00, -0.07, -0.09, -1.92, -0.34, 0.64, 0, 0
828736, 1, 17641, 103177, -0.57, -0.60, 0.13, 11.15, 1.00, -0.06, -0.09, -1.74, -0.40, 0.70, 0, 0
828800, 1, 17661, 103177, -0.57, -0.59, 0.13, 11.15, 1.00, -0.06, -0.10, -1.71, -0.37, 0.49, 0, 0
828864, 1, 17682, 103177, -0.57, -0.58, 0.13, 11.16, 1.00, -0.07, -0.09, -1.86, -0.27, 0.73, 0, 0
828928, 1, 17702, 103181, -0.90, -0.63, 0.11, 11.15, 1.00, -0.06, -0.09, -1.86, -0.30, 0.70, 0, 0
828992, 1, 17723, 103172, -0.16, -0.55, 0.15, 11.15, 1.00, -0.07, -0.10, -1.92, -0.12, 0.85, 0, 0
829056, 1, 17743, 103178, -0.65, -0.57, 0.14, 11.15, 1.00, -0.07, -0.09, -1.86, -0.30, 0.70, 0, 0
829120, 1, 17764, 103180, -0.81, -0.60, 0.12, 11.16, 1.00, -0.07, -0.09, -1.92, -0.27, 0.67, 0, 0
829184, 1, 17784, 103175, -0.41, -0.57, 0.14, 11.16, 1.00, -0.06, -0.09, -1.98, -0.40, 0.70, 0, 0
829248, 1, 17805, 103179, -0.73, -0.59, 0.13, 11.15, 1.00, -0.07, -0.09, -1.86, -0.09, 0.79, 0, 0
829312, 1, 17825, 103176, -0.49, -0.57, 0.14, 11.16, 1.00, -0.07, -0.09, -1.98, -0.30, 0.76, 0, 0
829376, 1, 17846, 103181, -0.90, -0.62, 0.11, 11.17, 1.00, -0.07, -0.09, -1.92, -0.18, 0.82, 0, 0
829440, 1, 17866, 103180, -0.81, -0.65, 0.10, 11.17, 1.00, -0.07, -0.09, -1.92, -0.24, 0.67, 0, 0
829504, 1, 17887, 103176, -0.49, -0.62, 0.11, 11.16, 1.00, -0.07, -0.09, -1.92, -0.24, 0.61, 0, 0
829568, 1, 17907, 103178, -0.65, -0.63, 0.11, 11.17, 1.00, -0.07, -0.09, -1.92, -0.18, 0.76, 0, 0
829632, 1, 17928, 103178, -0.65, -0.63, 0.11, 11.17, 1.00, -0.07, -0.09, -1.92, -0.21, 0.61, 0, 0
829696, 1, 17948, 103178, -0.65, -0.63, 0.11, 11.17, 1.00, -0.07, -0.09, -1.83, -0.24, 0.64, 0, 0
829760, 1, 17969, 103180, -0.81, -0.66, 0.10, 11.18, 1.00, -0.07, -0.09, -1.98, -0.18, 0.70, 0, 0
829824, 1, 17989, 103175, -0.41, -0.61, 0.12, 11.17, 1.00, -0.06, -0.09, -1.83, -0.18, 0.58, 0, 0
829888, 1, 18010, 103174, -0.32, -0.56, 0.14, 11.17, 1.00, -0.07, -0.09, -1.98, -0.34, 0.58, 0, 0
829952, 1, 18030, 103177, -0.57, -0.56, 0.14, 11.16, 0.99, -0.07, -0.09, -1.62, -0.30, 0.49, 0, 0
830016, 1, 18051, 103175, -0.41, -0.53, 0.15, 11.16, 1.00, -0.07, -0.09, -1.74, -0.27, 0.64, 0, 0
830080, 1, 18071, 103176, -0.49, -0.52, 0.16, 11.17, 1.00, -0.07, -0.09, -1.71, -0.30, 0.67, 0, 0
830144, 1, 18092, 103181, -0.90, -0.58, 0.13, 11.18, 1.00, -0.07, -0.09, -1.83, -0.34, 0.73, 0, 0
830208, 1, 18112, 103176, -0.49, -0.56, 0.14, 11.18, 1.00, -0.06, -0.09, -1.86, -0.30, 0.61, 0, 0
830272, 1, 18132, 103177, -0.57, -0.56, 0.14, 11.18, 1.00, -0.07, -0.10, -1.65, -0.40, 0.61, 0, 0
830336, 1, 18153, 103176, -0.49, -0.55, 0.14, 11.17, 1.00, -0.06, -0.09, -1.89, -0.34, 0.64, 0, 0
830400, 1, 18173, 103177, -0.57, -0.55, 0.14, 11.17, 1.00, -0.07, -0.09, -1.77, -0.34, 0.58, 0, 0
830464, 1, 18194, 103182, -0.98, -0.62, 0.11, 11.17, 1.00, -0.06, -0.09, -1.71, -0.30, 0.70, 0, 0
830528, 1, 18214, 103176, -0.49, -0.59, 0.12, 11.18, 1.00, -0.07, -0.09, -1.92, -0.30, 0.67, 0, 0
830592, 1, 18235, 103179, -0.73, -0.61, 0.11, 11.16, 1.00, -0.07, -0.09, -1.86, -0.34, 0.79, 0, 0
830656, 1, 18255, 103174, -0.32, -0.56, 0.14, 11.19, 1.00, -0.07, -0.09, -1.86, -0.12, 0.58, 0, 0
830720, 1, 18276, 103175, -0.41, -0.53, 0.15, 11.16, 1.00, -0.07, -0.09, -1.95, -0.18, 0.73, 0, 0
830784, 1, 18296, 103176, -0.49, -0.52, 0.16, 11.18, 1.00, -0.07, -0.09, -1.89, -0.12, 0.64, 0, 0
830848, 1, 18317, 103178, -0.65, -0.54, 0.15, 11.17, 1.00, -0.07, -0.09, -1.86, -0.12, 0.61, 0, 0
830912, 1, 18337, 103179, -0.73, -0.57, 0.13, 11.18, 1.00, -0.07, -0.09, -1.92, -0.30, 0.67, 0, 0
830976, 1, 18358, 103175, -0.41, -0.54, 0.15, 11.18, 1.00, -0.07, -0.09, -1.92, -0.15, 0.67, 0, 0
831040, 1, 18378, 103176, -0.49, -0.53, 0.15, 11.17, 0.99, -0.07, -0.09, -1.95, -0.27, 0.64, 0, 0
831104, 1, 18399, 103180, -0.81, -0.57, 0.13, 11.18, 1.00, -0.07, -0.09, -2.01, -0.30, 0.70, 0, 0
831168, 1, 18419, 103174, -0.32, -0.53, 0.15, 11.18, 1.00, -0.07, -0.09, -1.89, -0.18, 0.70, 0, 0
831232, 1, 18440, 103181, -0.90, -0.59, 0.12, 11.19, 1.00, -0.07, -0.09, -1.80, -0.27, 0.58, 0, 0
831296, 1, 18460, 103177, -0.57, -0.58, 0.12, 11.19, 1.00, -0.07, -0.09, -1.83, -0.37, 0.67, 0, 0
831360, 1, 18481, 103177, -0.57, -0.58, 0.12, 11.18, 1.00, -0.07, -0.09, -1.83, -0.34, 0.52, 0, 0
831424, 1, 18501, 103180, -0.81, -0.61, 0.11, 11.18, 1.00, -0.07, -0.09, -1.80, -0.34, 0.55, 0, 0
831488, 1, 18522, 103175, -0.41, -0.58, 0.13, 11.18, 1.00, -0.06, -0.09, -1.71, -0.37, 0.64, 0, 0
831552, 1, 18542, 103172, -0.16, -0.50, 0.16, 11.19, 1.00, -0.07, -0.09, -1.74, -0.34, 0.49, 0, 0
831616, 1, 18563, 103180, -0.81, -0.55, 0.14, 11.19, 1.00, -0.07, -0.09, -1.68, -0.34, 0.70, 0, 0
831680, 1, 18583, 103170, 0.01, -0.46, 0.18, 11.19, 1.00, -0.07, -0.09, -1.65, -0.40, 0.73, 0, 0
831744, 1, 18604, 103177, -0.57, -0.47, 0.17, 11.18, 1.00, -0.07, -0.09, -1.86, -0.24, 0.73, 0, 0
831808, 1, 18624, 103179, -0.73, -0.51, 0.15, 11.19, 1.00, -0.07, -0.09, -1.77, -0.37, 0.73, 0, 0
831872, 1, 18644, 103175, -0.41, -0.49, 0.16, 11.19, 1.00, -0.07, -0.09, -1.86, -0.30, 0.79, 0, 0
831936, 1, 18665, 103175, -0.41, -0.47, 0.17, 11.19, 1.00, -0.07, -0.09, -2.04, -0.30, 0.55, 0, 0
832000, 1, 18685, 103177, -0.57, -0.49, 0.17, 11.18, 1.00, -0.07, -0.09, -1.80, -0.24, 0.73, 0, 0
832064, 1, 18706, 103176, -0.49, -0.48, 0.17, 11.19, 1.00, -0.07, -0.10, -1.86, -0.15, 0.70, 0, 0
832128, 1, 18726, 103180, -0.81, -0.54, 0.14, 11.20, 1.00, -0.07, -0.10, -1.77, -0.21, 0.55, 0, 0
832192, 1, 18747, 103179, -0.73, -0.57, 0.12, 11.18, 1.00, -0.07, -0.10, -1.98, -0.24, 0.64, 0, 0
832256, 1, 18767, 103177, -0.57, -0.56, 0.13, 11.19, 1.00, -0.07, -0.09, -1.98, -0.18, 0.79, 0, 0
832320, 1, 18788, 103179, -0.73, -0.59, 0.11, 11.19, 1.00, -0.07, -0.09, -2.07, -0.21, 0.70, 0, 0
832384, 1, 18808, 103178, -0.65, -0.60, 0.11, 11.19, 1.00, -0.06, -0.09, -2.01, -0.24, 0.79, 0, 0
832448, 1, 18829, 103176, -0.49, -0.58, 0.12, 11.20, 1.00, -0.07, -0.09, -1.89, -0.27, 0.61, 0, 0
832512, 1, 18849, 103176, -0.49, -0.56, 0.13, 11.19, 1.00, -0.07, -0.09, -1.89, -0.21, 0.67, 0, 0
832576, 1, 18870, 103179, -0.73, -0.59, 0.11, 11.19, 1.00, -0.07, -0.09, -1.89, -0.43, 0.73, 0, 0
832640, 1, 18890, 103176, -0.49, -0.57, 0.12, 11.19, 1.00, -0.07, -0.09, -2.01, -0.27, 0.58, 0, 0
832704, 1, 18911, 103177, -0.57, -0.57, 0.12, 11.20, 1.00, -0.07, -0.09, -1.74, -0.34, 0.73, 0, 0
832768, 1, 18931, 103177, -0.57, -0.56, 0.12, 11.19, 1.00, -0.06, -0.09, -1.95, -0.30, 0.76, 0, 0
832832, 1, 18952, 103175, -0.41, -0.53, 0.14, 11.20, 1.00, -0.07, -0.09, -1.74, -0.34, 0.70, 0, 0
832896, 1, 18972, 103182, -0.98, -0.61, 0.10, 11.21, 1.00, -0.07, -0.09, -1.74, -0.30, 0.70, 0, 0
832960, 1, 18993, 103180, -0.81, -0.64, 0.09, 11.21, 1.00, -0.07, -0.09, -1.77, -0.43, 0.76, 0, 0
833024, 1, 19013, 103177, -0.57, -0.63, 0.09, 11.20, 1.00, -0.07, -0.09, -1.77, -0.46, 0.64, 0, 0
833088, 1, 19034, 103178, -0.65, -0.63, 0.09, 11.20, 1.00, -0.07, -0.10, -1.65, -0.37, 0.70, 0, 0
833152, 1, 19054, 103172, -0.16, -0.55, 0.13, 11.21, 1.00, -0.07, -0.09, -1.77, -0.21, 0.76, 0, 0
833216, 1, 19075, 103179, -0.73, -0.58, 0.12, 11.20, 1.00, -0.07, -0.09, -1.86, -0.27, 0.61, 0, 0
833280, 1, 19095, 103180, -0.81, -0.61, 0.10, 11.20, 1.00, -0.07, -0.10, -1.86, -0.24, 0.61, 0, 0
833344, 1, 19116, 103178, -0.65, -0.62, 0.10, 11.21, 1.00, -0.07, -0.09, -1.92, -0.27, 0.67, 0, 0
833408, 1, 19136, 103183, -1.06, -0.69, 0.06, 11.21, 1.00, -0.07, -0.09, -1.89, -0.37, 0.91, 0, 0
833472, 1, 19156, 103176, -0.49, -0.65, 0.08, 11.21, 1.00, -0.07, -0.09, -1.77, -0.21, 0.85, 0, 0
833536, 1, 19177, 103178, -0.65, -0.65, 0.08, 11.21, 1.00, -0.07, -0.09, -1.95, -0.30, 0.55, 0, 0
833600, 1, 19197, 103178, -0.65, -0.65, 0.08, 11.21, 1.00, -0.07, -0.10, -1.95, -0.18, 0.64, 0, 0
833664, 1, 19218, 103177, -0.57, -0.63, 0.09, 11.20, 1.00, -0.07, -0.09, -1.95, -0.21, 0.64, 0, 0
833728, 1, 19238, 103178, -0.65, -0.64, 0.09, 11.21, 1.00, -0.06, -0.09, -2.01, -0.27, 0.70, 0, 0
833792, 1, 19259, 103179, -0.73, -0.65, 0.08, 11.22, 1.00, -0.07, -0.09, -2.04, -0.21, 0.76, 0, 0
833856, 1, 19279, 103179, -0.73, -0.66, 0.08, 11.21, 1.00, -0.07, -0.09, -1.80, -0.21, 0.58, 0, 0
833920, 1, 19300, 103174, -0.32, -0.60, 0.11, 11.21, 1.00, -0.07, -0.09, -1.89, -0.30, 0.64, 0, 0
833984, 1, 19320, 103177, -0.57, -0.60, 0.11, 11.21, 1.00, -0.07, -0.09, -1.92, -0.21, 0.82, 0, 0
834048, 1, 19341, 103175, -0.41, -0.56, 0.13, 11.21, 1.00, -0.07, -0.09, -1.89, -0.27, 0.61, 0, 0
834112, 1, 19361, 103173, -0.24, -0.51, 0.15, 11.21, 1.00, -0.07, -0.09, -2.01, -0.24, 0.76, 0, 0
834176, 1, 19382, 103176, -0.49, -0.50, 0.16, 11.21, 1.00, -0.07, -0.09, -1.86, -0.21, 0.70, 0, 0
834240, 1, 19402, 103178, -0.65, -0.52, 0.14, 11.22, 1.00, -0.07, -0.09, -1.89, -0.30, 0.73, 0, 0
834304, 1, 19423, 103173, -0.24, -0.47, 0.17, 11.21, 1.00, -0.07, -0.09, -1.83, -0.30, 0.64, 0, 0
834368, 1, 19443, 103175, -0.41, -0.46, 0.17, 11.21, 1.00, -0.07, -0.09, -1.86, -0.34, 0.64, 0, 0
834432, 1, 19464, 103179, -0.73, -0.50, 0.15, 11.21, 1.00, -0.07, -0.09, -1.77, -0.30, 0.52, 0, 0
834496, 1, 19484, 103177, -0.57, -0.51, 0.15, 11.21, 1.00, -0.07, -0.09, -1.86, -0.27, 0.64, 0, 0
834560, 1, 19505, 103179, -0.73, -0.54, 0.13, 11.22, 1.00, -0.07, -0.09, -1.86, -0.43, 0.73, 0, 0
834624, 1, 19525, 103177, -0.57, -0.55, 0.13, 11.22, 1.00, -0.07, -0.09, -1.86, -0.27, 0.58, 0, 0
834688, 1, 19546, 103175, -0.41, -0.52, 0.14, 11.22, 1.00, -0.07, -0.09, -1.74, -0.34, 0.64, 0, 0
834752, 1, 19566, 103180, -0.81, -0.57, 0.12, 11.23, 1.00, -0.07, -0.09, -1.86, -0.24, 0.61, 0, 0
834816, 1, 19587, 103177, -0.57, -0.56, 0.12, 11.22, 1.00, -0.07, -0.09, -1.80, -0.30, 0.61, 0, 0
834880, 1, 19607, 103176, -0.49, -0.55, 0.13, 11.23, 1.00, -0.07, -0.09, -1.86, -0.18, 0.67, 0, 0
834944, 1, 19628, 103174, -0.32, -0.51, 0.15, 11.21, 1.00, -0.07, -0.09, -1.95, -0.24, 0.58, 0, 0
835008, 1, 19648, 103175, -0.41, -0.49, 0.16, 11.22, 1.00, -0.06, -0.10, -2.01, -0.30, 0.73, 0, 0
835072, 1, 19668, 103178, -0.65, -0.51, 0.14, 11.22, 1.00, -0.07, -0.09, -1.86, -0.30, 0.58, 0, 0
835136, 1, 19689, 103176, -0.49, -0.50, 0.15, 11.22, 1.00, -0.06, -0.09, -1.98, -0.24, 0.70, 0, 0
835200, 1, 19709, 103178, -0.65, -0.53, 0.14, 11.22, 1.00, -0.07, -0.09, -1.92, -0.34, 0.58, 0, 0
835264, 1, 19730, 103177, -0.57, -0.53, 0.13, 11.23, 1.00, -0.07, -0.09, -2.01, -0.12, 0.67, 0, 0
835328, 1, 19750, 103185, -1.22, -0.64, 0.08, 11.23, 1.00, -0.07, -0.09, -1.95, -0.18, 0.79, 0, 0
835392, 1, 19771, 103181, -0.90, -0.68, 0.06, 11.23, 1.00, -0.07, -0.09, -1.83, -0.30, 0.64, 0, 0
835456, 1, 19791, 103177, -0.57, -0.66, 0.07, 11.23, 1.00, -0.07, -0.09, -2.04, -0.18, 0.58, 0, 0
835520, 1, 19812, 103177, -0.57, -0.65, 0.08, 11.23, 1.00, -0.07, -0.09, -1.86, -0.40, 0.55, 0, 0
835584, 1, 19832, 103176, -0.49, -0.62, 0.09, 11.23, 1.00, -0.07, -0.09, -1.98, -0.30, 0.76, 0, 0
835648, 1, 19853, 103179, -0.73, -0.64, 0.09, 11.23, 1.00, -0.07, -0.09, -1.92, -0.34, 0.76, 0, 0
835712, 1, 19873, 103180, -0.81, -0.66, 0.07, 11.23, 1.00, -0.07, -0.09, -1.95, -0.34, 0.64, 0, 0
835776, 1, 19894, 103176, -0.49, -0.63, 0.09, 11.23, 1.00, -0.07, -0.09, -1.74, -0.27, 0.64, 0, 0
835840, 1, 19914, 103179, -0.73, -0.65, 0.08, 11.23, 1.00, -0.07, -0.09, -1.80, -0.37, 0.73, 0, 0
835904, 1, 19935, 103172, -0.16, -0.56, 0.12, 11.22, 1.00, -0.07, -0.09, -1.83, -0.30, 0.55, 0, 0
835968, 1, 19955, 103179, -0.73, -0.59, 0.11, 11.23, 1.00, -0.07, -0.09, -1.77, -0.34, 0.52, 0, 0
836032, 1, 19976, 103179, -0.73, -0.61, 0.10, 11.24, 1.00, -0.07, -0.09, -1.71, -0.27, 0.70, 0, 0
836096, 1, 19996, 103180, -0.81, -0.64, 0.08, 11.23, 1.00, -0.07, -0.09, -1.83, -0.37, 0.52, 0, 0
836160, 1, 20017, 103176, -0.49, -0.62, 0.10, 11.23, 1.00, -0.07, -0.09, -1.80, -0.55, 0.55, 0, 0
836224, 1, 20037, 103174, -0.32, -0.56, 0.12, 11.24, 1.00, -0.07, -0.09, -1.77, -0.34, 0.67, 0, 0
836288, 1, 20058, 103180, -0.81, -0.60, 0.10, 11.24, 1.00, -0.07, -0.09, -1.92, -0.21, 0.98, 0, 3
836352, 1, 20078, 103179, -0.73, -0.62, 0.09, 11.24, 1.00, -0.07, -0.09, -1.86, -0.30, 0.46, 0, 0
836416, 1, 20099, 103181, -0.90, -0.67, 0.07, 11.24, 1.00, -0.06, -0.09, -1.92, -0.30, 0.73, 0, 0
836480, 1, 20119, 103179, -0.73, -0.68, 0.07, 11.23, 1.00, -0.07, -0.09, -1.92, -0.24, 0.67, 0, 0
836544, 1, 20140, 103180, -0.81, -0.70, 0.06, 11.24, 1.00, -0.07, -0.09, -1.83, -0.27, 0.70, 0, 0
836608, 1, 20160, 103178, -0.65, -0.69, 0.06, 11.23, 1.00, -0.07, -0.09, -1.83, -0.30, 0.58, 0, 0
836672, 1, 20180, 103176, -0.49, -0.65, 0.08, 11.25, 1.00, -0.06, -0.09, -1.92, -0.21, 0.67, 0, 0
836736, 1, 20201, 103177, -0.57, -0.64, 0.09, 11.23, 1.00, -0.07, -0.09, -1.89, -0.18, 0.64, 0, 0
836800, 1, 20221, 103179, -0.73, -0.65, 0.08, 11.24, 1.00, -0.06, -0.09, -1.80, -0.30, 0.67, 0, 0
836864, 1, 20242, 103185, -1.22, -0.75, 0.04, 11.24, 1.00, -0.07, -0.09, -1.77, -0.18, 0.79, 0, 0
836928, 1, 20262, 103176, -0.49, -0.70, 0.06, 11.24, 1.00, -0.07, -0.09, -1.89, -0.37, 0.73, 0, 0
836992, 1, 20283, 103175, -0.41, -0.65, 0.08, 11.24, 1.00, -0.07, -0.09, -2.07, -0.27, 0.76, 0, 0
837056, 1, 20303, 103175, -0.41, -0.61, 0.10, 11.24, 1.00, -0.07, -0.09, -1.86, -0.18, 0.67, 0, 0
837120, 1, 20324, 103178, -0.65, -0.61, 0.10, 11.25, 1.00, -0.07, -0.09, -1.83, -0.27, 0.70, 0, 0
837184, 1, 20344, 103178, -0.65, -0.62, 0.10, 11.24, 1.00, -0.07, -0.09, -1.89, -0.37, 0.61, 0, 0
837248, 1, 20365, 103175, -0.41, -0.58, 0.12, 11.25, 1.00, -0.07, -0.09, -1.80, -0.37, 0.58, 0, 0
837312, 1, 20385, 103179, -0.73, -0.60, 0.11, 11.25, 1.00, -0.07, -0.09, -1.92, -0.24, 0.67, 0, 0
837376, 1, 20406, 103177, -0.57, -0.60, 0.11, 11.25, 1.00, -0.07, -0.09, -1.86, -0.18, 0.70, 0, 0
837440, 1, 20426, 103177, -0.57, -0.59, 0.12, 11.24, 1.00, -0.07, -0.09, -1.86, -0.34, 0.55, 0, 0
837504, 1, 20447, 103171, -0.08, -0.50, 0.16, 11.24, 1.00, -0.07, -0.09, -1.83, -0.30, 0.64, 0, 0
837568, 1, 20467, 103180, -0.81, -0.55, 0.13, 11.25, 1.00, -0.07, -0.09, -1.65, -0.30, 0.64, 0, 0
837632, 1, 20488, 103180, -0.81, -0.59, 0.11, 11.24, 1.00, -0.07, -0.09, -1.71, -0.34, 0.61, 0, 0
837696, 1, 20508, 103182, -0.98, -0.65, 0.08, 11.25, 1.00, -0.07, -0.09, -1.74, -0.27, 0.52, 0, 0
837760, 1, 20529, 103180, -0.81, -0.68, 0.07, 11.25, 1.00, -0.07, -0.09, -1.92, -0.43, 0.67, 0, 0
837824, 1, 20549, 103183, -1.06, -0.74, 0.04, 11.26, 1.00, -0.07, -0.09, -1.86, -0.24, 0.58, 0, 0
837888, 1, 20570, 103176, -0.49, -0.70, 0.07, 11.25, 1.00, -0.07, -0.09, -1.80, -0.34, 0.67, 0, 0
837952, 1, 20590, 103180, -0.81, -0.72, 0.06, 11.25, 1.00, -0.07, -0.09, -1.95, -0.27, 0.79, 0, 0
838016, 1, 20611, 103179, -0.73, -0.72, 0.06, 11.26, 1.00, -0.07, -0.09, -1.80, -0.21, 0.61, 0, 0
838080, 1, 20631, 103179, -0.73, -0.72, 0.06, 11.27, 1.00, -0.07, -0.10, -1.92, -0.21, 0.64, 0, 0
838144, 1, 20652, 103176, -0.49, -0.68, 0.07, 11.26, 1.00, -0.07, -0.09, -1.92, -0.24, 0.82, 0, 0
838208, 1, 20672, 103176, -0.49, -0.65, 0.09, 11.25, 1.00, -0.07, -0.09, -1.95, -0.15, 0.67, 0, 0
838272, 1, 20692, 103172, -0.16, -0.56, 0.13, 11.25, 1.00, -0.07, -0.09, -1.86, -0.27, 0.67, 0, 0
838336, 1, 20713, 103177, -0.57, -0.56, 0.13, 11.25, 1.00, -0.07, -0.09, -1.92, -0.21, 0.73, 0, 0
838400, 1, 20733, 103178, -0.65, -0.57, 0.12, 11.26, 1.00, -0.07, -0.09, -1.86, -0.27, 0.73, 0, 0
838464, 1, 20754, 103173, -0.24, -0.52, 0.15, 11.25, 1.00, -0.07, -0.09, -1.83, -0.34, 0.64, 0, 0
838528, 1, 20774, 103178, -0.65, -0.53, 0.14, 11.26, 1.00, -0.07, -0.09, -1.86, -0.27, 0.64, 0, 0
838592, 1, 20795, 103175, -0.41, -0.51, 0.15, 11.26, 1.00, -0.07, -0.09, -1.92, -0.34, 0.70, 0, 0
838656, 1, 20815, 103181, -0.90, -0.57, 0.12, 11.26, 1.00, -0.07, -0.09, -1.80, -0.21, 0.61, 0, 0
838720, 1, 20836, 103178, -0.65, -0.58, 0.12, 11.26, 1.00, -0.07, -0.09, -1.77, -0.37, 0.61, 0, 0
838784, 1, 20856, 103178, -0.65, -0.59, 0.11, 11.26, 1.00, -0.07, -0.09, -1.95, -0.37, 0.67, 0, 0
838848, 1, 20877, 103176, -0.49, -0.57, 0.12, 11.26, 1.00, -0.07, -0.09, -1.74, -0.34, 0.64, 0, 0
838912, 1, 20897, 103176, -0.49, -0.55, 0.13, 11.26, 1.00, -0.07, -0.09, -1.86, -0.21, 0.61, 0, 0
838976, 1, 20918, 103176, -0.49, -0.54, 0.14, 11.27, 1.00, -0.06, -0.09, -1.86, -0.27, 0.52, 0, 0
839040, 1, 20938, 103180, -0.81, -0.58, 0.12, 11.26, 1.00, -0.07, -0.09, -1.86, -0.40, 0.61, 0, 0
839104, 1, 20959, 103177, -0.57, -0.58, 0.12, 11.26, 1.00, -0.07, -0.09, -1.83, -0.34, 0.58, 0, 0
839168, 1, 20979, 103180, -0.81, -0.62, 0.10, 11.27, 1.00, -0.07, -0.10, -1.71, -0.34, 0.67, 0, 0
839232, 1, 21000, 103175, -0.41, -0.58, 0.12, 11.27, 1.00, -0.07, -0.09, -1.71, -0.12, 0.70, 0, 0
839296, 1, 21020, 103177, -0.57, -0.57, 0.12, 11.27, 1.00, -0.07, -0.09, -1.83, -0.34, 0.64, 0, 0
839360, 1, 21041, 103179, -0.73, -0.60, 0.11, 11.27, 1.00, -0.06, -0.09, -1.77, -0.30, 0.61, 0, 0
839424, 1, 21061, 103183, -1.06, -0.67, 0.07, 11.28, 1.00, -0.07, -0.09, -1.80, -0.27, 0.76, 0, 0
839488, 1, 21082, 103177, -0.57, -0.65, 0.08, 11.27, 1.00, -0.07, -0.09, -1.77, -0.30, 0.64, 0, 0
839552, 1, 21102, 103179, -0.73, -0.67, 0.08, 11.27, 1.00, -0.07, -0.09, -1.86, -0.40, 0.64, 0, 0
839616, 1, 21123, 103170, 0.01, -0.55, 0.13, 11.26, 1.00, -0.07, -0.09, -1.95, -0.46, 0.64, 0, 0
839680, 1, 21143, 103176, -0.49, -0.54, 0.14, 11.28, 1.00, -0.07, -0.09, -1.77, -0.34, 0.73, 0, 0
839744, 1, 21164, 103173, -0.24, -0.49, 0.16, 11.27, 1.00, -0.07, -0.09, -1.89, -0.15, 0.76, 0, 0
839808, 1, 21184, 103175, -0.41, -0.47, 0.17, 11.28, 1.00, -0.07, -0.09, -1.89, -0.43, 0.64, 0, 0
839872, 1, 21204, 103175, -0.41, -0.46, 0.18, 11.27, 1.00, -0.07, -0.09, -1.89, -0.18, 0.58, 0, 0
839936, 1, 21225, 103179, -0.73, -0.50, 0.16, 11.28, 1.00, -0.07, -0.09, -2.07, -0.34, 0.64, 0, 0
840000, 1, 21245, 103179, -0.73, -0.53, 0.14, 11.27, 1.00, -0.07, -0.09, -1.92, -0.24, 0.64, 0, 0
840064, 1, 21266, 103180, -0.81, -0.58, 0.12, 11.27, 1.00, -0.07, -0.09, -1.89, -0.34, 0.70, 0, 0
840128, 1, 21286, 103175, -0.41, -0.55, 0.13, 11.28, 1.00, -0.07, -0.09, -1.92, -0.37, 0.61, 0, 0
840192, 1, 21307, 103175, -0.41, -0.52, 0.15, 11.29, 1.00, -0.07, -0.09, -2.04, -0.21, 0.55, 0, 0
840256, 1, 21327, 103180, -0.81, -0.57, 0.12, 11.28, 1.00, -0.07, -0.09, -1.86, -0.24, 0.55, 0, 0
840320, 1, 21348, 103175, -0.41, -0.54, 0.14, 11.28, 1.00, -0.07, -0.09, -1.89, -0.30, 0.64, 0, 0
840384, 1, 21368, 103178, -0.65, -0.55, 0.13, 11.28, 1.00, -0.07, -0.09, -1.83, -0.24, 0.64, 0, 0
840448, 1, 21389, 103175, -0.41, -0.53, 0.14, 11.28, 1.00, -0.06, -0.09, -1.89, -0.40, 0.70, 0, 0
840512, 1, 21409, 103172, -0.16, -0.46, 0.17, 11.28, 1.00, -0.07, -0.09, -1.86, -0.27, 0.55, 0, 0
840576, 1, 21430, 103175, -0.41, -0.45, 0.18, 11.28, 1.00, -0.07, -0.09, -1.74, -0.34, 0.61, 0, 0
840640, 1, 21450, 103178, -0.65, -0.48, 0.16, 11.28, 1.00, -0.07, -0.09, -1.77, -0.34, 0.58, 0, 0
840704, 1, 21471, 103177, -0.57, -0.49, 0.16, 11.28, 1.00, -0.07, -0.09, -1.89, -0.27, 0.61, 0, 0
840768, 1, 21491, 103176, -0.49, -0.49, 0.16, 11.28, 1.00, -0.07, -0.09, -1.86, -0.18, 0.58, 0, 0
840832, 1, 21512, 103177, -0.57, -0.50, 0.15, 11.27, 1.00, -0.07, -0.09, -1.89, -0.40, 0.55, 0, 0
840896, 1, 21532, 103176, -0.49, -0.49, 0.15, 11.29, 1.00, -0.07, -0.09, -1.92, -0.30, 0.55, 0, 0
840960, 1, 21553, 103175, -0.41, -0.48, 0.16, 11.29, 1.00, -0.07, -0.09, -1.92, -0.21, 0.61, 0, 0
841024, 1, 21573, 103176, -0.49, -0.47, 0.16, 11.28, 1.00, -0.07, -0.09, -1.95, -0.37, 0.70, 0, 0
841088, 1, 21594, 103175, -0.41, -0.46, 0.17, 11.28, 1.00, -0.07, -0.09, -1.89, -0.30, 0.58, 0, 0
841152, 1, 21614, 103177, -0.57, -0.47, 0.16, 11.29, 1.00, -0.07, -0.09, -1.86, -0.24, 0.61, 0, 0
841216, 1, 21635, 103177, -0.57, -0.49, 0.15, 11.29, 1.00, -0.07, -0.10, -1.83, -0.21, 0.73, 0, 0
841280, 1, 21655, 103172, -0.16, -0.43, 0.18, 11.29, 1.00, -0.07, -0.09, -2.01, -0.30, 0.76, 0, 0
841344, 1, 21676, 103178, -0.65, -0.46, 0.16, 11.28, 1.00, -0.07, -0.09, -1.92, -0.21, 0.61, 0, 0
841408, 1, 21696, 103179, -0.73, -0.50, 0.14, 11.29, 1.00, -0.07, -0.09, -1.89, -0.24, 0.82, 0, 0
841472, 1, 21716, 103181, -0.90, -0.57, 0.11, 11.29, 1.00, -0.07, -0.09, -1.89, -0.34, 0.67, 0, 0
841536, 1, 21737, 103174, -0.32, -0.52, 0.13, 11.29, 1.00, -0.07, -0.09, -1.80, -0.24, 0.67, 0, 0
841600, 1, 21757, 103180, -0.81, -0.57, 0.11, 11.30, 1.00, -0.07, -0.09, -1.89, -0.30, 0.58, 0, 0
841664, 1, 21778, 103174, -0.32, -0.53, 0.13, 11.29, 1.00, -0.07, -0.09, -1.92, -0.21, 0.70, 0, 0
841728, 1, 21798, 103174, -0.32, -0.49, 0.15, 11.30, 1.00, -0.07, -0.09, -1.92, -0.21, 0.70, 0, 0
841792, 1, 21819, 103176, -0.49, -0.49, 0.15, 11.30, 1.00, -0.07, -0.09, -1.77, -0.40, 0.73, 0, 0
841856, 1, 21839, 103174, -0.32, -0.46, 0.16, 11.29, 1.00, -0.07, -0.09, -1.71, -0.30, 0.73, 0, 0
841920, 1, 21860, 103182, -0.98, -0.54, 0.12, 11.28, 1.00, -0.07, -0.09, -1.92, -0.34, 0.64, 0, 0
841984, 1, 21880, 103182, -0.98, -0.61, 0.09, 11.29, 1.00, -0.07, -0.09, -1.83, -0.30, 0.61, 0, 0
842048, 1, 21901, 103178, -0.65, -0.62, 0.09, 11.29, 1.00, -0.07, -0.09, -1.71, -0.37, 0.70, 0, 0
842112, 1, 21921, 103177, -0.57, -0.61, 0.09, 11.30, 1.00, -0.07, -0.09, -1.68, -0.34, 0.61, 0, 0
842176, 1, 21942, 103177, -0.57, -0.60, 0.10, 11.30, 1.00, -0.07, -0.09, -1.77, -0.43, 0.73, 0, 0
842240, 1, 21962, 103178, -0.65, -0.60, 0.09, 11.30, 1.00, -0.07, -0.09, -1.83, -0.46, 0.64, 0, 0
842304, 1, 21983, 103177, -0.57, -0.60, 0.10, 11.29, 1.00, -0.07, -0.09, -1.92, -0.43, 0.67, 0, 0
842368, 1, 22003, 103175, -0.41, -0.56, 0.11, 11.30, 1.00, -0.07, -0.09, -1.86, -0.21, 0.58, 0, 0
842432, 1, 22024, 103178, -0.65, -0.58, 0.11, 11.30, 1.00, -0.07, -0.09, -1.89, -0.30, 0.58, 0, 0
842496, 1, 22044, 103177, -0.57, -0.57, 0.11, 11.29, 1.00, -0.07, -0.10, -1.77, -0.34, 0.70, 0, 0
842560, 1, 22065, 103175, -0.41, -0.54, 0.12, 11.30, 1.00, -0.07, -0.09, -1.77, -0.21, 0.61, 0, 0
842624, 1, 22085, 103177, -0.57, -0.54, 0.12, 11.30, 1.00, -0.06, -0.09, -1.83, -0.30, 0.64, 0, 0
842688, 1, 22106, 103173, -0.24, -0.49, 0.15, 11.30, 1.00, -0.07, -0.09, -1.80, -0.37, 0.67, 0, 0
842752, 1, 22126, 103177, -0.57, -0.50, 0.14, 11.30, 1.00, -0.07, -0.09, -1.92, -0.37, 0.67, 0, 0
842816, 1, 22147, 103178, -0.65, -0.52, 0.13, 11.29, 1.00, -0.07, -0.09, -1.92, -0.30, 0.61, 0, 0
842880, 1, 22167, 103177, -0.57, -0.53, 0.13, 11.31, 1.00, -0.07, -0.09, -1.86, -0.30, 0.64, 0, 0
842944, 1, 22188, 103183, -1.06, -0.61, 0.09, 11.29, 1.00, -0.07, -0.09, -1.89, -0.24, 0.67, 0, 0
843008, 1, 22208, 103180, -0.81, -0.65, 0.07, 11.31, 1.00, -0.07, -0.09, -1.86, -0.27, 0.67, 0, 0
843072, 1, 22228, 103176, -0.49, -0.62, 0.09, 11.29, 1.00, -0.07, -0.09, -1.98, -0.30, 0.67, 0, 0
843136, 1, 22249, 103175, -0.41, -0.58, 0.10, 11.31, 1.00, -0.07, -0.09, -1.77, -0.18, 0.73, 0, 0
843200, 1, 22269, 103178, -0.65, -0.59, 0.10, 11.30, 1.00, -0.07, -0.09, -1.80, -0.34, 0.73, 0, 0
843264, 1, 22290, 103179, -0.73, -0.61, 0.09, 11.31, 1.00, -0.07, -0.09, -1.95, -0.21, 0.70, 0, 0
843328, 1, 22310, 103185, -1.22, -0.71, 0.04, 11.30, 1.00, -0.07, -0.09, -1.89, -0.34, 0.67, 0, 0
843392, 1, 22331, 103176, -0.49, -0.67, 0.06, 11.30, 1.00, -0.07, -0.09, -1.89, -0.43, 0.55, 0, 0
843456, 1, 22351, 103176, -0.49, -0.64, 0.08, 11.30, 1.00, -0.07, -0.09, -1.77, -0.30, 0.70, 0, 0
843520, 1, 22372, 103177, -0.57, -0.63, 0.08, 11.31, 1.00, -0.07, -0.09, -1.83, -0.40, 0.67, 0, 0
843584, 1, 22392, 103178, -0.65, -0.63, 0.08, 11.31, 1.00, -0.07, -0.09, -1.74, -0.40, 0.85, 0, 0
843648, 1, 22413, 103180, -0.81, -0.66, 0.07, 11.31, 1.00, -0.07, -0.09, -1.80, -0.34, 0.73, 0, 0
843712, 1, 22433, 103177, -0.57, -0.64, 0.08, 11.30, 1.00, -0.07, -0.09, -1.83, -0.37, 0.61, 0, 0
843776, 1, 22454, 103174, -0.32, -0.59, 0.10, 11.31, 1.00, -0.07, -0.09, -1.86, -0.34, 0.64, 0, 0
843840, 1, 22474, 103179, -0.73, -0.61, 0.09, 11.31, 1.00, -0.07, -0.09, -1.83, -0.34, 0.58, 0, 0
843904, 1, 22495, 103178, -0.65, -0.61, 0.09, 11.33, 1.00, -0.07, -0.09, -1.92, -0.24, 0.76, 0, 0
843968, 1, 22515, 103179, -0.73, -0.63, 0.08, 11.32, 1.00, -0.07, -0.09, -1.80, -0.37, 0.67, 0, 0
844032, 1, 22536, 103174, -0.32, -0.58, 0.11, 11.31, 1.00, -0.07, -0.09, -1.74, -0.24, 0.67, 0, 0
844096, 1, 22556, 103177, -0.57, -0.58, 0.11, 11.32, 1.00, -0.07, -0.09, -1.68, -0.34, 0.73, 0, 0
844160, 1, 22577, 103173, -0.24, -0.52, 0.14, 11.31, 1.00, -0.07, -0.09, -1.83, -0.24, 0.58, 0, 0
844224, 1, 22597, 103174, -0.32, -0.48, 0.15, 11.31, 1.00, -0.07, -0.09, -1.80, -0.30, 0.76, 0, 0
844288, 1, 22618, 103176, -0.49, -0.48, 0.15, 11.32, 1.00, -0.07, -0.09, -1.89, -0.18, 0.61, 0, 0
844352, 1, 22638, 103180, -0.81, -0.53, 0.13, 11.31, 1.00, -0.07, -0.09, -1.95, -0.30, 0.61, 0, 0
844416, 1, 22659, 103180, -0.81, -0.58, 0.11, 11.32, 1.00, -0.07, -0.09, -1.71, -0.27, 0.73, 0, 0
844480, 1, 22679, 103176, -0.49, -0.56, 0.11, 11.32, 1.00, -0.07, -0.09, -1.80, -0.34, 0.64, 0, 0
844544, 1, 22700, 103177, -0.57, -0.56, 0.11, 11.32, 1.00, -0.06, -0.10, -2.01, -0.43, 0.70, 0, 0
844608, 1, 22720, 103178, -0.65, -0.57, 0.11, 11.33, 1.00, -0.07, -0.09, -1.89, -0.30, 0.58, 0, 0
844672, 1, 22740, 103178, -0.65, -0.58, 0.10, 11.32, 1.00, -0.07, -0.09, -1.92, -0.27, 0.61, 0, 0
844736, 1, 22761, 103181, -0.90, -0.63, 0.08, 11.32, 1.00, -0.07, -0.09, -1.92, -0.24, 0.70, 0, 0
844800, 1, 22781, 103176, -0.49, -0.61, 0.09, 11.32, 1.00, -0.07, -0.09, -1.74, -0.34, 0.73, 0, 0
844864, 1, 22802, 103176, -0.49, -0.59, 0.10, 11.31, 1.00, -0.07, -0.09, -1.95, -0.43, 0.70, 0, 0
844928, 1, 22822, 103175, -0.41, -0.55, 0.12, 11.32, 1.00, -0.07, -0.10, -1.83, -0.24, 0.73, 0, 0
844992, 1, 22843, 103177, -0.57, -0.55, 0.12, 11.31, 1.00, -0.07, -0.09, -1.80, -0.27, 0.67, 0, 0
845056, 1, 22863, 103181, -0.90, -0.61, 0.09, 11.32, 1.00, -0.07, -0.09, -1.86, -0.37, 0.58, 0, 0
845120, 1, 22884, 103177, -0.57, -0.60, 0.10, 11.33, 1.00, -0.07, -0.09, -1.68, -0.21, 0.67, 0, 0
845184, 1, 22904, 103178, -0.65, -0.61, 0.09, 11.32, 1.00, -0.07, -0.09, -1.89, -0.24, 0.55, 0, 0
845248, 1, 22925, 103177, -0.57, -0.60, 0.10, 11.32, 1.00, -0.07, -0.09, -1.71, -0.24, 0.55, 0, 0
845312, 1, 22945, 103177, -0.57, -0.59, 0.10, 11.33, 1.00, -0.07, -0.09, -1.95, -0.46, 0.64, 0, 0
845376, 1, 22966, 103180, -0.81, -0.63, 0.08, 11.34, 1.00, -0.07, -0.09, -1.86, -0.21, 0.73, 0, 0
845440, 1, 22986, 103175, -0.41, -0.59, 0.10, 11.34, 1.00, -0.07, -0.09, -1.86, -0.18, 0.61, 0, 0
845504, 1, 23007, 103178, -0.65, -0.60, 0.10, 11.33, 1.00, -0.06, -0.09, -1.89, -0.30, 0.73, 0, 0
845568, 1, 23027, 103175, -0.41, -0.56, 0.11, 11.31, 1.00, -0.07, -0.09, -1.80, -0.46, 0.73, 0, 0
845632, 1, 23048, 103178, -0.65, -0.58, 0.11, 11.33, 1.00, -0.07, -0.09, -1.74, -0.21, 0.82, 0, 0
845696, 1, 23068, 103176, -0.49, -0.56, 0.12, 11.33, 1.00, -0.07, -0.09, -1.77, -0.21, 0.70, 0, 0
845760, 1, 23089, 103178, -0.65, -0.57, 0.11, 11.33, 1.00, -0.07, -0.09, -1.80, -0.27, 0.67, 0, 0
845824, 1, 23109, 103176, -0.49, -0.55, 0.12, 11.33, 1.00, -0.06, -0.09, -1.86, -0.18, 0.61, 0, 0
845888, 1, 23130, 103177, -0.57, -0.55, 0.12, 11.33, 1.00, -0.07, -0.09, -1.83, -0.40, 0.73, 0, 0
845952, 1, 23150, 103178, -0.65, -0.57, 0.11, 11.33, 1.00, -0.07, -0.09, -1.71, -0.27, 0.67, 0, 0
846016, 1, 23171, 103178, -0.65, -0.58, 0.11, 11.33, 1.00, -0.07, -0.09, -1.83, -0.49, 0.70, 0, 0
846080, 1, 23191, 103179, -0.73, -0.60, 0.09, 11.34, 1.00, -0.07, -0.09, -1.80, -0.30, 0.64, 0, 0
846144, 1, 23212, 103174, -0.32, -0.55, 0.12, 11.33, 1.00, -0.07, -0.09, -1.89, -0.24, 0.85, 0, 0
846208, 1, 23232, 103175, -0.41, -0.53, 0.13, 11.33, 1.00, -0.07, -0.09, -1.86, -0.43, 0.64, 0, 0
846272, 1, 23252, 103177, -0.57, -0.53, 0.13, 11.33, 1.00, -0.07, -0.09, -1.92, -0.18, 0.70, 0, 0
846336, 1, 23273, 103175, -0.41, -0.51, 0.14, 11.33, 1.00, -0.07, -0.09, -1.92, -0.24, 0.67, 0, 0
846400, 1, 23293, 103176, -0.49, -0.50, 0.14, 11.33, 1.00, -0.07, -0.09, -1.92, -0.30, 0.67, 0, 0
846464, 1, 23314, 103176, -0.49, -0.50, 0.15, 11.33, 1.00, -0.07, -0.09, -1.86, -0.30, 0.58, 0, 0
846528, 1, 23334, 103179, -0.73, -0.53, 0.13, 11.33, 1.00, -0.07, -0.09, -1.68, -0.37, 0.64, 0, 0
846592, 1, 23355, 103177, -0.57, -0.54, 0.13, 11.35, 1.00, -0.07, -0.09, -1.86, -0.27, 0.55, 0, 0
846656, 1, 23375, 103175, -0.41, -0.51, 0.14, 11.34, 1.00, -0.07, -0.09, -1.74, -0.24, 0.64, 0, 0
846720, 1, 23396, 103179, -0.73, -0.55, 0.12, 11.35, 1.00, -0.07, -0.09, -1.74, -0.34, 0.64, 0, 0
846784, 1, 23416, 103184, -1.14, -0.64, 0.07, 11.35, 1.00, -0.06, -0.09, -1.89, -0.34, 0.64, 0, 0
846848, 1, 23437, 103174, -0.32, -0.59, 0.10, 11.33, 1.00, -0.07, -0.09, -1.74, -0.43, 0.52, 0, 0
846912, 1, 23457, 103175, -0.41, -0.56, 0.12, 11.34, 1.00, -0.07, -0.09, -1.86, -0.30, 0.64, 0, 0
846976, 1, 23478, 103181, -0.90, -0.61, 0.09, 11.35, 1.00, -0.07, -0.09, -1.77, -0.37, 0.64, 0, 0
847040, 1, 23498, 103176, -0.49, -0.59, 0.10, 11.34, 1.00, -0.07, -0.09, -1.77, -0.24, 0.67, 0, 0
847104, 1, 23519, 103174, -0.32, -0.54, 0.12, 11.34, 1.00, -0.07, -0.09, -1.74, -0.30, 0.64, 0, 0
847168, 1, 23539, 103177, -0.57, -0.54, 0.12, 11.34, 1.00, -0.07, -0.09, -1.92, -0.34, 0.79, 0, 0
847232, 1, 23560, 103177, -0.57, -0.55, 0.12, 11.34, 1.00, -0.07, -0.09, -1.92, -0.24, 0.76, 0, 0
847296, 1, 23580, 103178, -0.65, -0.56, 0.11, 11.34, 1.00, -0.07, -0.09, -1.83, -0.37, 0.52, 0, 0
847360, 1, 23601, 103179, -0.73, -0.59, 0.10, 11.35, 1.00, -0.07, -0.09, -1.77, -0.40, 0.67, 0, 0
847424, 1, 23621, 103179, -0.73, -0.61, 0.09, 11.34, 1.00, -0.07, -0.09, -1.83, -0.24, 0.67, 0, 0
847488, 1, 23642, 103178, -0.65, -0.61, 0.09, 11.34, 1.00, -0.07, -0.09, -1.98, -0.24, 0.67, 0, 0
847552, 1, 23662, 103178, -0.65, -0.62, 0.09, 11.35, 1.00, -0.07, -0.09, -1.89, -0.27, 0.52, 0, 0
847616, 1, 23683, 103175, -0.41, -0.58, 0.11, 11.34, 1.00, -0.07, -0.09, -1.83, -0.21, 0.67, 0, 0
847680, 1, 23703, 103178, -0.65, -0.59, 0.10, 11.35, 1.00, -0.07, -0.09, -1.80, -0.40, 0.70, 0, 0
847744, 1, 23724, 103176, -0.49, -0.57, 0.11, 11.34, 1.00, -0.07, -0.09, -1.89, -0.27, 0.79, 0, 0
847808, 1, 23744, 103174, -0.32, -0.53, 0.13, 11.35, 1.00, -0.07, -0.09, -1.80, -0.27, 0.67, 0, 0
847872, 1, 23764, 103176, -0.49, -0.52, 0.14, 11.36, 1.00, -0.07, -0.09, -1.86, -0.27, 0.58, 0, 0
847936, 1, 23785, 103181, -0.90, -0.58, 0.11, 11.36, 1.00, -0.07, -0.09, -1.71, -0.27, 0.64, 0, 0
848000, 1, 23805, 103177, -0.57, -0.58, 0.11, 11.36, 1.00, -0.07, -0.09, -1.89, -0.40, 0.64, 0, 0
848064, 1, 23826, 103179, -0.73, -0.60, 0.10, 11.35, 1.00, -0.07, -0.09, -1.95, -0.21, 0.67, 0, 0
