,packetType,timestamp_s,imu1_accel_x,imu1_accel_y,imu1_accel_z,imu1_gyro_x,imu1_gyro_y,imu1_gyro_z,imu1_mag_x,imu1_mag_y,imu1_mag_z,imu2_accel_x,imu2_accel_y,imu2_accel_z,imu2_gyro_x,imu2_gyro_y,imu2_gyro_z,imu2_mag_x,imu2_mag_y,imu2_mag_z,high_g_accel_x,high_g_accel_y,high_g_accel_z,baro1_temp,baro1_pres,baro2_temp,baro2_pres,gps_lat,gps_long,gps_alt,gps_fix_quality,gps_sats_tracked,gps_hdop,battery_voltage,pyro_cont,pyro_status,heading,vtg,pos_x,pos_y,pos_z,vel_x,vel_y,vel_z,acc_x,acc_y,acc_z,q_x,q_y,q_z,q_w,state,gps_lat_mod,gps_long_mod,imu1_accel_x_real,imu1_accel_y_real,imu1_accel_z_real,imu2_accel_x_real,imu2_accel_y_real,imu2_accel_z_real,imu1_gyro_x_real,imu1_gyro_y_real,imu1_gyro_z_real,imu2_gyro_x_real,imu2_gyro_y_real,imu2_gyro_z_real,imu1_mag_x_real,imu1_mag_y_real,imu1_mag_z_real,imu2_mag_x_real,imu2_mag_y_real,imu2_mag_z_real,imu_accel_x_avg,imu_accel_y_avg,imu_accel_z_avg,imu_gyro_x_avg,imu_gyro_y_avg,imu_gyro_z_avg,imu_mag_x_avg,imu_mag_y_avg,imu_mag_z_avg,high_g_accel_x_real,high_g_accel_y_real,high_g_accel_z_real,baro_pres_avg,baro_temp_avg
61778,0,6602184,30,-1378,-67,-20,18,50,-1816,2465,1708,61,-1372,-16,75,112,15,-169,1634,2234,384,80,400,19.14,1.00490500863558,24.95,1.00416481618554,4449.484375,-7309.8349609375,34.7999992370605,2,12,0.569999992847443,7.92108154296875,3,0,0,0,0,0,0.111876332039738,0,0,0.058992979669769,-0.2979064137,-0.3266202849,9.870393225,-0.653138101100922,-0.295986264944077,-0.624685943126678,0.309144616127014,6,44.82473958333333,-73.163916015625,0.215354034,-9.8919286284,-0.4809573426,0.43788653580000003,-9.848857821600001,-0.1148554848,-0.0061086523599999994,0.005497787124,0.0152716309,0.02290744635,0.034208453215999995,0.00458148927,-1.05328,1.4297,0.99064,-0.09802,0.94772,1.29572,0.3266202849,-9.870393225,-0.2979064137,0.008399396994999999,0.01985312017,0.009926560085,-0.57565,1.18871,1.14318,11.29728,2.3536,11.768,1.00453491241056,22.045
61779,0,6602290,36,-1381,-62,-23,28,40,-1816,2465,1708,67,-1367,-4,70,114,19,-169,1634,2234,336,-80,224,19.13,1.00486553170491,24.96,1.00401677769553,4449.484375,-7309.8349609375,34.7999992370605,2,12,0.569999992847443,7.9169921875,3,0,0,0,0,0,0.0942854773056445,0,0,0.0423184090755583,-0.2368894374,-0.3696910917,9.8632147572,-0.653143703937531,-0.295904725790024,-0.624723434448242,0.309134840965271,6,44.82473958333333,-73.163916015625,0.2584248408,-9.9134640318,-0.4450650036,0.4809573426,-9.812965482600001,-0.0287138712,-0.0070249502139999994,0.008552113303999999,0.012217304719999999,0.021380283259999997,0.034819318451999995,0.005803219742,-1.05328,1.4297,0.99064,-0.09802,0.94772,1.29572,0.36969109170000003,-9.863214757200002,-0.2368894374,0.007177666522999998,0.021685715877999997,0.009010262230999998,-0.57565,1.18871,1.14318,9.88512,-2.3536,6.59008,1.00444115470022,22.045
61780,0,6602395,32,-1377,-55,-13,21,51,-1825,2452,1687,56,-1374,-8,65,114,17,-195,1611,2244,304,80,256,19.14,1.00488527017024,24.96,1.00391808536886,4449.484375,-7309.8349609375,34.7999992370605,2,12,0.569999992847443,7.9169921875,3,0,0,0,0,0,0.0799526998634993,0,0,0.0294314007015002,-0.2261217357,-0.3158525832,9.8739824589,-0.65317577123642,-0.295860916376114,-0.624726951122284,0.309102058410645,6,44.82473958333333,-73.163916015625,0.2297109696,-9.884750160600001,-0.394815729,0.40199419680000004,-9.8632147572,-0.0574277424,-0.003970624034,0.006414084978,0.015577063518,0.01985312017,0.034819318451999995,0.005192354505999999,-1.0585,1.42216,0.97846,-0.1131,0.93438,1.30152,0.31585258320000004,-9.8739824589,-0.2261217357,0.007941248068,0.020616701714999998,0.010384709011999999,-0.5858,1.17827,1.13999,8.94368,2.3536,7.53152,1.00440167776955,22.05
61781,0,6602501,33,-1384,-63,-13,28,48,-1825,2452,1687,69,-1370,-11,79,105,15,-195,1611,2244,384,96,304,19.14,1.00488527017024,24.95,1.00395756229953,4449.484375,-7309.8349609375,34.7999992370605,2,12,0.569999992847443,7.9415283203125,3,0,0,0,0,0,0.100741108741584,0,0,0.0544972854991038,-0.2656033086,-0.3661018578,9.8847501606,-0.653211057186127,-0.295877367258072,-0.624703645706177,0.30905881524086,6,44.82473958333333,-73.163916015625,0.2368894374,-9.9349994352,-0.45224347140000004,0.4953142782,-9.834500886,-0.07896314580000001,-0.003970624034,0.008552113303999999,0.014660765664,0.024129176821999998,0.03207042489,0.00458148927,-1.0585,1.42216,0.97846,-0.1131,0.93438,1.30152,0.36610185780000004,-9.8847501606,-0.26560330860000003,0.010079276394,0.020311269096999998,0.009621127467,-0.5858,1.17827,1.13999,11.29728,2.82432,8.94368,1.004421416234885,22.045
61782,0,6602606,26,-1384,-60,-6,23,50,-1824,2462,1686,60,-1372,-16,73,100,12,-178,1602,2227,336,32,176,19.14,1.00500370096225,24.96,1.00391808536886,4449.484375,-7309.8349609375,34.7999992370605,2,12,0.569999992847443,7.93028259277344,3,0,0,0,0,0,0.0687203619965099,0,0,0.0219415304332473,-0.2727817764,-0.3086741154,9.8919286284,-0.653240561485291,-0.295912265777588,-0.6246417760849,0.309088170528412,6,44.82473958333333,-73.163916015625,0.1866401628,-9.9349994352,-0.430708068,0.430708068,-9.848857821600001,-0.1148554848,-0.001832595708,0.0070249502139999994,0.0152716309,0.022296581114,0.0305432618,0.003665191416,-1.05792,1.4279600000000001,0.97788,-0.10324,0.92916,1.29166,0.3086741154,-9.8919286284,-0.2727817764,0.010231992703,0.018784106007,0.009468411158,-0.58058,1.17856,1.13477,9.88512,0.94144,5.17792,1.004460893165555,22.05
61783,0,6602711,34,-1382,-67,-15,34,43,-1824,2462,1686,58,-1366,-8,82,107,16,-178,1602,2227,272,-32,160,19.14,1.00496422403158,24.96,1.0039674315322,4449.484375,-7309.8349609375,34.7999992370605,2,12,0.569999992847443,7.92363739013672,3,0,0,0,0,0,0.105982781709468,0,0,0.065107434909448,-0.2691925425,-0.3302095188,9.8632147572,-0.654754042625427,-0.290856808423996,-0.62841784954071,0.302969574928284,6,44.82473958333333,-73.163916015625,0.24406790520000002,-9.9206424996,-0.4809573426,0.4163511324,-9.8057870148,-0.0574277424,-0.00458148927,0.010384709011999999,0.013133602574,0.025045474675999997,0.032681290126,0.004886921888,-1.05792,1.4279600000000001,0.97788,-0.10324,0.92916,1.29166,0.3302095188,-9.8632147572,-0.2691925425,0.010231992702999999,0.021532999568999997,0.009010262231,-0.58058,1.17856,1.13477,8.00224,-0.94144,4.7072,1.0044658277818899,22.05
61784,0,6602817,32,-1377,-59,-8,24,47,-1849,2467,1727,58,-1372,-10,74,110,15,-208,1579,2209,416,80,224,19.14,1.00496422403158,24.96,1.0039674315322,4449.484375,-7309.8349609375,34.7999992370605,2,12,0.569999992847443,7.9088134765625,3,0,0,0,0,0,0.12557744656157,0,0,0.0826250622815651,-0.2476571391,-0.323031051,9.8668039911,-0.654740750789642,-0.29085236787796,-0.628446280956268,0.302943676710129,6,44.82473958333333,-73.163916015625,0.2297109696,-9.884750160600001,-0.4235296002,0.4163511324,-9.848857821600001,-0.071784678,-0.002443460944,0.007330382832,0.014355333045999999,0.022602013732,0.033597587979999996,0.00458148927,-1.07242,1.43086,1.00166,-0.12064,0.91582,1.28122,0.323031051,-9.866803991100001,-0.2476571391,0.010079276394,0.020463985405999998,0.009468411158,-0.59653,1.17334,1.14144,12.23872,2.3536,6.59008,1.0044658277818899,22.05
61785,0,6602922,29,-1382,-60,-20,28,47,-1849,2467,1727,69,-1372,-3,67,105,21,-208,1579,2209,384,64,240,19.13,1.00508265482359,24.96,1.00401677769553,4449.484375,-7309.8349609375,34.7999992370605,2,12,0.569999992847443,7.91801452636719,3,0,0,0,0,0,0.0470142620432806,0,0,-0.0001683568540142,-0.2261217357,-0.3517449222,9.8847501606,-0.654759466648102,-0.290813773870468,-0.628452301025391,0.302927523851395,6,44.82473958333333,-73.163916015625,0.2081755662,-9.9206424996,-0.430708068,0.4953142782,-9.848857821600001,-0.0215354034,-0.0061086523599999994,0.008552113303999999,0.014355333045999999,0.020463985405999998,0.03207042489,0.006414084978,-1.07242,1.43086,1.00166,-0.12064,0.91582,1.28122,0.3517449222,-9.8847501606,-0.2261217357,0.007177666522999999,0.020311269096999998,0.010384709011999999,-0.59653,1.17334,1.14144,11.29728,1.88288,7.0608,1.00454971625956,22.045
61786,0,6603028,29,-1383,-59,-8,17,54,-1839,2453,1686,60,-1371,-4,72,102,12,-201,1594,2255,384,48,320,19.14,1.00494448556625,24.95,1.00398716999753,4449.484375,-7309.8349609375,34.7999992370605,2,12,0.569999992847443,7.9169921875,3,0,0,0,0,0,0.0397710507013453,0,0,-0.0009889321288179,-0.2261217357,-0.3194418171,9.8847501606,-0.654800832271576,-0.290835827589035,-0.628401517868042,0.302922397851944,6,44.82473958333333,-73.163916015625,0.2081755662,-9.9278209674,-0.4235296002,0.430708068,-9.8416793538,-0.0287138712,-0.002443460944,0.005192354505999999,0.016493361372,0.021991148496,0.031154127036,0.003665191416,-1.06662,1.4227400000000001,0.97788,-0.11658,0.92452,1.3079,0.31944181709999997,-9.8847501606,-0.22612173570000002,0.009773843776,0.018173240771,0.010079276394,-0.5915999999999999,1.1736300000000002,1.14289,11.29728,1.41216,9.4144,1.0044658277818899,22.045
61787,0,6603133,26,-1381,-57,-8,15,48,-1839,2453,1686,59,-1372,-10,67,101,13,-201,1594,2255,400,16,272,19.13,1.00493461633358,24.96,1.00401677769553,4449.484375,-7309.8349609375,34.7999992370605,2,12,0.569999992847443,7.89654541015625,3,0,0,0,0,0,0.0437614899554843,0,0,0.0105259587827333,-0.2404786713,-0.3050848815,9.8811609267,-0.654861330986023,-0.290893882513046,-0.628338277339935,0.302866846323013,6,44.82473958333333,-73.163916015625,0.1866401628,-9.9134640318,-0.4091726646,0.4235296002,-9.848857821600001,-0.071784678,-0.002443460944,0.00458148927,0.014660765664,0.020463985405999998,0.030848694418,0.003970624034,-1.06662,1.4227400000000001,0.97788,-0.11658,0.92452,1.3079,0.3050848815,-9.881160926700002,-0.2404786713,0.009010262230999998,0.017715091844,0.009315694849,-0.5915999999999999,1.1736300000000002,1.14289,11.768,0.47072,8.00224,1.004475697014555,22.045
61788,0,6603239,28,-1383,-64,-10,20,58,-1821,2467,1721,57,-1372,-13,67,104,14,-176,1611,2236,336,16,272,19.14,1.00479644707624,24.96,1.00411547002221,4449.484375,-7309.8349609375,34.7999992370605,2,12,0.569999992847443,7.92312622070313,3,0,0,0,0,0,0.0549645319749921,0,0,0.0269620424522794,-0.2763710103,-0.3050848815,9.8883393945,-0.654893338680267,-0.290892899036407,-0.628312587738037,0.302852034568787,6,44.82473958333333,-73.163916015625,0.20099709840000002,-9.9278209674,-0.4594219392,0.4091726646,-9.848857821600001,-0.0933200814,-0.0030543261799999997,0.0061086523599999994,0.017715091844,0.020463985405999998,0.031764992272,0.004276056651999999,-1.05618,1.43086,0.99818,-0.10208,0.93438,1.29688,0.3050848815,-9.8883393945,-0.2763710103,0.008704829612999999,0.018936822316,0.010995574248,-0.5791299999999999,1.18262,1.14753,9.88512,0.47072,8.00224,1.004455958549225,22.05
61789,0,6603344,32,-1378,-59,-32,24,51,-1821,2467,1721,55,-1375,-10,68,111,19,-176,1611,2236,400,80,320,19.14,1.00479644707624,24.95,1.00411547002221,4449.484375,-7309.8349609375,34.7999992370605,2,12,0.569999992847443,7.94408416748047,3,0,0,0,0,0,-0.0311191539961,0,0,-0.0582492962741732,-0.2476571391,-0.3122633493,9.8811609267,-0.654854238033295,-0.290871351957321,-0.628363072872162,0.302852690219879,6,44.82473958333333,-73.163916015625,0.2297109696,-9.8919286284,-0.4235296002,0.394815729,-9.870393225,-0.071784678,-0.009773843776,0.007330382832,0.015577063518,0.020769418023999998,0.033903020597999996,0.005803219742,-1.05618,1.43086,0.99818,-0.10208,0.93438,1.29688,0.3122633493,-9.881160926700002,-0.2476571391,0.005497787123999999,0.020616701714999998,0.01069014163,-0.5791299999999999,1.18262,1.14753,11.768,2.3536,9.4144,1.004455958549225,22.045
61790,0,6603450,30,-1382,-59,-20,17,57,-1836,2459,1713,59,-1368,-12,67,112,16,-185,1634,2234,336,-48,208,19.14,1.00485566247224,24.96,1.0039674315322,4449.484375,-7309.8349609375,34.7999992370605,2,12,0.569999992847443,7.90983581542969,3,0,0,0,0,0,0.0440742155580021,0,0,0.0308843254045204,-0.2548356069,-0.3194418171,9.870393225,-0.65484631061554,-0.290838032960892,-0.628397703170776,0.30282998085022,6,44.82473958333333,-73.163916015625,0.215354034,-9.9206424996,-0.4235296002,0.4235296002,-9.8201439504,-0.0861416136,-0.0061086523599999994,0.005192354505999999,0.017409659225999997,0.020463985405999998,0.034208453215999995,0.004886921888,-1.06488,1.42622,0.99354,-0.1073,0.94772,1.29572,0.3194418171,-9.870393225,-0.2548356069,0.007177666522999999,0.019700403861,0.011148290556999998,-0.58609,1.18697,1.14463,9.88512,-1.41216,6.11936,1.0044115470022201,22.05
61791,0,6603555,33,-1381,-62,-9,35,60,-1836,2459,1713,53,-1369,-6,81,112,16,-185,1634,2234,320,-16,208,19.14,1.00505304712559,24.96,1.0039674315322,4449.484375,-7309.8349609375,34.7999992370605,2,12,0.569999992847443,7.92721557617188,3,0,0,0,0,0,0.0201157127371502,0,0,0.0093845794072809,-0.2440679052,-0.3086741154,9.870393225,-0.654913246631622,-0.290848165750504,-0.628328561782837,0.302818894386291,6,44.82473958333333,-73.163916015625,0.2368894374,-9.9134640318,-0.4450650036,0.3804587934,-9.8273224182,-0.0430708068,-0.002748893562,0.010690141629999999,0.01832595708,0.024740042057999997,0.034208453215999995,0.004886921888,-1.06488,1.42622,0.99354,-0.1073,0.94772,1.29572,0.3086741154,-9.870393225,-0.2440679052,0.010995574247999998,0.022449297422999996,0.011606439484,-0.58609,1.18697,1.14463,9.4144,-0.47072,6.11936,1.0045102393288952,22.05
61792,0,6603660,31,-1378,-58,-8,25,51,-1829,2457,1688,61,-1373,-14,81,90,29,-179,1577,2246,320,64,224,19.13,1.00487540093758,24.96,1.00397730076487,4449.484375,-7309.8349609375,34.7999992370605,2,12,0.569999992847443,7.92721557617188,3,0,0,0,0,0,0.0569791238523854,0,0,0.053320734316361,-0.2584248408,-0.3302095188,9.8739824589,-0.645779848098755,-0.310172647237778,-0.617774069309235,0.32421687245369,6,44.82473958333333,-73.163916015625,0.2225325018,-9.8919286284,-0.4163511324,0.43788653580000003,-9.8560362894,-0.10049854920000001,-0.002443460944,0.00763581545,0.015577063518,0.024740042057999997,0.02748893562,0.008857545922,-1.06082,1.42506,0.97904,-0.10382,0.91466,1.30268,0.33020951880000005,-9.8739824589,-0.2584248408,0.011148290556999998,0.017562375535,0.012217304719999999,-0.5823200000000001,1.16986,1.14086,9.4144,1.88288,6.59008,1.004426350851225,22.045
61793,0,6603766,17,-1380,-60,-18,31,50,-1829,2457,1688,59,-1376,-12,73,112,16,-204,1589,2259,416,-32,256,19.14,1.00496422403158,24.96,1.0039674315322,4449.484375,-7309.8349609375,34.7999992370605,2,12,0.569999992847443,7.91954803466797,3,0,0,0,0,0,0.100224467097982,0,0,0.0990834466223558,-0.2584248408,-0.2727817764,9.8919286284,-0.645803987979889,-0.310182720422745,-0.617758095264435,0.324189722537994,6,44.82473958333333,-73.163916015625,0.12203395260000001,-9.906285564000001,-0.430708068,0.4235296002,-9.8775716928,-0.0861416136,-0.005497787124,0.009468411158,0.0152716309,0.022296581114,0.034208453215999995,0.004886921888,-1.06082,1.42506,0.97904,-0.11832,0.92162,1.31022,0.2727817764,-9.8919286284,-0.2584248408,0.008399396994999999,0.021838432186999997,0.010079276394,-0.58957,1.17334,1.14463,12.23872,-0.94144,7.53152,1.0044658277818899,22.05
61794,0,6603871,31,-1380,-56,-18,17,57,-1833,2460,1717,64,-1373,-14,69,109,21,-204,1589,2259,416,64,320,19.14,1.00506291635825,24.95,1.00394769306686,4449.484375,-7309.8349609375,34.7999992370605,2,12,0.569999992847443,7.91801452636719,3,0,0,0,0,0,0.147736499039043,0,0,0.142033534542377,-0.251246373,-0.3409772205,9.8811609267,-0.645770132541657,-0.310189127922058,-0.617772936820984,0.324222713708878,6,44.82473958333333,-73.163916015625,0.2225325018,-9.906285564000001,-0.40199419680000004,0.4594219392,-9.8560362894,-0.10049854920000001,-0.005497787124,0.005192354505999999,0.017409659225999997,0.021074850641999997,0.033292155361999996,0.006414084978,-1.06314,1.4268,0.99586,-0.11832,0.92162,1.31022,0.3409772205,-9.881160926700002,-0.251246373,0.007788531758999999,0.019242254934,0.011911872102,-0.59073,1.17421,1.1530399999999998,12.23872,1.88288,9.4144,1.0045053047125552,22.045
61795,0,6603977,30,-1381,-58,-20,16,45,-1823,2456,1704,61,-1370,-9,76,108,15,-181,1625,2230,336,-32,272,19.13,1.00493461633358,24.97,1.00403651616087,4449.484375,-7309.8349609375,34.7999992370605,2,12,0.569999992847443,7.900634765625,3,0,0,0,0,0,0.142496930688751,0,0,0.126795519410158,-0.2404786713,-0.3266202849,9.8739824589,-0.645741820335388,-0.310175120830536,-0.617806494235992,0.324228405952454,6,44.82473958333333,-73.163916015625,0.215354034,-9.9134640318,-0.4163511324,0.43788653580000003,-9.834500886,-0.0646062102,-0.0061086523599999994,0.004886921888,0.01374446781,0.023212878968,0.032986722744,0.00458148927,-1.05734,1.42448,0.98832,-0.10498,0.9425,1.2934,0.3266202849,-9.8739824589,-0.2404786713,0.008552113303999999,0.018936822316,0.00916297854,-0.58116,1.18349,1.14086,9.88512,-0.94144,8.00224,1.004485566247225,22.049999999999997
61796,0,6604082,34,-1376,-62,-10,22,48,-1823,2456,1704,59,-1369,-7,77,109,13,-181,1625,2230,288,32,240,19.12,1.00496422403158,24.97,1.0040858623242,4449.484375,-7309.8349609375,34.7999992370605,2,12,0.569999992847443,7.89807891845703,3,0,0,0,0,0,0.149596781253209,0,0,0.12881007298521,-0.2476571391,-0.3337987527,9.8524470555,-0.645786106586456,-0.310208141803741,-0.617751598358154,0.324213325977325,6,44.82473958333333,-73.163916015625,0.24406790520000002,-9.8775716928,-0.4450650036,0.4235296002,-9.8273224182,-0.050249274600000005,-0.0030543261799999997,0.006719517596,0.014660765664,0.023518311586,0.033292155361999996,0.003970624034,-1.05734,1.42448,0.98832,-0.10498,0.9425,1.2934,0.33379875270000003,-9.8524470555,-0.2476571391,0.010231992702999999,0.020005836479,0.009315694849,-0.58116,1.18349,1.14086,8.47296,0.94144,7.0608,1.0045250431778898,22.045
61797,0,6604188,28,-1383,-61,-5,31,59,-1827,2470,1736,59,-1374,-12,83,104,16,-181,1644,2214,384,48,240,19.14,1.00506291635825,24.95,1.00394769306686,4449.484375,-7309.8349609375,34.7999992370605,2,12,0.569999992847443,7.9169921875,3,0,0,0,0,0,0.109964227143705,0,0,0.079074028214106,-0.2620140747,-0.3122633493,9.8955178623,-0.645850479602814,-0.310256153345108,-0.617671966552734,0.324190855026245,6,44.82473958333333,-73.163916015625,0.20099709840000002,-9.9278209674,-0.43788653580000003,0.4235296002,-9.8632147572,-0.0861416136,-0.0015271630899999999,0.009468411158,0.018020524462,0.025350907293999997,0.031764992272,0.004886921888,-1.05966,1.4326,1.00688,-0.10498,0.95352,1.28412,0.3122633493,-9.8955178623,-0.26201407470000004,0.011911872102,0.020616701714999998,0.011453723175,-0.5823200000000001,1.19306,1.1455,11.29728,1.41216,7.0608,1.0045053047125552,22.045
61798,0,6604293,30,-1388,-63,-13,11,49,-1827,2470,1736,60,-1372,-11,63,95,14,-181,1644,2214,416,64,272,19.13,1.00487540093758,24.95,1.0039970392302,4449.484375,-7309.8349609375,34.7999992370605,2,12,0.569999992847443,7.91290283203125,3,0,0,0,0,0,0.0896724081453697,0,0,0.056950034896396,-0.2656033086,-0.323031051,9.906285564,-0.645864605903626,-0.310279488563538,-0.617641150951386,0.324199140071869,6,44.82473958333333,-73.163916015625,0.215354034,-9.9637133064,-0.45224347140000004,0.430708068,-9.848857821600001,-0.07896314580000001,-0.003970624034,0.003359758798,0.014966198282,0.019242254934,0.029016098709999997,0.004276056651999999,-1.05966,1.4326,1.00688,-0.10498,0.95352,1.28412,0.323031051,-9.906285564000001,-0.26560330860000003,0.00763581545,0.016187928754,0.009621127467,-0.5823200000000001,1.19306,1.1455,12.23872,1.88288,8.00224,1.0044362200838899,22.04
61799,0,6604399,31,-1382,-60,-22,27,51,-1827,2455,1729,60,-1374,-5,67,113,20,-199,1628,2231,320,48,256,19.14,1.00489513940291,24.96,1.00401677769553,4449.484375,-7309.8349609375,34.7999992370605,2,12,0.569999992847443,7.9169921875,3,0,0,0,0,0,0.0847793692838678,0,0,0.0529398620954504,-0.2333002035,-0.3266202849,9.8919286284,-0.645842790603638,-0.310265690088272,-0.617655336856842,0.324228763580322,6,44.82473958333333,-73.163916015625,0.2225325018,-9.9206424996,-0.430708068,0.430708068,-9.8632147572,-0.035892339,-0.006719517596,0.008246680686,0.015577063518,0.020463985405999998,0.034513885833999995,0.0061086523599999994,-1.05966,1.4239,1.00282,-0.11542,0.94424,1.29398,0.3266202849,-9.891928628399999,-0.2333002035,0.006872233904999999,0.021380283259999997,0.010842857939,-0.5875400000000001,1.18407,1.1484,9.4144,1.41216,7.53152,1.00445595854922,22.05
61800,0,6604504,27,-1387,-61,-21,14,58,-1827,2455,1729,64,-1368,-8,72,110,18,-199,1628,2231,368,16,304,19.13,1.00487540093758,24.96,1.00401677769553,4449.484375,-7309.8349609375,34.7999992370605,2,12,0.569999992847443,7.91750335693359,3,0,0,0,0,0,0.0560071379216171,0,0,0.0257956278625381,-0.2476571391,-0.3266202849,9.8883393945,-0.645769536495209,-0.310251474380493,-0.617715895175934,0.324272990226746,6,44.82473958333333,-73.163916015625,0.1938186306,-9.9565348386,-0.43788653580000003,0.4594219392,-9.8201439504,-0.0574277424,-0.006414084978,0.004276056651999999,0.017715091844,0.021991148496,0.033597587979999996,0.005497787124,-1.05966,1.4239,1.00282,-0.11542,0.94424,1.29398,0.3266202849,-9.8883393945,-0.2476571391,0.007788531759,0.018936822315999996,0.011606439484,-0.5875400000000001,1.18407,1.1484,10.82656,0.47072,8.94368,1.004446089316555,22.045
61801,0,6604609,29,-1386,-62,-24,17,41,-1806,2467,1718,63,-1371,-12,70,106,15,-173,1603,2255,320,64,240,19.14,1.00488527017024,24.95,1.00395756229953,4449.484375,-7309.8349609375,34.7999992370605,2,12,0.569999992847443,7.91239166259766,3,0,0,0,0,0,0.0196086401466328,0,0,-0.0053446797128413,-0.2656033086,-0.3302095188,9.8955178623,-0.645774066448212,-0.310240477323532,-0.617729961872101,0.324247658252716,6,44.82473958333333,-73.163916015625,0.2081755662,-9.9493563708,-0.4450650036,0.45224347140000004,-9.8416793538,-0.0861416136,-0.007330382832,0.005192354505999999,0.012522737337999999,0.021380283259999997,0.032375857508,0.00458148927,-1.04748,1.43086,0.99644,-0.10034,0.92974,1.3079,0.33020951880000005,-9.8955178623,-0.26560330860000003,0.007024950213999999,0.018784106007,0.008552113303999999,-0.57391,1.1803,1.15217,9.4144,1.88288,7.0608,1.004421416234885,22.045
61802,0,6604715,32,-1386,-65,-22,31,51,-1806,2467,1718,60,-1368,-16,74,103,20,-173,1603,2255,320,32,160,19.14,1.00495435479891,24.95,1.00384900074019,4449.484375,-7309.8349609375,34.7999992370605,2,12,0.569999992847443,7.933349609375,3,0,0,0,0,0,0.063688515878446,0,0,0.0484727850377043,-0.2907279459,-0.3302095188,9.8847501606,-0.633258640766144,-0.331499874591827,-0.608296871185303,0.345059931278229,6,44.82473958333333,-73.163916015625,0.2297109696,-9.9493563708,-0.466600407,0.430708068,-9.8201439504,-0.1148554848,-0.006719517596,0.009468411158,0.015577063518,0.022602013732,0.031459559654,0.0061086523599999994,-1.04748,1.43086,0.99644,-0.10034,0.92974,1.3079,0.3302095188,-9.8847501606,-0.2907279459,0.007941248068,0.020463985405999998,0.010842857939,-0.57391,1.1803,1.15217,9.4144,0.94144,4.7072,1.00440167776955,22.045
61803,0,6604820,27,-1384,-67,-16,27,53,-1829,2461,1701,67,-1367,-10,76,106,16,-184,1585,2256,272,32,224,19.14,1.00494448556625,24.95,1.00389834690353,4449.484375,-7309.8349609375,34.9000015258789,2,12,0.569999992847443,7.94101715087891,3,0,0,0,0,0,0.0845183459892704,0,0,0.072693500830927,-0.2763710103,-0.3373879866,9.8739824589,-0.633289277553558,-0.331547498703003,-0.608250796794891,0.345039069652557,6,44.82473958333333,-73.163916015625,0.1938186306,-9.9349994352,-0.4809573426,0.4809573426,-9.812965482600001,-0.071784678,-0.004886921888,0.008246680686,0.016187928754,0.023212878968,0.032375857508,0.004886921888,-1.06082,1.42738,0.98658,-0.10672,0.9193,1.30848,0.3373879866,-9.8739824589,-0.2763710103,0.00916297854,0.020311269096999998,0.010537425320999999,-0.58377,1.17334,1.1475300000000002,8.00224,0.94144,6.59008,1.00442141623489,22.045
61804,0,6604926,38,-1382,-65,-19,14,45,-1829,2461,1701,59,-1369,-10,68,104,15,-184,1585,2256,336,-48,224,19.14,1.00500370096225,24.95,1.00403651616087,4449.484375,-7309.8349609375,34.9000015258789,2,12,0.569999992847443,7.91801452636719,3,0,0,0,0,0,0.128021834892555,0,0,0.113522425360489,-0.2691925425,-0.3481556883,9.8739824589,-0.633290231227875,-0.331507742404938,-0.608271241188049,0.345039457082748,6,44.82473958333333,-73.163916015625,0.2727817764,-9.9206424996,-0.466600407,0.4235296002,-9.8273224182,-0.071784678,-0.005803219742,0.004276056651999999,0.01374446781,0.020769418023999998,0.031764992272,0.00458148927,-1.06082,1.42738,0.98658,-0.10672,0.9193,1.30848,0.3481556883,-9.873982458899999,-0.2691925425,0.007483099140999999,0.018020524461999997,0.00916297854,-0.58377,1.17334,1.1475300000000002,9.88512,-1.41216,6.59008,1.00452010856156,22.045
61805,0,6605031,29,-1377,-54,-25,34,49,-1840,2442,1718,64,-1370,-8,74,111,17,-152,1613,2248,384,64,272,19.13,1.00487540093758,24.95,1.0039970392302,4449.484375,-7309.8349609375,34.9000015258789,2,12,0.569999992847443,7.91290283203125,3,0,0,0,0,0,0.149194103100478,0,0,0.129078848347054,-0.2225325018,-0.3337987527,9.8596255233,-0.633247375488281,-0.331464439630508,-0.608323037624359,0.34506830573082,6,44.82473958333333,-73.163916015625,0.2081755662,-9.884750160600001,-0.3876372612,0.4594219392,-9.834500886,-0.0574277424,-0.00763581545,0.010384709011999999,0.014966198282,0.022602013732,0.033903020597999996,0.005192354505999999,-1.0672,1.41636,0.99644,-0.08816,0.93554,1.30384,0.33379875270000003,-9.8596255233,-0.2225325018,0.007483099141,0.022143864804999996,0.010079276394,-0.57768,1.17595,1.15014,11.29728,1.88288,8.00224,1.0044362200838899,22.04
61806,0,6605137,35,-1384,-61,-9,18,54,-1840,2442,1718,58,-1373,-2,71,99,15,-152,1613,2248,464,16,320,19.14,1.00495435479891,24.95,1.00383913150753,4449.484375,-7309.8349609375,34.9000015258789,2,12,0.569999992847443,7.93386077880859,3,0,0,0,0,0,0.186927073670194,0,0,0.16045292079683,-0.2261217357,-0.3337987527,9.8955178623,-0.633267164230347,-0.331481605768204,-0.608293890953064,0.345067083835602,6,44.82473958333333,-73.163916015625,0.251246373,-9.9349994352,-0.43788653580000003,0.4163511324,-9.8560362894,-0.0143569356,-0.002748893562,0.005497787124,0.016493361372,0.021685715878,0.030237829182,0.00458148927,-1.0672,1.41636,0.99644,-0.08816,0.93554,1.30384,0.33379875270000003,-9.8955178623,-0.22612173570000002,0.009468411158,0.017867808153,0.010537425320999999,-0.57768,1.17595,1.15014,13.65088,0.47072,9.4144,1.00439674315322,22.045
61807,0,6605242,30,-1378,-67,-14,7,56,-1813,2435,1713,60,-1368,-15,84,105,11,-201,1604,2236,432,80,256,19.13,1.00487540093758,24.96,1.0039082161362,4449.484375,-7309.8349609375,34.9000015258789,2,12,0.569999992847443,7.9169921875,3,0,0,0,0,0,0.172972939355554,0,0,0.140441962484909,-0.2943171798,-0.323031051,9.8560362894,-0.633310377597809,-0.331522256135941,-0.608232319355011,0.345057159662247,6,44.82473958333333,-73.163916015625,0.215354034,-9.8919286284,-0.4809573426,0.430708068,-9.8201439504,-0.107677017,-0.004276056651999999,0.0021380283259999997,0.017104226607999998,0.025656339912,0.03207042489,0.003359758798,-1.05154,1.4123,0.99354,-0.11658,0.93032,1.29688,0.323031051,-9.8560362894,-0.2943171798,0.01069014163,0.017104226607999998,0.010231992702999999,-0.5840599999999999,1.17131,1.14521,12.70944,2.3536,7.53152,1.00439180853689,22.045
61808,0,6605348,28,-1383,-63,-13,21,55,-1813,2435,1713,60,-1372,-11,65,96,22,-201,1604,2236,384,-48,256,19.14,1.00494448556625,24.95,1.00409573155687,4449.484375,-7309.8349609375,34.9000015258789,2,12,0.569999992847443,7.9169921875,3,0,0,0,0,0,0.206665171796727,0,0,0.164760248283785,-0.2656033086,-0.3158525832,9.8883393945,-0.633320152759552,-0.331605106592178,-0.608168423175812,0.345072329044342,6,44.82473958333333,-73.163916015625,0.20099709840000002,-9.9278209674,-0.45224347140000004,0.430708068,-9.848857821600001,-0.07896314580000001,-0.003970624034,0.006414084978,0.016798793989999998,0.01985312017,0.029321531328,0.006719517596,-1.05154,1.4123,0.99354,-0.11658,0.93032,1.29688,0.3158525832,-9.8883393945,-0.26560330860000003,0.007941248068,0.017867808153,0.011759155793,-0.5840599999999999,1.17131,1.14521,11.29728,-1.41216,7.53152,1.00452010856156,22.045
61809,0,6605453,31,-1381,-62,-17,23,50,-1852,2439,1702,58,-1373,-13,77,108,19,-169,1595,2201,352,32,240,19.14,1.00489513940291,24.96,1.00411547002221,4449.484375,-7309.8349609375,34.9000015258789,2,12,0.569999992847443,7.93692779541016,3,0,0,0,0,0,0.198217368031969,0,0,0.145937957705684,-0.2691925425,-0.3194418171,9.8847501606,-0.633348405361176,-0.331538647413254,-0.608201563358307,0.345025926828384,6,44.82473958333333,-73.163916015625,0.2225325018,-9.9134640318,-0.4450650036,0.4163511324,-9.8560362894,-0.0933200814,-0.005192354505999999,0.0070249502139999994,0.0152716309,0.023518311586,0.032986722744,0.005803219742,-1.07416,1.41462,0.98716,-0.09802,0.9251,1.27658,0.31944181709999997,-9.8847501606,-0.2691925425,0.00916297854,0.020005836479,0.010537425321,-0.58609,1.16986,1.1318700000000002,10.35584,0.94144,7.0608,1.00450530471256,22.05
61810,0,6605558,33,-1386,-60,-15,30,56,-1852,2439,1702,69,-1369,-7,57,107,14,-179,1636,2242,448,-48,208,19.14,1.00488527017024,24.95,1.00395756229953,4449.484375,-7309.8349609375,34.9000015258789,2,12,0.569999992847443,7.92210388183594,3,0,0,0,0,0,0.203270144268614,0,0,0.142728619683104,-0.2404786713,-0.3661018578,9.8883393945,-0.633309483528137,-0.331482112407684,-0.608268260955811,0.345034092664719,6,44.82473958333333,-73.163916015625,0.2368894374,-9.9493563708,-0.430708068,0.4953142782,-9.8273224182,-0.050249274600000005,-0.00458148927,0.00916297854,0.017104226607999998,0.017409659225999997,0.032681290126,0.004276056651999999,-1.07416,1.41462,0.98716,-0.10382,0.9488800000000001,1.30036,0.36610185780000004,-9.8883393945,-0.2404786713,0.006414084977999999,0.020922134332999998,0.010690141629999999,-0.58899,1.18175,1.1437599999999999,13.18016,-1.41216,6.11936,1.004421416234885,22.045
61811,0,6605664,35,-1384,-59,-14,19,54,-1829,2456,1699,62,-1370,-4,82,110,18,-179,1636,2242,336,-32,336,19.13,1.00492474710091,24.96,1.00391808536886,4449.484375,-7309.8349609375,34.9000015258789,2,12,0.569999992847443,7.93539428710938,3,0,0,0,0,0,0.196166049473668,0,0,0.127676858046624,-0.2261217357,-0.3481556883,9.8847501606,-0.633314907550812,-0.331458628177643,-0.608269035816193,0.345045328140259,6,44.82473958333333,-73.163916015625,0.251246373,-9.9349994352,-0.4235296002,0.4450650036,-9.834500886,-0.0287138712,-0.004276056651999999,0.005803219742,0.016493361372,0.025045474675999997,0.033597587979999996,0.005497787124,-1.06082,1.42448,0.98542,-0.10382,0.9488800000000001,1.30036,0.3481556883,-9.8847501606,-0.22612173570000002,0.010384709011999999,0.019700403861,0.010995574248,-0.5823200000000001,1.18668,1.14289,9.88512,-0.94144,9.88512,1.004421416234885,22.045
61812,0,6605769,32,-1381,-56,-9,27,56,-1829,2456,1699,55,-1373,-11,71,101,16,-180,1596,2218,288,-48,288,19.13,1.00482605477424,24.94,1.00392795460153,4449.484375,-7309.8349609375,34.9000015258789,2,12,0.569999992847443,7.933349609375,3,0,0,0,0,0,0.247720256741529,0,0,0.174436110499392,-0.2404786713,-0.3122633493,9.8847501606,-0.634357333183289,-0.330268234014511,-0.608209848403931,0.344375520944595,6,44.82473958333333,-73.163916015625,0.2297109696,-9.9134640318,-0.40199419680000004,0.394815729,-9.8560362894,-0.07896314580000001,-0.002748893562,0.008246680686,0.017104226607999998,0.021685715878,0.030848694418,0.004886921888,-1.06082,1.42448,0.98542,-0.1044,0.9256800000000001,1.28644,0.3122633493,-9.8847501606,-0.24047867130000003,0.009468411158,0.019547687552,0.010995574247999998,-0.5826100000000001,1.17508,1.13593,8.47296,-1.41216,8.47296,1.004377004687885,22.035
61813,0,6605875,30,-1380,-63,-9,36,50,-1816,2466,1724,60,-1373,-7,71,106,12,-180,1596,2218,272,160,288,19.14,1.0047471009129,24.96,1.00411547002221,4449.484375,-7309.8349609375,34.9000015258789,2,12,0.569999992847443,7.91290283203125,3,0,0,0,0,0,0.248275613927987,0,0,0.16428258298079,-0.251246373,-0.323031051,9.8811609267,-0.634404301643372,-0.330279111862183,-0.608178019523621,0.344334870576859,6,44.82473958333333,-73.163916015625,0.215354034,-9.906285564000001,-0.45224347140000004,0.430708068,-9.8560362894,-0.050249274600000005,-0.002748893562,0.010995574248,0.0152716309,0.021685715878,0.032375857508,0.003665191416,-1.05328,1.43028,0.99992,-0.1044,0.9256800000000001,1.28644,0.323031051,-9.881160926700002,-0.251246373,0.009468411158,0.021685715878,0.009468411158,-0.57884,1.17798,1.14318,8.00224,4.7072,8.47296,1.004431285467555,22.05
61814,0,6605980,28,-1383,-66,-25,23,48,-1821,2450,1663,59,-1374,-12,76,104,11,-172,1618,2265,336,16,320,19.12,1.00470762398224,24.95,1.00398716999753,4449.484375,-7309.8349609375,34.9000015258789,2,12,0.569999992847443,7.93641662597656,3,0,0,0,0,0,0.249118759778373,0,0,0.158567147599972,-0.2799602442,-0.3122633493,9.8955178623,-0.634422123432159,-0.330241322517395,-0.608168601989746,0.344354778528213,6,44.82473958333333,-73.163916015625,0.20099709840000002,-9.9278209674,-0.4737788748,0.4235296002,-9.8632147572,-0.0861416136,-0.00763581545,0.0070249502139999994,0.014660765664,0.023212878968,0.031764992272,0.003359758798,-1.05618,1.421,0.96454,-0.09976,0.93844,1.3137,0.3122633493,-9.8955178623,-0.2799602442,0.007788531759,0.019394971243,0.009010262231,-0.57797,1.17972,1.1391200000000001,9.88512,0.47072,9.4144,1.004347396989885,22.035
61815,0,6606086,27,-1379,-60,-10,29,45,-1821,2450,1663,63,-1370,-4,58,116,18,-172,1618,2265,304,-32,208,19.14,1.00505304712559,24.93,1.00395756229953,4449.484375,-7309.8349609375,34.9000015258789,2,12,0.569999992847443,7.9169921875,3,0,0,0,0,0,0.210932056271103,0,0,0.109600221026806,-0.2297109696,-0.323031051,9.8668039911,-0.634405076503754,-0.330195963382721,-0.608195662498474,0.344381868839264,6,44.82473958333333,-73.163916015625,0.1938186306,-9.8991070962,-0.430708068,0.45224347140000004,-9.834500886,-0.0287138712,-0.0030543261799999997,0.008857545922,0.01374446781,0.017715091844,0.035430183688,0.005497787124,-1.05618,1.421,0.96454,-0.09976,0.93844,1.3137,0.323031051,-9.8668039911,-0.2297109696,0.007330382832,0.022143864805,0.009621127467,-0.57797,1.17972,1.1391200000000001,8.94368,-0.94144,6.11936,1.00450530471256,22.035
61816,0,6606191,36,-1379,-60,-23,26,57,-1825,2468,1711,64,-1369,-4,73,101,14,-195,1578,2243,272,-16,224,19.13,1.00502343942758,24.95,1.00394769306686,4449.484375,-7309.8349609375,34.9000015258789,2,12,0.569999992847443,7.9169921875,3,0,0,0,0,0,0.196391852052877,0,0,0.0887585140624399,-0.2297109696,-0.35892339,9.8632147572,-0.634423732757568,-0.330160081386566,-0.608206748962402,0.344362258911133,6,44.82473958333333,-73.163916015625,0.2584248408,-9.8991070962,-0.430708068,0.4594219392,-9.8273224182,-0.0287138712,-0.0070249502139999994,0.007941248068,0.017409659225999997,0.022296581114,0.030848694418,0.004276056651999999,-1.0585,1.43144,0.99238,-0.1131,0.91524,1.30094,0.35892339,-9.8632147572,-0.2297109696,0.00763581545,0.019394971243,0.010842857938999998,-0.5858,1.17334,1.14666,8.00224,-0.47072,6.59008,1.00448556624722,22.04
61817,0,6606297,28,-1382,-58,-16,20,58,-1825,2468,1711,58,-1369,-7,77,106,15,-195,1578,2243,384,16,320,19.14,1.00499383172958,24.95,1.00394769306686,4449.484375,-7309.8349609375,34.9000015258789,2,12,0.569999992847443,7.91750335693359,3,0,0,0,0,0,0.230473628016099,0,0,0.121888751663306,-0.2333002035,-0.3086741154,9.8739824589,-0.634402751922607,-0.330205917358398,-0.60817551612854,0.344412207603455,6,44.82473958333333,-73.163916015625,0.20099709840000002,-9.9206424996,-0.4163511324,0.4163511324,-9.8273224182,-0.050249274600000005,-0.004886921888,0.0061086523599999994,0.017715091844,0.023518311586,0.032375857508,0.00458148927,-1.0585,1.43144,0.99238,-0.1131,0.91524,1.30094,0.3086741154,-9.873982458899999,-0.2333002035,0.009315694849,0.019242254934,0.011148290557,-0.5858,1.17334,1.14666,11.29728,0.47072,9.4144,1.00447076239822,22.045
61818,0,6606402,31,-1381,-63,-17,18,58,-1833,2450,1733,57,-1375,-13,75,90,17,-147,1609,2270,288,32,208,19.14,1.00489513940291,24.96,1.00411547002221,4449.484375,-7309.8349609375,34.9000015258789,2,12,0.569999992847443,7.91903686523438,3,0,0,0,0,0,0.174705034949607,0,0,0.0563331179416291,-0.2727817764,-0.3158525832,9.8919286284,-0.634436070919037,-0.330231696367264,-0.608123183250427,0.34441864490509,6,44.82473958333333,-73.163916015625,0.2225325018,-9.9134640318,-0.45224347140000004,0.4091726646,-9.870393225,-0.0933200814,-0.005192354505999999,0.005497787124,0.017715091844,0.02290744635,0.02748893562,0.005192354505999999,-1.06314,1.421,1.00514,-0.08526,0.93322,1.3166,0.3158525832,-9.8919286284,-0.2727817764,0.008857545922,0.016493361372,0.011453723175,-0.5742,1.17711,1.16087,8.47296,0.94144,6.11936,1.00450530471256,22.05
61819,0,6606507,29,-1377,-67,-11,35,51,-1833,2450,1733,59,-1364,-8,74,101,22,-147,1609,2270,368,-16,208,19.13,1.00477670861091,24.96,1.00401677769553,4449.484375,-7309.8349609375,35.0,2,12,0.569999992847443,7.91034698486328,3,0,0,0,0,0,0.182860809125981,0,0,0.0657175463101709,-0.2691925425,-0.3158525832,9.8380901199,-0.634446442127228,-0.330225348472595,-0.608119249343872,0.344412565231323,6,44.82473958333333,-73.163916015625,0.2081755662,-9.884750160600001,-0.4809573426,0.4235296002,-9.7914300792,-0.0574277424,-0.003359758798,0.010690141629999999,0.015577063518,0.022602013732,0.030848694418,0.006719517596,-1.06314,1.421,1.00514,-0.08526,0.93322,1.3166,0.3158525832,-9.8380901199,-0.2691925425,0.009621127467,0.020769418023999998,0.011148290557,-0.5742,1.17711,1.16087,10.82656,-0.47072,6.11936,1.0043967431532201,22.045
61820,0,6606613,36,-1381,-60,-24,19,55,-1826,2460,1738,67,-1374,-4,62,107,26,-193,1593,2238,288,32,224,19.12,1.00507278559092,24.95,1.00415494695287,4449.484375,-7309.8349609375,35.0,2,12,0.569999992847443,7.91188049316406,3,0,0,0,0,0,0.140462401560581,0,0,0.0177004570396594,-0.2297109696,-0.3696910917,9.8883393945,-0.634425759315491,-0.330150038003921,-0.608163475990295,0.344444692134857,6,44.82473958333333,-73.163916015625,0.2584248408,-9.9134640318,-0.430708068,0.4809573426,-9.8632147572,-0.0287138712,-0.007330382832,0.005803219742,0.016798793989999998,0.018936822316,0.032681290126,0.007941248068,-1.05908,1.4268,1.00804,-0.11194,0.92394,1.29804,0.36969109170000003,-9.8883393945,-0.2297109696,0.005803219742,0.019242254934,0.012370021028999999,-0.58551,1.17537,1.15304,8.47296,0.94144,6.59008,1.004613866271895,22.035
61821,0,6606718,33,-1383,-58,-21,22,56,-1826,2460,1738,60,-1370,-14,76,95,20,-193,1593,2238,384,128,288,19.14,1.00494448556625,24.95,1.0040562546262,4449.484375,-7309.8349609375,35.0,2,12,0.569999992847443,7.91750335693359,3,0,0,0,0,0,0.111346131440717,0,0,-0.0086853248955865,-0.2584248408,-0.3337987527,9.8811609267,-0.642917215824127,-0.31375989317894,-0.617699325084686,0.326588094234467,6,44.82473958333333,-73.163916015625,0.2368894374,-9.9278209674,-0.4163511324,0.430708068,-9.834500886,-0.10049854920000001,-0.006414084978,0.006719517596,0.017104226607999998,0.023212878968,0.029016098709999997,0.0061086523599999994,-1.05908,1.4268,1.00804,-0.11194,0.92394,1.29804,0.33379875270000003,-9.881160926700002,-0.2584248408,0.008399396994999999,0.017867808152999997,0.011606439484,-0.58551,1.17537,1.15304,11.29728,3.76576,8.47296,1.004500370096225,22.045
61822,0,6606824,28,-1385,-54,-13,20,58,-1818,2469,1723,61,-1378,-6,79,99,10,-166,1588,2217,400,48,160,19.12,1.00496422403158,24.95,1.00410560078954,4449.484375,-7309.8349609375,35.0,2,12,0.569999992847443,7.91903686523438,3,0,0,0,0,0,0.100609863380999,0,0,-0.0151589136376172,-0.215354034,-0.3194418171,9.9170532657,-0.642915904521942,-0.31378310918808,-0.617659151554108,0.326644420623779,6,44.82473958333333,-73.163916015625,0.20099709840000002,-9.942177903000001,-0.3876372612,0.43788653580000003,-9.8919286284,-0.0430708068,-0.003970624034,0.0061086523599999994,0.017715091844,0.024129176821999998,0.030237829182,0.0030543261799999997,-1.05444,1.43202,0.99934,-0.09628,0.92104,1.28586,0.3194418171,-9.917053265700002,-0.21535403400000003,0.010079276394,0.018173240771,0.010384709012,-0.57536,1.17653,1.1426,11.768,1.41216,4.7072,1.00453491241056,22.035
61823,0,6606929,34,-1384,-59,-8,9,48,-1818,2469,1723,59,-1371,-6,70,90,16,-166,1588,2217,352,80,352,19.14,1.00489513940291,24.94,1.00397730076487,4449.484375,-7309.8349609375,35.0,2,12,0.569999992847443,7.933349609375,3,0,0,0,0,0,0.028230158776075,0,0,-0.0806735154413198,-0.2333002035,-0.3337987527,9.8883393945,-0.642957508563995,-0.313781529664993,-0.617634952068329,0.32660973072052,6,44.82473958333333,-73.163916015625,0.24406790520000002,-9.9349994352,-0.4235296002,0.4235296002,-9.8416793538,-0.0430708068,-0.002443460944,0.002748893562,0.014660765664,0.021380283259999997,0.02748893562,0.004886921888,-1.05444,1.43202,0.99934,-0.09628,0.92104,1.28586,0.33379875270000003,-9.8883393945,-0.23330020350000003,0.009468411157999998,0.015118914591,0.009773843776,-0.57536,1.17653,1.1426,10.35584,2.3536,10.35584,1.0044362200838899,22.04
61824,0,6607035,36,-1382,-65,-11,43,61,-1813,2471,1703,52,-1367,-14,64,117,26,-171,1617,2199,288,48,256,19.14,1.00490500863558,24.95,1.0040562546262,4449.484375,-7309.8349609375,35.0,2,12,0.569999992847443,7.900634765625,3,0,0,0,0,0,0.0260188281005509,0,0,-0.0659975635696546,-0.2835494781,-0.3158525832,9.8668039911,-0.642982602119446,-0.3137326836586,-0.617639124393463,0.326599329710007,6,44.82473958333333,-73.163916015625,0.2584248408,-9.9206424996,-0.466600407,0.3732803256,-9.812965482600001,-0.10049854920000001,-0.003359758798,0.013133602574,0.018631389698,0.019547687552,0.035735616306,0.007941248068,-1.05154,1.43318,0.98774,-0.09918,0.93786,1.27542,0.3158525832,-9.8668039911,-0.2835494781,0.008093964377,0.02443460944,0.013286318883,-0.57536,1.18552,1.13158,8.47296,1.41216,7.53152,1.0044806316308899,22.045
61825,0,6607140,33,-1381,-58,-8,9,63,-1813,2471,1703,57,-1373,-10,56,77,12,-162,1638,2254,368,16,288,19.14,1.00479644707624,24.95,1.00400690846287,4449.484375,-7309.8349609375,35.0,2,12,0.569999992847443,7.91290283203125,3,0,0,0,0,0,0.0849837579392072,0,0,0.0085133378364031,-0.2440679052,-0.323031051,9.8847501606,-0.642890155315399,-0.313744008541107,-0.617670655250549,0.326710909605026,6,44.82473958333333,-73.163916015625,0.2368894374,-9.9134640318,-0.4163511324,0.4091726646,-9.8560362894,-0.071784678,-0.002443460944,0.002748893562,0.019242254934,0.017104226607999998,0.023518311586,0.003665191416,-1.05154,1.43318,0.98774,-0.09396,0.95004,1.30732,0.323031051,-9.8847501606,-0.2440679052,0.007330382831999999,0.013133602574,0.011453723175,-0.57275,1.1916099999999998,1.14753,10.82656,0.47072,8.47296,1.004401677769555,22.045
61826,0,6607246,34,-1380,-64,-5,20,50,-1814,2465,1692,60,-1369,-9,69,100,18,-162,1638,2254,368,80,320,19.14,1.00520108561559,24.95,1.0039378238342,4449.484375,-7309.8349609375,35.0,2,12,0.569999992847443,7.91290283203125,3,0,0,0,0,0,0.0372317364171018,0,0,-0.0357372115809149,-0.2620140747,-0.3373879866,9.8668039911,-0.642903864383698,-0.313652366399765,-0.617727875709534,0.326663762331009,6,44.82473958333333,-73.163916015625,0.24406790520000002,-9.906285564000001,-0.4594219392,0.430708068,-9.8273224182,-0.0646062102,-0.0015271630899999999,0.0061086523599999994,0.0152716309,0.021074850641999997,0.0305432618,0.005497787124,-1.05212,1.4297,0.98136,-0.09396,0.95004,1.30732,0.3373879866,-9.8668039911,-0.2620140747,0.009773843776,0.01832595708,0.010384709012,-0.57304,1.18987,1.1443400000000001,10.82656,2.3536,9.4144,1.0045694547248951,22.045
61827,0,6607351,27,-1385,-55,-18,22,51,-1814,2465,1692,62,-1374,-3,67,117,19,-159,1635,2179,352,128,288,19.13,1.00497409326425,24.95,1.00395756229953,4449.484375,-7309.8349609375,35.0,2,12,0.569999992847443,7.91903686523438,3,0,0,0,0,0,0.0853337734337649,0,0,0.022725440080432,-0.2081755662,-0.3194418171,9.9026963301,-0.642876982688904,-0.313733041286468,-0.61770761013031,0.32667750120163,6,44.82473958333333,-73.163916015625,0.1938186306,-9.942177903000001,-0.394815729,0.4450650036,-9.8632147572,-0.0215354034,-0.005497787124,0.006719517596,0.015577063518,0.020463985405999998,0.035735616306,0.005803219742,-1.05212,1.4297,0.98136,-0.09222,0.9483,1.26382,0.3194418171,-9.9026963301,-0.2081755662,0.007483099140999999,0.021227566951,0.01069014163,-0.57217,1.189,1.12259,10.35584,3.76576,8.47296,1.0044658277818899,22.04
61828,0,6607456,30,-1383,-62,-16,14,45,-1822,2453,1688,64,-1374,-16,68,98,20,-159,1635,2179,416,-16,304,19.12,1.00485566247224,24.96,1.00385886997286,4449.484375,-7309.8349609375,35.0999984741211,2,12,0.569999992847443,7.92926025390625,3,0,0,0,0,0,0.073290835649099,0,0,0.0170519826363697,-0.2799602442,-0.3373879866,9.8955178623,-0.642916083335876,-0.313725471496582,-0.617683708667755,0.326652944087982,6,44.82473958333333,-73.163916015625,0.215354034,-9.9278209674,-0.4450650036,0.4594219392,-9.8632147572,-0.1148554848,-0.004886921888,0.004276056651999999,0.01374446781,0.020769418023999998,0.029932396564,0.0061086523599999994,-1.05676,1.4227400000000001,0.97904,-0.09222,0.9483,1.26382,0.3373879866,-9.8955178623,-0.2799602442,0.007941248068,0.017104226607999998,0.009926560085,-0.57449,1.1855200000000001,1.12143,12.23872,-0.47072,8.94368,1.00435726622255,22.04
61829,0,6607562,31,-1385,-71,-11,34,56,-1822,2453,1688,64,-1365,-14,77,115,20,-163,1579,2247,448,48,272,19.13,1.00486553170491,24.94,1.00407599309154,4449.484375,-7309.8349609375,35.0999984741211,2,12,0.569999992847443,7.92568206787109,3,0,0,0,0,0,0.0682964197615847,0,0,0.0173305122867158,-0.3050848815,-0.3409772205,9.870393225,-0.642972111701965,-0.313703507184982,-0.617666184902191,0.326596915721893,6,44.82473958333333,-73.163916015625,0.2225325018,-9.942177903000001,-0.5096712138,0.4594219392,-9.798608547,-0.10049854920000001,-0.003359758798,0.010384709011999999,0.017104226607999998,0.023518311586,0.035124751069999995,0.0061086523599999994,-1.05676,1.4227400000000001,0.97904,-0.09454,0.91582,1.30326,0.3409772205,-9.870393225,-0.3050848815,0.010079276394,0.022754730040999996,0.011606439484,-0.57565,1.16928,1.14115,13.18016,1.41216,8.00224,1.004470762398225,22.035
61830,0,6607667,25,-1386,-54,-9,29,50,-1830,2460,1670,60,-1372,-11,73,116,15,-163,1579,2247,400,64,336,19.14,1.00479644707624,24.95,1.00415494695287,4449.484375,-7309.8349609375,35.0999984741211,2,12,0.569999992847443,7.91290283203125,3,0,0,0,0,0,0.122594318657946,0,0,0.0769336163055354,-0.2333002035,-0.3050848815,9.8991070962,-0.642966628074646,-0.313724160194397,-0.61765193939209,0.326614618301392,6,44.82473958333333,-73.163916015625,0.179461695,-9.9493563708,-0.3876372612,0.430708068,-9.848857821600001,-0.07896314580000001,-0.002748893562,0.008857545922,0.0152716309,0.022296581114,0.035430183688,0.00458148927,-1.0614,1.4268,0.9686,-0.09454,0.91582,1.30326,0.3050848815,-9.899107096200002,-0.23330020350000003,0.009773843776,0.022143864805,0.009926560085,-0.57797,1.17131,1.13593,11.768,1.88288,9.88512,1.0044756970145552,22.045
61831,0,6607773,30,-1383,-60,-16,24,58,-1830,2460,1670,64,-1369,-5,74,101,17,-159,1623,2249,400,64,272,19.12,1.00480631630891,24.95,1.0039378238342,4449.484375,-7309.8349609375,35.0999984741211,2,12,0.569999992847443,7.9251708984375,3,0,0,0,0,0,0.133900343248263,0,0,0.0893431008602058,-0.2333002035,-0.3373879866,9.8775716928,-0.652822494506836,-0.294721990823746,-0.626625597476959,0.307086616754532,6,44.82473958333333,-73.163916015625,0.215354034,-9.9278209674,-0.430708068,0.4594219392,-9.8273224182,-0.035892339,-0.004886921888,0.007330382832,0.017715091844,0.022602013732,0.030848694418,0.005192354505999999,-1.0614,1.4268,0.9686,-0.09222,0.94134,1.30442,0.3373879866,-9.8775716928,-0.2333002035,0.008857545922,0.019089538625,0.011453723175,-0.5768099999999999,1.18407,1.13651,11.768,1.88288,8.00224,1.004372070071555,22.035
61832,0,6607878,30,-1380,-64,-7,28,63,-1828,2462,1698,56,-1368,-9,78,104,24,-159,1623,2249,480,48,272,19.15,1.00508265482359,24.95,1.00398716999753,4449.484375,-7309.8349609375,35.0999984741211,2,12,0.569999992847443,7.9169921875,3,0,0,0,0,0,0.140503906422863,0,0,0.0919359739514197,-0.2620140747,-0.3086741154,9.8632147572,-0.652870178222656,-0.294764161109924,-0.626537501811981,0.307124406099319,6,44.82473958333333,-73.163916015625,0.215354034,-9.906285564000001,-0.4594219392,0.40199419680000004,-9.8201439504,-0.0646062102,-0.0021380283259999997,0.008552113303999999,0.019242254934,0.023823744204,0.031764992272,0.007330382832,-1.06024,1.4279600000000001,0.98484,-0.09222,0.94134,1.30442,0.3086741154,-9.863214757200002,-0.2620140747,0.010842857939,0.020158552788,0.013286318883,-0.57623,1.18465,1.14463,14.1216,1.41216,8.00224,1.00453491241056,22.049999999999997
61833,0,6607984,28,-1388,-61,-17,13,52,-1828,2462,1698,52,-1374,-12,81,105,18,-148,1612,2242,336,64,272,19.14,1.00494448556625,24.95,1.00394769306686,4449.484375,-7309.8349609375,35.0999984741211,2,12,0.569999992847443,7.90983581542969,3,0,0,0,0,0,0.183401197119792,0,0,0.129739106381869,-0.2620140747,-0.287138712,9.9134640318,-0.652913868427277,-0.294811695814133,-0.626455724239349,0.307152777910233,6,44.82473958333333,-73.163916015625,0.20099709840000002,-9.9637133064,-0.43788653580000003,0.3732803256,-9.8632147572,-0.0861416136,-0.005192354505999999,0.003970624034,0.015882496136,0.024740042057999997,0.03207042489,0.005497787124,-1.06024,1.4279600000000001,0.98484,-0.08584,0.93496,1.30036,0.287138712,-9.9134640318,-0.26201407470000004,0.009773843776,0.018020524461999997,0.01069014163,-0.57304,1.18146,1.1426,9.88512,1.88288,8.00224,1.004446089316555,22.045
61834,0,6608089,33,-1384,-65,-26,14,56,-1821,2449,1694,58,-1369,-15,72,103,14,-148,1612,2242,336,-80,272,19.14,1.00500370096225,24.94,1.00387860843819,4449.484375,-7309.8349609375,35.0999984741211,2,12,0.569999992847443,7.9251708984375,3,0,0,0,0,0,0.186773887858405,0,0,0.126180140946415,-0.287138712,-0.3266202849,9.8811609267,-0.652916252613068,-0.29482239484787,-0.626438856124878,0.307171940803528,6,44.82473958333333,-73.163916015625,0.2368894374,-9.9349994352,-0.466600407,0.4163511324,-9.8273224182,-0.107677017,-0.007941248068,0.004276056651999999,0.017104226607999998,0.021991148496,0.031459559654,0.004276056651999999,-1.05618,1.42042,0.9825200000000001,-0.08584,0.93496,1.30036,0.3266202849,-9.8811609267,-0.287138712,0.007024950214,0.017867808153,0.010690141629999999,-0.5710099999999999,1.1776900000000001,1.14144,9.88512,-2.3536,8.00224,1.00444115470022,22.04
61835,0,6608195,31,-1383,-63,-23,23,54,-1815,2467,1686,62,-1368,-12,72,108,20,-164,1588,2213,384,144,256,19.13,1.00487540093758,24.95,1.0039970392302,4449.484375,-7309.8349609375,35.0999984741211,2,12,0.569999992847443,7.9169921875,3,0,0,0,0,0,0.188093682369454,0,0,0.122818100062821,-0.2691925425,-0.3337987527,9.8739824589,-0.652855038642883,-0.294801384210587,-0.626469075679779,0.30726033449173,6,44.82473958333333,-73.163916015625,0.2225325018,-9.9278209674,-0.45224347140000004,0.4450650036,-9.8201439504,-0.0861416136,-0.0070249502139999994,0.0070249502139999994,0.016493361372,0.021991148496,0.032986722744,0.0061086523599999994,-1.0527,1.43086,0.97788,-0.09512,0.92104,1.28354,0.33379875270000003,-9.8739824589,-0.2691925425,0.007483099141,0.020005836479,0.011301006866,-0.57391,1.17595,1.1307099999999999,11.29728,4.23648,7.53152,1.0044362200838899,22.04
61836,0,6608300,35,-1385,-61,-17,31,60,-1815,2467,1686,60,-1372,-8,71,92,18,-164,1588,2213,352,32,288,19.13,1.00497409326425,24.96,1.00417468541821,4449.484375,-7309.8349609375,35.0999984741211,2,12,0.569999992847443,7.9169921875,3,0,0,0,0,0,0.111045857990969,0,0,0.0350070571325074,-0.2476571391,-0.3409772205,9.8955178623,-0.65282016992569,-0.2947678565979,-0.626505136489868,0.307293295860291,6,44.82473958333333,-73.163916015625,0.251246373,-9.942177903000001,-0.43788653580000003,0.430708068,-9.848857821600001,-0.0574277424,-0.005192354505999999,0.009468411158,0.01832595708,0.021685715878,0.028099800855999998,0.005497787124,-1.0527,1.43086,0.97788,-0.09512,0.92104,1.28354,0.3409772205,-9.8955178623,-0.2476571391,0.008246680686000001,0.018784106007,0.011911872102,-0.57391,1.17595,1.1307099999999999,10.35584,0.94144,8.47296,1.00457438934123,22.045
61837,0,6608405,36,-1382,-62,-12,20,49,-1819,2438,1710,57,-1372,-12,66,107,15,-166,1632,2213,432,64,272,19.13,1.00486553170491,24.95,1.00394769306686,4449.484375,-7309.8349609375,35.0999984741211,2,12,0.569999992847443,7.9169921875,3,0,0,0,0,0,0.0658360729068084,0,0,-0.0074270185368741,-0.2656033086,-0.3337987527,9.8847501606,-0.652796387672424,-0.294792622327805,-0.626500010490418,0.307330548763275,6,44.82473958333333,-73.163916015625,0.2584248408,-9.9206424996,-0.4450650036,0.4091726646,-9.848857821600001,-0.0861416136,-0.003665191416,0.0061086523599999994,0.014966198282,0.020158552788,0.032681290126,0.00458148927,-1.05502,1.41404,0.9918,-0.09628,0.94656,1.28354,0.33379875270000003,-9.8847501606,-0.26560330860000003,0.008246680686,0.019394971243,0.009773843776,-0.57565,1.1803,1.13767,12.70944,1.88288,8.00224,1.004406612385885,22.04
61838,0,6608511,32,-1385,-61,-7,26,51,-1819,2438,1710,59,-1368,-10,71,105,13,-166,1632,2213,336,-16,272,19.14,1.00489513940291,24.95,1.0039970392302,4449.484375,-7309.8349609375,35.0999984741211,2,12,0.569999992847443,7.93743896484375,3,0,0,0,0,0,0.0968334585869239,0,0,0.0326501701159913,-0.2548356069,-0.3266202849,9.8811609267,-0.652784764766693,-0.294870674610138,-0.626448273658752,0.307385593652725,6,44.82473958333333,-73.163916015625,0.2297109696,-9.942177903000001,-0.43788653580000003,0.4235296002,-9.8201439504,-0.071784678,-0.0021380283259999997,0.007941248068,0.015577063518,0.021685715878,0.03207042489,0.003970624034,-1.05502,1.41404,0.9918,-0.09628,0.94656,1.28354,0.3266202849,-9.881160926700002,-0.2548356069,0.009773843776000001,0.020005836479,0.009773843776,-0.57565,1.1803,1.13767,9.88512,-0.47072,8.00224,1.004446089316555,22.045
61839,0,6608616,25,-1384,-62,-15,14,43,-1808,2448,1720,59,-1368,-10,74,102,15,-173,1609,2250,288,96,208,19.14,1.00490500863558,24.95,1.00395756229953,4449.484375,-7309.8349609375,35.0999984741211,2,12,0.569999992847443,7.91750335693359,3,0,0,0,0,0,0.0820828780889938,0,0,0.0210007423558514,-0.2584248408,-0.3014956476,9.8775716928,-0.652786791324616,-0.2949098944664,-0.626414120197296,0.307413250207901,6,44.82473958333333,-73.163916015625,0.179461695,-9.9349994352,-0.4450650036,0.4235296002,-9.8201439504,-0.071784678,-0.00458148927,0.004276056651999999,0.013133602574,0.022602013732,0.031154127036,0.00458148927,-1.04864,1.41984,0.9976,-0.10034,0.93322,1.305,0.3014956476,-9.8775716928,-0.2584248408,0.009010262231,0.017715091843999997,0.008857545922,-0.5744900000000001,1.17653,1.1513,8.47296,2.82432,6.11936,1.004431285467555,22.045
61840,0,6608722,29,-1365,-84,-44,19,55,-1808,2448,1720,56,-1434,-31,58,111,15,-170,1651,2245,368,16,336,19.12,1.00501357019492,24.96,1.00397730076487,4449.484375,-7309.8349609375,35.0999984741211,2,12,0.569999992847443,7.9169921875,3,0,0,0,0,0,0.0890067611554602,0,0,0.0617167944708837,-0.4127618985,-0.3050848815,10.0462656861,-0.668016910552979,-0.260931670665741,-0.641747653484345,0.271713256835937,6,44.82473958333333,-73.163916015625,0.2081755662,-9.798608547,-0.6029912952,0.40199419680000004,-10.293922825200001,-0.2225325018,-0.013439035192,0.005803219742,0.016798793989999998,0.017715091844,0.033903020597999996,0.00458148927,-1.04864,1.41984,0.9976,-0.09860000000000001,0.95758,1.3021,0.3050848815,-10.0462656861,-0.4127618985,0.0021380283260000006,0.01985312017,0.010690141629999999,-0.57362,1.18871,1.14985,10.82656,0.47072,9.88512,1.0044954354798952,22.04
61841,0,6608827,163,-9502,201,296,435,-74,-1830,2455,1677,140,-9480,240,540,638,-66,-170,1651,2245,2544,112,496,19.14,1.00483592400691,24.95,1.00378978534419,4449.484375,-7309.8349609375,35.0999984741211,2,12,0.569999992847443,7.91801452636719,3,0,0,0,0,0,0.287026130935329,0,0,2.99281013394088,1.5828521499,-1.0875378717,68.1308378898,-0.670597791671753,-0.257615745067596,-0.641962468624115,0.267986983060837,6,44.82473958333333,-73.163916015625,1.1700902514,-68.20980103560001,1.4428720278,1.004985492,-68.051874744,1.722832272,0.090408054928,0.13286318882999998,-0.022602013732,0.16493361371999998,0.194866010284,-0.020158552788,-1.0614,1.4239,0.97266,-0.09860000000000001,0.95758,1.3021,1.0875378717,-68.1308378898,1.5828521499,0.127670834324,0.163864599557,-0.02138028326,-0.58,1.19074,1.13738,74.84448,3.29504,14.59232,1.00431285467555,22.045
61842,0,6608827,163,-9502,201,296,435,-74,-1830,2455,1677,140,-9480,240,540,638,-66,-170,1651,2245,2544,112,496,19.14,1.00483592400691,24.95,1.00378978534419,4449.484375,-7309.8349609375,35.0999984741211,2,12,0.569999992847443,7.91801452636719,3,0,0,0,0,0,0.287026130935329,0,0,2.99281013394088,1.5828521499,-1.0875378717,68.1308378898,-0.670597791671753,-0.257615745067596,-0.641962468624115,0.267986983060837,6,44.82473958333333,-73.163916015625,1.1700902514,-68.20980103560001,1.4428720278,1.004985492,-68.051874744,1.722832272,0.090408054928,0.13286318882999998,-0.022602013732,0.16493361371999998,0.194866010284,-0.020158552788,-1.0614,1.4239,0.97266,-0.09860000000000001,0.95758,1.3021,1.0875378717,-68.1308378898,1.5828521499,0.127670834324,0.163864599557,-0.02138028326,-0.58,1.19074,1.13738,74.84448,3.29504,14.59232,1.00431285467555,22.045
61843,0,6608843,-894,-10384,-1006,-68,-388,3,-1830,2455,1677,-81,-10149,-707,-27,-134,-6,-170,1651,2245,2272,32,160,19.14,1.00494448556625,24.95,1.00388847767086,4449.484375,-7309.8349609375,35.0999984741211,2,12,0.569999992847443,7.91494750976563,3,0,0,0,0,0,0.332521728693135,0,0,3.86827547907412,-6.1483576707,3.4995030525,73.6977396687,-0.670262336730957,-0.258110642433166,-0.641904234886169,0.268489003181458,6,44.82473958333333,-73.163916015625,-6.4175502132,-74.5412096352,-7.2215386068,-0.5814558918,-72.8542697022,-5.0751767346,-0.020769418023999998,-0.118507855784,0.000916297854,-0.008246680686,-0.040927970811999996,-0.001832595708,-1.0614,1.4239,0.97266,-0.09860000000000001,0.95758,1.3021,-3.4995030525,-73.6977396687,-6.1483576707,-0.014508049354999998,-0.079717913298,-0.000458148927,-0.58,1.19074,1.13738,66.84224,0.94144,4.7072,1.004416481618555,22.045
61844,0,6608858,277,-10904,208,-247,-557,-100,-1830,2455,1677,312,-10693,598,21,-645,-112,-170,1651,2245,2464,112,272,19.13,1.0046582778189,24.95,1.00383913150753,4449.484375,-7309.8349609375,35.0999984741211,2,12,0.569999992847443,7.91750335693359,3,0,0,0,0,0,0.434156733748199,0,0,4.87376758868101,2.8929225234,-2.1140587671,77.5166845383,-0.669558644294739,-0.259225249290466,-0.641808748245239,0.269397675991058,6,44.82473958333333,-73.163916015625,1.9884355806,-78.2740128912,1.4931213024,2.2396819536,-76.75935618540001,4.2927237444,-0.07544185664599999,-0.17012596822599999,-0.0305432618,0.006414084978,-0.19700403861,-0.034208453215999995,-1.0614,1.4239,0.97266,-0.09860000000000001,0.95758,1.3021,2.1140587671,-77.51668453830001,2.8929225234000002,-0.034513885833999995,-0.18356500341799997,-0.032375857508,-0.58,1.19074,1.13738,72.49088,3.29504,8.00224,1.004248704663215,22.04
61845,0,6608873,50,-11120,-337,150,-66,34,-1830,2455,1677,146,-10947,-40,94,-94,-28,-170,1651,2245,2544,-32,544,19.14,1.0046878855169,24.95,1.00374043918085,4449.484375,-7309.8349609375,35.0999984741211,2,12,0.569999992847443,7.9169921875,3,0,0,0,0,0,0.556163979155099,0,0,5.9422661702699,-1.3531411803,-0.7034898444,79.2036244713,-0.669585764408112,-0.259551346302032,-0.641594052314758,0.269527584314346,6,44.82473958333333,-73.163916015625,0.35892339,-79.82456193600001,-2.4191436486,1.0480562988,-78.5826870066,-0.287138712,0.0458148927,-0.020158552788,0.010384709011999999,0.028710666091999997,-0.028710666091999997,-0.008552113303999999,-1.0614,1.4239,0.97266,-0.09860000000000001,0.95758,1.3021,0.7034898444,-79.2036244713,-1.3531411803,0.037262779396,-0.024434609439999998,0.000916297854,-0.58,1.19074,1.13738,74.84448,-0.94144,16.00448,1.004214162348875,22.045
61846,0,6608888,81,-11238,174,65,334,64,-1830,2455,1677,-131,-11111,540,203,296,34,-170,1651,2245,2640,128,176,19.13,1.00487540093758,24.95,1.0039378238342,4449.484375,-7309.8349609375,35.0999984741211,2,12,0.569999992847443,7.933349609375,3,0,0,0,0,0,0.637871617995344,0,0,6.97513708723845,2.5627130046,0.179461695,80.2157884311,-0.669901609420776,-0.259233683347702,-0.641567230224609,0.269112020730972,6,44.82473958333333,-73.163916015625,0.5814558918,-80.6716211364,1.2490533972,-0.9403792818000001,-79.7599557258,3.876372612,0.01985312017,0.102014494412,0.019547687552,0.062002821454,0.090408054928,0.010384709011999999,-1.0614,1.4239,0.97266,-0.09860000000000001,0.95758,1.3021,-0.17946169500000003,-80.21578843110001,2.5627130046,0.040927970811999996,0.09621127467,0.014966198282,-0.58,1.19074,1.13738,77.6688,3.76576,5.17792,1.00440661238589,22.04
61847,0,6608903,-73,-11224,91,63,9,90,-1830,2455,1677,238,-11097,28,129,185,40,-170,1651,2245,2720,80,480,19.14,1.00485566247224,24.94,1.00366148531952,4449.484375,-7309.8349609375,35.0999984741211,2,12,0.569999992847443,7.91290283203125,3,0,0,0,0,0,0.771470851805357,0,0,8.06256453539405,0.4271188341,-0.5922235935,80.1152898819,-0.670036554336548,-0.259188383817673,-0.641459226608276,0.269077003002167,6,44.82473958333333,-73.163916015625,-0.5240281494,-80.57112258720001,0.6532405698,1.7084753364,-79.6594571766,0.20099709840000002,0.019242254934,0.002748893562,0.02748893562,0.039400807722,0.056505034329999995,0.012217304719999999,-1.0614,1.4239,0.97266,-0.09860000000000001,0.95758,1.3021,0.5922235935,-80.1152898819,0.4271188341,0.029321531328,0.029626963945999996,0.01985312017,-0.58,1.19074,1.13738,80.0224,2.3536,14.1216,1.00425857389588,22.04
61848,0,6608918,-187,-11280,238,185,-145,123,-1830,2455,1677,76,-11022,-79,298,-43,115,-197,1592,2264,2752,16,144,19.13,1.00466814705157,24.95,1.00403651616087,4449.484375,-7309.8349609375,35.0999984741211,2,12,0.569999992847443,7.91494750976563,3,0,0,0,0,0,0.891123635045342,0,0,9.11575309548998,0.5706881901,0.3984049629,80.0470944378,-0.670299470424652,-0.25943049788475,-0.640981137752533,0.269328117370605,6,44.82473958333333,-73.163916015625,-1.3423734786000001,-80.973116784,1.7084753364,0.5455635528,-79.1210720916,-0.5670989562000001,0.056505034329999995,-0.04428772961,0.037568212014,0.091018920164,-0.013133602574,0.035124751069999995,-1.0614,1.4239,0.97266,-0.11426,0.92336,1.31312,-0.39840496290000005,-80.0470944378,0.5706881901,0.073761977247,-0.028710666092,0.036346481542,-0.58783,1.17363,1.14289,80.96384,0.47072,4.23648,1.00435233160622,22.04
61849,0,6608955,168,-10739,-52,26,173,128,-1830,2455,1677,111,-10746,61,34,69,73,-197,1592,2264,2592,160,352,19.12,1.00485566247224,24.94,1.00371083148285,4449.484375,-7309.8349609375,35.0999984741211,2,12,0.569999992847443,7.91290283203125,3,0,0,0,0,0,1.04049103528154,0,0,10.1829731949408,0.0323031051,-1.0013962581,77.1146903415,-0.670373320579529,-0.259254783391953,-0.640966832637787,0.269347548484802,2,44.82473958333333,-73.163916015625,1.2059825904,-77.0895657042,-0.3732803256,0.7968099258,-77.1398149788,0.43788653580000003,0.007941248068,0.052839842914,0.039095375104,0.010384709011999999,0.021074850641999997,0.022296581114,-1.0614,1.4239,0.97266,-0.11426,0.92336,1.31312,1.0013962581,-77.1146903415,0.03230310510000001,0.009162978539999998,0.036957346778,0.030695978109,-0.58783,1.17363,1.14289,76.25664,4.7072,10.35584,1.0042832469775451,22.03
61850,0,6608969,-286,-10611,-404,39,-62,156,-1830,2455,1677,-311,-10604,-447,56,307,135,-197,1592,2264,2624,-16,528,19.12,1.00470762398224,24.94,1.00387860843819,4449.484375,-7309.8349609375,35.0999984741211,2,12,0.569999992847443,7.91290283203125,3,0,0,0,0,0,1.19758487593563,0,0,11.1972483386843,-3.0544380489,2.1427726383,76.1455971885,-0.67050051689148,-0.259018570184708,-0.640898764133453,0.269420325756073,2,44.82473958333333,-73.163916015625,-2.0530417908,-76.1707218258,-2.9001009912,-2.2325034858,-76.12047255120001,-3.2087751066,0.011911872102,-0.018936822316,0.047647488408,0.017104226607999998,0.09376781372599999,0.041233403429999996,-1.0614,1.4239,0.97266,-0.11426,0.92336,1.31312,-2.1427726383000003,-76.1455971885,-3.0544380489,0.014508049354999998,0.037415495704999996,0.044440445918999996,-0.58783,1.17363,1.14289,77.19808,-0.47072,15.533760000000001,1.0042931162102149,22.03
61851,0,6608985,-169,-10497,-488,-138,263,160,-1830,2455,1677,-580,-10460,-314,89,795,132,-197,1592,2264,2656,16,256,19.13,1.0046582778189,24.92,1.00347396989884,4449.484375,-7309.8349609375,35.0999984741211,2,12,0.569999992847443,7.933349609375,3,0,0,0,0,0,1.42491872304562,0,0,12.2565112705744,-2.8785655878,2.6883361911,75.2195748423,-0.670772671699524,-0.25814014673233,-0.641181707382202,0.268911987543106,2,44.82473958333333,-73.163916015625,-1.2131610582,-75.3523764966,-3.5030922864000003,-4.163511324,-75.08677318800001,-2.2540388892000003,-0.042149701283999995,0.080328778534,0.048869218879999995,0.027183503002,0.24281893130999999,0.040317105576,-1.0614,1.4239,0.97266,-0.11426,0.92336,1.31312,-2.6883361911,-75.2195748423,-2.8785655878000003,-0.007483099140999998,0.161573854922,0.044593162228,-0.58783,1.17363,1.14289,78.13952,0.47072,7.53152,1.00406612385887,22.025
61852,0,6609000,253,-10328,500,435,2019,173,-1821,2457,1725,27,-10336,206,614,1643,139,-197,1592,2264,2544,80,368,19.12,1.00480631630891,24.95,1.00362200838885,4449.484375,-7309.8349609375,35.0999984741211,2,12,0.569999992847443,7.91341400146484,3,0,0,0,0,0,1.62013844891561,0,0,13.2499566033698,2.5339991334,-1.004985492,74.1679293096,-0.672652900218964,-0.255669802427292,-0.641378819942474,0.266090601682663,2,44.82473958333333,-73.163916015625,1.8161523534000001,-74.1392154384,3.5892339,0.1938186306,-74.19664318080001,1.4787643668000001,0.13286318882999998,0.6166684557419999,0.052839842914,0.18753562745199998,0.501825791374,0.042455133901999995,-1.05618,1.42506,1.0005,-0.11426,0.92336,1.31312,1.004985492,-74.1679293096,2.5339991334,0.16019940814099998,0.5592471235579999,0.047647488408,-0.58522,1.17421,1.1568100000000001,74.84448,2.3536,10.82656,1.00421416234888,22.035
61853,0,6609016,-330,-10326,-715,-619,1005,-97,-1821,2457,1725,-804,-10219,-604,-288,775,-40,-197,1592,2264,2496,32,256,19.11,1.00448063163089,24.93,1.00370096225019,4449.484375,-7309.8349609375,35.0999984741211,2,12,0.569999992847443,7.94050598144531,3,0,0,0,0,0,1.85619756977377,0,0,14.2556853483295,-4.7341995141,4.0701912426,73.7408104755,-0.672383666038513,-0.254328966140747,-0.642661452293396,0.264959186315536,2,44.82473958333333,-73.163916015625,-2.368894374,-74.12485850280001,-5.132604477,-5.7714881112,-73.3567624482,-4.3357945512,-0.18906279054199998,0.30695978109,-0.029626963946,-0.087964593984,0.23671027895,-0.012217304719999999,-1.05618,1.42506,1.0005,-0.11426,0.92336,1.31312,-4.0701912426,-73.74081047550001,-4.7341995141,-0.13851369226299998,0.27183503002,-0.020922134332999998,-0.58522,1.17421,1.1568100000000001,73.43232,0.94144,7.53152,1.00409079694054,22.02
61854,0,6609031,-388,-10322,257,868,140,29,-1821,2457,1725,-98,-9936,304,767,178,-41,-197,1592,2264,2432,-16,272,19.12,1.00464840858623,24.93,1.00343449296817,4449.484375,-7309.8349609375,35.0999984741211,2,12,0.569999992847443,7.91750335693359,3,0,0,0,0,0,2.11202558217728,0,0,15.260073098096,2.0135602179,1.7443676754,72.7107003462,-0.673575520515442,-0.254738390445709,-0.641519963741303,0.264304101467133,2,44.82473958333333,-73.163916015625,-2.7852455064,-74.0961446316,1.8448662246,-0.7034898444000001,-71.3252560608,2.1822542112,0.265115512424,0.042760566519999994,0.008857545922,0.234266818006,0.054367006004,-0.012522737337999999,-1.05618,1.42506,1.0005,-0.11426,0.92336,1.31312,-1.7443676754,-72.7107003462,2.0135602179000003,0.249691165215,0.048563786261999996,-0.0018325957079999991,-0.58522,1.17421,1.1568100000000001,71.54944,-0.47072,8.00224,1.0040414507772,22.025
61855,0,6609046,-352,-10186,2,320,-274,176,-1821,2457,1725,202,-9962,-131,38,-95,124,-197,1592,2264,2448,16,304,19.13,1.00460893165556,24.94,1.00350357759684,4449.484375,-7309.8349609375,35.0999984741211,2,12,0.569999992847443,7.91443634033203,3,0,0,0,0,0,2.36971801565475,0,0,16.2347286009677,-0.4630111731,0.538385085,72.3158846172,-0.673710763454437,-0.255024790763855,-0.641067504882813,0.264780342578888,2,44.82473958333333,-73.163916015625,-2.5268206656000003,-73.1198730108,0.0143569356,1.4500504956,-71.5118962236,-0.9403792818000001,0.09773843775999999,-0.08368853733199999,0.053756140768,0.011606439484,-0.029016098709999997,0.037873644632,-1.05618,1.42506,1.0005,-0.11426,0.92336,1.31312,-0.5383850850000002,-72.3158846172,-0.46301117310000006,0.054672438622,-0.05635231802099999,0.0458148927,-0.58522,1.17421,1.1568100000000001,72.02016,0.47072,8.94368,1.0040562546262,22.035
61856,0,6609062,303,-10109,-290,-474,-1116,95,-1821,2457,1725,-133,-9922,-256,-355,-1125,59,-197,1592,2264,2448,32,160,19.13,1.00460893165556,24.94,1.00350357759684,4449.484375,-7309.8349609375,35.0999984741211,2,12,0.569999992847443,7.90267944335938,3,0,0,0,0,0,2.63275248840084,0,0,17.1934256250604,-1.9597217094,-0.610169763,71.8959442509,-0.672361075878143,-0.25643727183342,-0.641025602817535,0.266939461231232,2,44.82473958333333,-73.163916015625,2.1750757434,-72.5671309902,-2.081755662,-0.9547362174,-71.2247575116,-1.8376877568,-0.144775060932,-0.340862801688,0.029016098709999997,-0.10842857938999999,-0.34361169524999996,0.018020524462,-1.05618,1.42506,1.0005,-0.11426,0.92336,1.31312,0.6101697629999999,-71.8959442509,-1.9597217094000001,-0.126601820161,-0.34223724846899994,0.023518311586,-0.58522,1.17421,1.1568100000000001,72.02016,0.94144,4.7072,1.0040562546262,22.035
61857,0,6609077,-208,-10223,392,192,-1671,183,-1821,2457,1725,-583,-10149,-177,206,-1676,68,-197,1592,2264,2416,144,208,19.12,1.00428324697755,24.95,1.00358253145818,4449.484375,-7309.8349609375,35.0999984741211,2,12,0.569999992847443,7.90625762939453,3,0,0,0,0,0,2.93381662791587,0,0,18.1714060525305,0.7716852885,2.8390840149,73.1198730108,-0.671594381332397,-0.258959054946899,-0.6396763920784,0.269657790660858,2,44.82473958333333,-73.163916015625,-1.4931213024,-73.3854763194,2.8139593776000003,-4.1850467274000005,-72.8542697022,-1.2705888006000001,0.058643062656,-0.5103779046779999,0.055894169093999996,0.062919119308,-0.5119050677679999,0.020769418023999998,-1.05618,1.42506,1.0005,-0.11426,0.92336,1.31312,-2.8390840149,-73.1198730108,0.7716852885000001,0.060781090982,-0.5111414862229999,0.038331793558999995,-0.58522,1.17421,1.1568100000000001,71.07872,4.23648,6.11936,1.003932889217865,22.035
61858,0,6609093,122,-10051,-96,337,-921,18,-1821,2457,1725,296,-10009,-269,53,-978,-12,-197,1592,2264,2384,176,144,19.12,1.00443128546756,24.93,1.00353318529484,4449.484375,-7309.8349609375,35.0999984741211,2,12,0.569999992847443,7.93130493164063,3,0,0,0,0,0,3.22555255208172,0,0,19.1417856854791,-1.3100703735,-1.5002997702,72.000032034,-0.67118901014328,-0.260603129863739,-0.638831555843353,0.271082252264023,2,44.82473958333333,-73.163916015625,0.8757730716000001,-72.1507798578,-0.6891329088,2.1248264688000003,-71.8492842102,-1.9310078382,0.10293079226599999,-0.281303441178,0.005497787124,0.016187928754,-0.298713100404,-0.003665191416,-1.05618,1.42506,1.0005,-0.11426,0.92336,1.31312,1.5002997702000003,-72.000032034,-1.3100703734999999,0.05955936050999999,-0.290008270791,0.000916297854,-0.58522,1.17421,1.1568100000000001,70.13728,5.17792,4.23648,1.0039822353812,22.025
61859,0,6609108,313,-10083,351,-98,-1753,96,-1821,2457,1725,192,-9899,373,-73,-1594,58,-197,1592,2264,2480,32,384,19.12,1.00429311621021,24.93,1.00349370836417,4449.484375,-7309.8349609375,36.0,2,12,0.569999992847443,7.9169921875,3,0,0,0,0,0,3.5452423927335,0,0,20.1098612159299,2.5986053436,-1.8125631195,71.7200717898,-0.66996043920517,-0.263015925884247,-0.637932896614075,0.27389270067215,2,44.82473958333333,-73.163916015625,2.2468604214,-72.38049082740001,2.5196421978,1.3782658176,-71.05965275220001,2.6775684894,-0.029932396564,-0.535423379354,0.029321531328,-0.022296581114,-0.486859593092,0.017715091844,-1.05618,1.42506,1.0005,-0.11426,0.92336,1.31312,1.8125631195,-71.72007178980002,2.5986053436,-0.026114488839,-0.5111414862229999,0.023518311586,-0.58522,1.17421,1.1568100000000001,72.9616,0.94144,11.29728,1.0038934122871899,22.025
61860,0,6609124,-39,-10019,-666,-204,-2039,-91,-1821,2457,1725,9,-9865,-403,83,-1893,-163,-136,1591,2261,2432,80,400,19.11,1.00437207007155,24.93,1.00328645447816,4449.484375,-7309.8349609375,36.0,2,12,0.569999992847443,7.9251708984375,3,0,0,0,0,0,3.88528095224943,0,0,21.0800413274725,-3.8368910391,0.107677017,71.3683268676,-0.668449342250824,-0.266179919242859,-0.636935532093048,0.276833653450012,2,44.82473958333333,-73.163916015625,-0.2799602442,-71.9210688882,-4.7808595548,0.0646062102,-70.815584847,-2.8929225234000002,-0.062308254072,-0.6227771081019999,-0.027794368237999998,0.025350907293999997,-0.578183945874,-0.049785516733999995,-1.05618,1.42506,1.0005,-0.07888,0.92278,1.31138,-0.10767701699999999,-71.36832686759999,-3.8368910391,-0.018478673389,-0.600480526988,-0.038789942486,-0.56753,1.17392,1.15594,71.54944,2.3536,11.768,1.0038292622748548,22.02
61861,0,6609139,110,-10072,367,-61,-2128,-86,-1821,2457,1725,202,-9896,399,310,-2021,-146,-136,1591,2261,2480,-16,208,19.12,1.00438193930422,24.95,1.00347396989884,4449.484375,-7309.8349609375,36.0,2,12,0.569999992847443,7.92312622070313,3,0,0,0,0,0,4.20130797972169,0,0,22.0032284470524,2.7493531674,-1.1198409768,71.6698225152,-0.667130589485168,-0.269596517086029,-0.635567009449005,0.279837608337402,2,44.82473958333333,-73.163916015625,0.789631458,-72.3015276816,2.6344976826,1.4500504956,-71.0381173488,2.8642086522000003,-0.018631389698,-0.6499606111039999,-0.026267205148,0.09468411158,-0.617279320978,-0.044593162228,-1.05618,1.42506,1.0005,-0.07888,0.92278,1.31138,1.1198409768,-71.6698225152,2.7493531674000002,0.038026360940999995,-0.633619966041,-0.035430183688,-0.56753,1.17392,1.15594,72.9616,-0.47072,6.11936,1.0039279546015298,22.035
61862,0,6609155,-91,-10000,-581,-419,-2463,-137,-1821,2457,1725,-71,-9859,-362,-197,-2349,-186,-136,1591,2261,2496,48,352,19.12,1.00439180853689,24.94,1.00323710831483,4449.484375,-7309.8349609375,36.0,2,12,0.569999992847443,7.91136932373047,3,0,0,0,0,0,4.55039965627619,0,0,22.9517257997157,-3.3846475677,0.5814558918,71.2785960201,-0.664922475814819,-0.27328035235405,-0.634665727615356,0.283541023731232,2,44.82473958333333,-73.163916015625,-0.6532405698,-71.784678,-4.1706897918,-0.5096712138,-70.77251404020001,-2.5986053436,-0.12797626694199998,-0.752280538134,-0.041844268665999995,-0.060170225746,-0.7174612196819999,-0.056810466947999995,-1.05618,1.42506,1.0005,-0.07888,0.92278,1.31138,-0.5814558918,-71.2785960201,-3.3846475677,-0.094073246344,-0.734870878908,-0.04932736780699999,-0.56753,1.17392,1.15594,73.43232,1.41216,10.35584,1.00381445842586,22.03
61863,0,6609170,153,-9945,110,-101,-2654,-151,-1821,2457,1725,126,-9853,133,125,-2491,-209,-136,1591,2261,2464,128,208,19.12,1.00417468541821,24.93,1.00316802368616,4449.484375,-7309.8349609375,36.0,2,12,0.569999992847443,7.9169921875,3,0,0,0,0,0,4.93974514410926,0,0,23.9225087319963,0.8721838377,-1.0013962581,71.0596527522,-0.663036644458771,-0.277432680130005,-0.633162558078766,0.287260860204697,2,44.82473958333333,-73.163916015625,1.0983055734,-71.389862271,0.789631458,0.9044869428000001,-70.7294432334,0.9547362174,-0.030848694418,-0.8106181681719999,-0.046120325318,0.03817907725,-0.7608326514379999,-0.063835417162,-1.05618,1.42506,1.0005,-0.07888,0.92278,1.31138,1.0013962581,-71.05965275220001,0.8721838377,0.003665191416,-0.7857254098049999,-0.054977871240000004,-0.56753,1.17392,1.15594,72.49088,3.76576,6.11936,1.0036713545521851,22.025
61864,0,6609185,-115,-9841,-284,-272,-2898,-94,-1821,2457,1725,-115,-9753,-164,-146,-2819,-130,-136,1591,2261,2464,-32,272,19.12,1.00401677769553,24.92,1.00305946212682,4449.484375,-7309.8349609375,36.0,2,12,0.569999992847443,7.91290283203125,3,0,0,0,0,0,5.3656512535205,0,0,24.9138047773118,-1.6079767872,0.825523797,70.3274490366,-0.660657942295074,-0.281739711761475,-0.631742537021637,0.291642367839813,2,44.82473958333333,-73.163916015625,-0.825523797,-70.6433016198,-2.0386848552,-0.825523797,-70.0115964534,-1.1772687192,-0.08307767209599999,-0.8851437269639999,-0.028710666091999997,-0.044593162228,-0.8610145501419999,-0.03970624034,-1.05618,1.42506,1.0005,-0.07888,0.92278,1.31138,-0.825523797,-70.3274490366,-1.6079767872000001,-0.063835417162,-0.8730791385529999,-0.034208453215999995,-0.56753,1.17392,1.15594,72.49088,-0.94144,8.00224,1.003538119911175,22.020000000000003
61865,0,6609200,78,-9749,-132,-350,-3165,-181,-1815,2465,1759,61,-9749,8,-168,-3000,-225,-136,1591,2261,2352,96,224,19.12,1.00407599309154,24.93,1.00322723908216,4449.484375,-7309.8349609375,36.0,2,12,0.569999992847443,7.91290283203125,3,0,0,0,0,0,5.76094678877456,0,0,25.8449198100138,-0.4450650036,-0.4989035121,69.9828825822,-0.657966077327728,-0.286461353302002,-0.630283355712891,0.296249091625214,2,44.82473958333333,-73.163916015625,0.5599204884,-69.9828825822,-0.9475577496,0.43788653580000003,-69.9828825822,0.0574277424,-0.1069014163,-0.9666942359699999,-0.055283303857999996,-0.051312679824,-0.916297854,-0.06872233905,-1.0527,1.4297,1.02022,-0.07888,0.92278,1.31138,0.4989035121,-69.9828825822,-0.4450650036,-0.079107048062,-0.941496044985,-0.062002821454,-0.56579,1.17624,1.1658,69.19584,2.82432,6.59008,1.00365161608685,22.025
61866,0,6609215,28,-9827,-86,-230,-3443,-58,-1815,2465,1759,30,-9649,-74,-162,-3340,-120,-136,1591,2261,2432,16,288,19.11,1.00398716999753,24.92,1.00315815445349,4449.484375,-7309.8349609375,36.0,2,12,0.569999992847443,7.933349609375,3,0,0,0,0,0,6.1774563956859,0,0,26.7787061547802,-0.574277424,-0.2081755662,69.9039194364,-0.655192017555237,-0.29148343205452,-0.628412544727325,0.301427602767944,2,44.82473958333333,-73.163916015625,0.20099709840000002,-70.5428030706,-0.6173482308,0.215354034,-69.2650358022,-0.5312066172000001,-0.07024950213999999,-1.0516045037739998,-0.017715091844,-0.049480084115999995,-1.02014494412,-0.03665191416,-1.0527,1.4297,1.02022,-0.07888,0.92278,1.31138,0.2081755662,-69.9039194364,-0.574277424,-0.05986479312799999,-1.0358747239469999,-0.027183503002000002,-0.56579,1.17624,1.1658,71.54944,0.47072,8.47296,1.0035726622255101,22.015
61867,0,6609231,-50,-9758,-48,-275,-3753,-113,-1815,2465,1759,-3,-9651,-22,-197,-3661,-168,-136,1591,2261,2448,64,336,19.11,1.0040562546262,24.94,1.00302985442882,4449.484375,-7309.8349609375,36.0,2,12,0.569999992847443,7.92977142333984,3,0,0,0,0,0,6.60125192740251,0,0,27.7040377581073,-0.251246373,0.1902293967,69.6634407651,-0.652062773704529,-0.296989113092422,-0.626383066177368,0.307011306285858,2,44.82473958333333,-73.163916015625,-0.35892339,-70.0474887924,-0.3445664544,-0.0215354034,-69.27939273780001,-0.15792629160000002,-0.08399396995,-1.146288615354,-0.034513885833999995,-0.060170225746,-1.118188814498,-0.051312679824,-1.0527,1.4297,1.02022,-0.07888,0.92278,1.31138,-0.1902293967,-69.6634407651,-0.251246373,-0.072082097848,-1.1322387149259998,-0.042913282829,-0.56579,1.17624,1.1658,72.02016,1.88288,9.88512,1.0035430545275101,22.025
61868,0,6609246,151,-9845,-23,-423,-4044,-89,-1815,2465,1759,194,-9695,-63,-377,-3912,-127,-136,1591,2261,2368,128,288,19.13,1.00387860843819,24.95,1.00284233900814,4449.484375,-7309.8349609375,36.0,2,12,0.569999992847443,7.89654541015625,3,0,0,0,0,0,7.07302636685765,0,0,28.6626486660166,-0.3086741154,-1.2382856955,70.133630406,-0.648476779460907,-0.302695602178574,-0.624340415000916,0.313133031129837,2,44.82473958333333,-73.163916015625,1.0839486378,-70.672015491,-0.1651047594,1.3926227532,-69.59524532100001,-0.45224347140000004,-0.12919799741399998,-1.235169507192,-0.027183503002,-0.115148096986,-1.194852401616,-0.038789942486,-1.0527,1.4297,1.02022,-0.07888,0.92278,1.31138,1.2382856955000001,-70.13363040600001,-0.3086741154,-0.1221730472,-1.215010954404,-0.032986722744,-0.56579,1.17624,1.1658,69.66656,3.76576,8.47296,1.003360473723165,22.04
61869,0,6609262,-38,-9836,-83,-254,-4379,-14,-1815,2465,1759,1,-9771,-8,-182,-4255,-80,-136,1591,2261,2320,16,272,19.11,1.00385886997286,24.94,1.00282260054281,4449.484375,-7309.8349609375,36.0,2,12,0.569999992847443,7.9088134765625,3,0,0,0,0,0,7.54791540147049,0,0,29.6161269837855,-0.3266202849,0.1328016543,70.3741090773,-0.644889116287231,-0.308898359537125,-0.621689796447754,0.319689869880676,2,44.82473958333333,-73.163916015625,-0.2727817764,-70.6074092808,-0.5958128274000001,0.0071784678,-70.1408088738,-0.0574277424,-0.077579884972,-1.3374894342219998,-0.004276056651999999,-0.055588736475999996,-1.29961578959,-0.024434609439999998,-1.0527,1.4297,1.02022,-0.07888,0.92278,1.31138,-0.13280165430000002,-70.3741090773,-0.32662028490000006,-0.06658431072399999,-1.318552611906,-0.014355333045999999,-0.56579,1.17624,1.1658,68.2544,0.47072,8.00224,1.003340735257835,22.025
61870,0,6609277,172,-9816,-118,-545,-4789,23,-1815,2465,1759,177,-9715,24,-422,-4546,-54,-136,1591,2261,2288,-32,256,19.12,1.00392795460153,24.93,1.00297063903282,4449.484375,-7309.8349609375,36.0,2,12,0.569999992847443,7.91392517089844,3,0,0,0,0,0,7.99129681599941,0,0,30.5236577855713,-0.3373879866,-1.2526426311,70.1013273009,-0.640617907047272,-0.315325230360031,-0.619091808795929,0.32696196436882,2,44.82473958333333,-73.163916015625,1.2346964616,-70.4638399248,-0.8470592004,1.2705888006000001,-69.73881467700001,0.1722832272,-0.16646077681,-1.4627168076019998,0.0070249502139999994,-0.128892564796,-1.388496681428,-0.016493361372,-1.0527,1.4297,1.02022,-0.07888,0.92278,1.31138,1.2526426311,-70.10132730090001,-0.3373879866,-0.147676670803,-1.425606744515,-0.004734205578999999,-0.56579,1.17624,1.1658,67.31296,-0.94144,7.53152,1.003449296817175,22.025
61871,0,6609293,-29,-9877,-85,-389,-5087,121,-1815,2465,1759,-1,-9772,-41,-298,-4948,47,-136,1591,2261,2432,0,240,19.12,1.00372070071552,24.93,1.00286207747348,4449.484375,-7309.8349609375,36.0,2,12,0.569999992847443,7.9088134765625,3,0,0,0,0,0,8.47511163885058,0,0,31.4561098494945,-0.4522434714,0.107677017,70.5248569011,-0.63627302646637,-0.322166919708252,-0.615881860256195,0.334745794534683,2,44.82473958333333,-73.163916015625,-0.2081755662,-70.9017264606,-0.610169763,-0.0071784678,-70.1479873416,-0.2943171798,-0.11881328840199999,-1.553735727766,0.036957346778,-0.091018920164,-1.511280593864,0.014355333045999999,-1.0527,1.4297,1.02022,-0.07888,0.92278,1.31138,-0.107677017,-70.52485690110001,-0.4522434714,-0.104916104283,-1.532508160815,0.025656339912,-0.56579,1.17624,1.1658,71.54944,0.0,7.0608,1.0032913890945,22.025
61872,0,6609308,161,-9830,-75,-555,-5505,98,-1815,2465,1759,182,-9684,-63,-503,-5341,37,-136,1591,2261,2336,96,288,19.11,1.00359240069085,24.93,1.0027041697508,4449.484375,-7309.8349609375,36.0,2,12,0.569999992847443,7.90472412109375,3,0,0,0,0,0,8.99437393286886,0,0,32.4181299358514,-0.4953142782,-1.2311072277,70.0403103246,-0.631249010562897,-0.32941472530365,-0.612564325332642,0.343184620141983,2,44.82473958333333,-73.163916015625,1.1557333158,-70.564338474,-0.538385085,1.3064811396,-69.5162821752,-0.45224347140000004,-0.16951510299,-1.6814065620899998,0.029932396564,-0.153632606854,-1.631315612738,0.011301006866,-1.0527,1.4297,1.02022,-0.07888,0.92278,1.31138,1.2311072277,-70.0403103246,-0.49531427820000007,-0.161573854922,-1.656361087414,0.020616701714999998,-0.56579,1.17624,1.1658,68.72512,2.82432,8.47296,1.003148285220825,22.02
61873,0,6609324,14,-9784,-85,-523,-5971,244,-1815,2465,1759,69,-9655,-48,-438,-5709,148,-97,1614,2307,2336,-32,208,19.12,1.00360226992351,24.93,1.00271403898347,4449.484375,-7309.8349609375,36.0,2,12,0.569999992847443,7.9169921875,3,0,0,0,0,0,9.50723353069637,0,0,33.3503457510537,-0.4773681087,-0.2979064137,69.7711177821,-0.625953376293182,-0.337043136358261,-0.608655452728272,0.3523108959198,2,44.82473958333333,-73.163916015625,0.10049854920000001,-70.2341289552,-0.610169763,0.4953142782,-69.308106609,-0.3445664544,-0.15974125921399998,-1.823738162078,0.074525558792,-0.133779486684,-1.743714816162,0.045204027464,-1.0527,1.4297,1.02022,-0.05626,0.93612,1.33806,0.29790641370000004,-69.7711177821,-0.4773681087,-0.146760372949,-1.78372648912,0.059864793128,-0.55448,1.18291,1.1791399999999999,68.72512,-0.94144,6.11936,1.00315815445349,22.025
61874,0,6609339,51,-9729,-36,-509,-6282,228,-1815,2465,1759,67,-9640,-24,-448,-6115,144,-97,1614,2307,2336,80,288,19.12,1.00360226992351,24.95,1.0025857389588,4449.484375,-7309.8349609375,36.0,2,12,0.569999992847443,7.900634765625,3,0,0,0,0,0,10.0333511194236,0,0,34.2777391436869,-0.215354034,-0.4235296002,69.5198714091,-0.62024062871933,-0.345121145248413,-0.60435551404953,0.361866533756256,2,44.82473958333333,-73.163916015625,0.36610185780000004,-69.8393132262,-0.2584248408,0.4809573426,-69.200429592,-0.1722832272,-0.155465202562,-1.918727706276,0.06963863690399999,-0.13683381286399998,-1.8677204590699998,0.043982296992,-1.0527,1.4297,1.02022,-0.05626,0.93612,1.33806,0.4235296002,-69.5198714091,-0.215354034,-0.146149507713,-1.893224082673,0.056810466947999995,-0.55448,1.18291,1.1791399999999999,68.72512,2.3536,8.47296,1.003094004441155,22.035
61875,0,6609354,26,-9709,-115,-582,-6730,329,-1815,2465,1759,47,-9643,-113,-542,-6570,258,-97,1614,2307,2384,-32,208,19.12,1.00344436220084,24.92,1.00248704663212,4449.484375,-7309.8349609375,36.0,2,12,0.569999992847443,7.91494750976563,3,0,0,0,0,0,10.5894323083265,0,0,35.2187288308226,-0.8183453292,-0.2620140747,69.4588544328,-0.613984525203705,-0.353525102138519,-0.599593222141266,0.372197598218918,2,44.82473958333333,-73.163916015625,0.1866401628,-69.6957438702,-0.825523797,0.3373879866,-69.2219649954,-0.8111668614,-0.17776178367599998,-2.05556151914,0.100487331322,-0.165544478956,-2.0066923002599997,0.078801615444,-1.0527,1.4297,1.02022,-0.05626,0.93612,1.33806,0.26201407470000004,-69.4588544328,-0.8183453292,-0.171653131316,-2.0311269096999998,0.089644473383,-0.55448,1.18291,1.1791399999999999,70.13728,-0.94144,6.11936,1.00296570441648,22.020000000000003
61876,0,6609370,8,-9782,-104,-541,-7083,366,-1815,2465,1759,51,-9647,-49,-479,-6877,284,-97,1614,2307,2320,64,144,19.12,1.00344436220084,24.93,1.00239822353812,4449.484375,-7309.8349609375,36.0,2,12,0.569999992847443,7.933349609375,3,0,0,0,0,0,11.1521279429427,0,0,36.1506897141623,-0.5491527867,-0.2117648001,69.7352254431,-0.607389867305756,-0.362293571233749,-0.594313204288483,0.382900446653366,2,44.82473958333333,-73.163916015625,0.0574277424,-70.2197720196,-0.7465606512,0.36610185780000004,-69.2506788666,-0.35174492220000003,-0.165239046338,-2.163379233294,0.11178833818799999,-0.146302224022,-2.1004601139859997,0.086742863512,-1.0527,1.4297,1.02022,-0.05626,0.93612,1.33806,0.2117648001,-69.7352254431,-0.5491527867,-0.15577063518,-2.1319196736399997,0.09926560085,-0.55448,1.18291,1.1791399999999999,68.2544,1.88288,4.23648,1.00292129286948,22.025
61877,0,6609385,129,-9816,-164,-566,-7521,547,-1815,2465,1759,136,-9572,-131,-519,-7337,466,-97,1614,2307,2512,80,272,19.12,1.00340488527017,24.92,1.00237848507279,4449.484375,-7309.8349609375,36.0,2,12,0.569999992847443,7.92926025390625,3,0,0,0,0,0,11.7171066131577,0,0,37.0741436187777,-1.0588240005,-0.9511469835,69.5880668532,-0.600337564945221,-0.371290624141693,-0.588379979133606,0.394394606351852,2,44.82473958333333,-73.163916015625,0.9260223462,-70.4638399248,-1.1772687192,0.9762716208000001,-68.7122937816,-0.9403792818000001,-0.172874861788,-2.297158719978,0.167071642046,-0.15851952874199998,-2.240959118266,0.142331599988,-1.0527,1.4297,1.02022,-0.05626,0.93612,1.33806,0.9511469835,-69.58806685319999,-1.0588240005,-0.16569719526499999,-2.269058919122,0.154701621017,-0.55448,1.18291,1.1791399999999999,73.90304,2.3536,8.00224,1.00289168517148,22.020000000000003
61878,0,6609401,64,-9749,-148,-663,-8019,672,-1678,2447,1836,78,-9659,-110,-577,-7810,584,-97,1614,2307,2256,-16,144,19.11,1.00332593140883,24.92,1.00222057735011,4449.484375,-7309.8349609375,36.0,2,12,0.569999992847443,7.93539428710938,3,0,0,0,0,0,12.3080227290411,0,0,38.0084637694103,-0.9260223462,-0.5096712138,69.6598515312,-0.592654466629028,-0.380586713552475,-0.581843435764313,0.406660497188568,2,44.82473958333333,-73.163916015625,0.4594219392,-69.9828825822,-1.0624132344000001,0.5599204884,-69.3368204802,-0.789631458,-0.202501825734,-2.449264163742,0.205250719296,-0.17623462058599998,-2.3854287465799997,0.178372648912,-0.97324,1.41926,1.06488,-0.05626,0.93612,1.33806,0.5096712138,-69.6598515312,-0.9260223462000001,-0.18936822316,-2.4173464551609998,0.191811684104,-0.51475,1.17769,1.20147,66.37152,-0.47072,4.23648,1.00277325437947,22.015
61879,0,6609416,83,-9750,-99,-609,-8400,795,-1678,2447,1836,81,-9663,-75,-571,-8184,701,-97,1614,2307,2368,48,272,19.12,1.00307920059215,24.93,1.00227979274611,4449.484375,-7309.8349609375,36.0,2,12,0.569999992847443,7.9169921875,3,0,0,0,0,0,12.9175258064337,0,0,38.9488066185382,-0.6245266986,-0.5886343596,69.6777977007,-0.584553897380829,-0.390115648508072,-0.574618637561798,0.419428080320358,2,44.82473958333333,-73.163916015625,0.5958128274000001,-69.99006105000001,-0.7106683122,0.5814558918,-69.3655343514,-0.538385085,-0.186008464362,-2.5656339912,0.24281893130999999,-0.174402024878,-2.499660545712,0.214108265218,-0.97324,1.41926,1.06488,-0.05626,0.93612,1.33806,0.5886343596000001,-69.67779770070001,-0.6245266986,-0.18020524461999998,-2.532647268456,0.22846359826399998,-0.51475,1.17769,1.20147,69.66656,1.41216,8.00224,1.00267949666913,22.025
61880,0,6609432,23,-9696,-203,-724,-8933,965,-1678,2447,1836,50,-9571,-157,-700,-8688,857,-97,1614,2307,2400,128,224,19.12,1.00319763138416,24.93,1.00227979274611,4449.484375,-7309.8349609375,36.0,2,12,0.569999992847443,7.9169921875,3,0,0,0,0,0,13.5039825309534,0,0,39.8492300699987,-1.292124204,-0.2620140747,69.1537695513,-0.57570880651474,-0.399837076663971,-0.566709756851196,0.433047264814377,2,44.82473958333333,-73.163916015625,0.1651047594,-69.6024237888,-1.4572289634,0.35892339,-68.70511531380001,-1.1270194446000001,-0.22113321543199999,-2.728429576594,0.29474247637,-0.2138028326,-2.653598585184,0.261755753626,-0.97324,1.41926,1.06488,-0.05626,0.93612,1.33806,0.2620140747,-69.1537695513,-1.292124204,-0.217468024016,-2.691014080889,0.278249114998,-0.51475,1.17769,1.20147,70.608,3.76576,6.59008,1.002738712065135,22.025
61881,0,6609447,67,-9743,-70,-597,-9302,1054,-1678,2447,1836,76,-9618,-43,-585,-9074,953,-97,1614,2307,2272,64,352,19.1,1.00299037749815,24.94,1.00209227732544,4449.484375,-7309.8349609375,36.0,2,12,0.569999992847443,7.90114593505859,3,0,0,0,0,0,14.1365239100859,0,0,40.7770346430944,-0.4055834307,-0.5132604477,69.4911575379,-0.566478371620178,-0.409870952367783,-0.557955145835876,0.446983307600021,2,44.82473958333333,-73.163916015625,0.4809573426,-69.9398117754,-0.502492746,0.5455635528,-69.0425033004,-0.3086741154,-0.182343272946,-2.8411342126359997,0.32192597937199996,-0.17867808152999998,-2.7714955757319997,0.291077284954,-0.97324,1.41926,1.06488,-0.05626,0.93612,1.33806,0.5132604477,-69.4911575379,-0.4055834307,-0.180510677238,-2.8063148941839997,0.30650163216299997,-0.51475,1.17769,1.20147,66.84224,1.88288,10.35584,1.002541327411795,22.020000000000003
61882,0,6609463,1,-9780,-148,-639,-9796,1241,-1678,2447,1836,17,-9680,-115,-622,-9534,1112,-97,1614,2307,2432,96,320,19.1,1.00294103133481,24.92,1.00190476190476,4449.484375,-7309.8349609375,36.0,2,12,0.569999992847443,7.89041137695313,3,0,0,0,0,0,14.792772882473,0,0,41.7204909254533,-0.9439685157,-0.0646062102,69.846491694,-0.556598901748657,-0.420052140951157,-0.548358261585236,0.461581140756607,2,44.82473958333333,-73.163916015625,0.0071784678,-70.20541508400001,-1.0624132344000001,0.12203395260000001,-69.487568304,-0.825523797,-0.19517144290199998,-2.9920179259279998,0.37904187893799995,-0.189979088396,-2.9119945800119997,0.33964107121599996,-0.97324,1.41926,1.06488,-0.05626,0.93612,1.33806,0.0646062102,-69.84649169400001,-0.9439685157000001,-0.192575265649,-2.9520062529699995,0.359341475077,-0.51475,1.17769,1.20147,71.54944,2.82432,9.4144,1.002422896619785,22.01
61883,0,6609478,15,-9752,-115,-643,-10238,1387,-1678,2447,1836,37,-9632,-87,-630,-9972,1266,-97,1614,2307,2448,80,240,19.11,1.00297063903282,24.92,1.0020133234641,4449.484375,-7309.8349609375,41.4000015258789,2,12,0.569999992847443,7.90983581542969,3,0,0,0,0,0,15.4217733711367,0,0,42.6244924601439,-0.7250252478,-0.1866401628,69.5737099176,-0.546095788478851,-0.43036550283432,-0.537896275520325,0.476689159870148,2,44.82473958333333,-73.163916015625,0.107677017,-70.0044179856,-0.825523797,0.26560330860000003,-69.1430018496,-0.6245266986,-0.196393173374,-3.127019143084,0.423635041166,-0.19242254934,-3.045774066696,0.386677694388,-0.97324,1.41926,1.06488,-0.05626,0.93612,1.33806,0.1866401628,-69.5737099176,-0.7250252478,-0.194407861357,-3.08639660489,0.405156367777,-0.51475,1.17769,1.20147,72.02016,2.3536,7.0608,1.0024919812484598,22.015
61884,0,6609493,-21,-9809,-101,-649,-10614,1491,-1678,2447,1836,-1,-9676,-102,-664,-10355,1382,-97,1614,2307,2480,48,192,19.12,1.00256600049346,24.91,1.0019837157661,4449.484375,-7309.8349609375,41.4000015258789,2,12,0.569999992847443,7.92977142333984,3,0,0,0,0,0,16.1007748917036,0,0,43.5638222901496,-0.7286144817,0.0789631458,69.9362225415,-0.534947752952576,-0.440739095211029,-0.526655435562134,0.492152512073517,2,44.82473958333333,-73.163916015625,-0.1507478238,-70.4135906502,-0.7250252478,-0.0071784678,-69.45885443280001,-0.7322037156000001,-0.198225769082,-3.241861807452,0.45540003343799995,-0.20280725835199997,-3.16275475939,0.422107878076,-0.97324,1.41926,1.06488,-0.05626,0.93612,1.33806,-0.07896314580000001,-69.9362225415,-0.7286144817,-0.20051651371699997,-3.202308283421,0.43875395575699994,-0.51475,1.17769,1.20147,72.9616,1.41216,5.64864,1.00227485812978,22.015
61885,0,6609509,4,-9720,-85,-732,-11099,1610,-1678,2447,1836,29,-9588,-73,-736,-10826,1490,231,1604,2385,2416,16,288,19.09,1.0026153466568,24.92,1.00175672341475,4449.484375,-7309.8349609375,41.4000015258789,2,12,0.569999992847443,7.9169921875,3,0,0,0,0,0,16.7941190206047,0,0,44.5088631251519,-0.5670989562,-0.1184447187,69.3009281412,-0.522947371006012,-0.451187014579773,-0.514569699764252,0.508108675479889,2,44.82473958333333,-73.163916015625,0.0287138712,-69.77470701600001,-0.610169763,0.2081755662,-68.8271492664,-0.5240281494,-0.22357667637599998,-3.3899966271819997,0.49174651498,-0.22479840684799998,-3.306613522468,0.45509460082,-0.97324,1.41926,1.06488,0.13398,0.93032,1.3833,0.11844471869999999,-69.3009281412,-0.5670989562,-0.224187541612,-3.348305074825,0.4734205579,-0.41963,1.17479,1.22409,71.07872,0.47072,8.47296,1.002186035035775,22.005000000000003
61886,0,6609524,-147,-9640,-283,-880,-11516,1636,-1678,2447,1836,-117,-9526,-233,-875,-11215,1515,231,1604,2385,2352,32,272,19.11,1.0025857389588,24.92,1.00168763878608,4449.484375,-7309.8349609375,41.4000015258789,2,12,0.569999992847443,7.90983581542969,3,0,0,0,0,0,17.490793217567,0,0,45.4326423881517,-1.8520446924,0.9475577496,68.7912569274,-0.509980499744415,-0.46160614490509,-0.501860678195953,0.524381041526794,2,44.82473958333333,-73.163916015625,-1.0552347666000002,-69.200429592,-2.0315063874,-0.8398807326000001,-68.3820842628,-1.6725829974000002,-0.26878070383999997,-3.517362028888,0.49968776304799994,-0.26725354074999996,-3.42542681087,0.46273041627,-0.97324,1.41926,1.06488,0.13398,0.93032,1.3833,-0.9475577496,-68.79125692740001,-1.8520446924,-0.26801712229499997,-3.471394419879,0.481209089659,-0.41963,1.17479,1.22409,69.19584,0.94144,8.00224,1.0021366888724401,22.015
61887,0,6609540,-81,-9672,-115,-894,-11941,1596,-1678,2447,1836,-49,-9529,-87,-886,-11641,1468,231,1604,2385,2384,192,256,19.11,1.00260547742413,24.91,1.00187515420676,4449.484375,-7309.8349609375,41.4000015258789,2,12,0.569999992847443,7.9169921875,3,0,0,0,0,0,18.1492707327815,0,0,46.2924679054745,-0.7250252478,0.466600407,68.9168801139,-0.496070742607117,-0.472213804721832,-0.488403111696243,0.540731430053711,2,44.82473958333333,-73.163916015625,-0.5814558918,-69.4301405616,-0.825523797,-0.35174492220000003,-68.4036196662,-0.6245266986,-0.273056760492,-3.647170891538,0.48747045832799996,-0.270613299548,-3.555541106138,0.448375083224,-0.97324,1.41926,1.06488,0.13398,0.93032,1.3833,-0.46660040700000005,-68.91688011389999,-0.7250252478,-0.27183503002,-3.6013559988379997,0.467922770776,-0.41963,1.17479,1.22409,70.13728,5.64864,7.53152,1.002240315815445,22.009999999999998
61888,0,6609555,-213,-9541,-251,-939,-12299,1643,-1678,2447,1836,-158,-9398,-163,-918,-12133,1503,231,1604,2385,2240,96,240,19.11,1.00238835430545,24.91,1.00151986183074,4449.484375,-7309.8349609375,41.4000015258789,2,12,0.569999992847443,7.93539428710938,3,0,0,0,0,0,18.874683304604,0,0,47.2126329658578,-1.4859428346,1.3316057769,67.9765008321,-0.481248110532761,-0.48283326625824,-0.474097013473511,0.557229220867157,2,44.82473958333333,-73.163916015625,-1.5290136414,-68.4897612798,-1.8017954178,-1.1341979124000001,-67.46324038440001,-1.1700902514,-0.286801228302,-3.7565157687819997,0.501825791374,-0.280387143324,-3.705813954194,0.459065224854,-0.97324,1.41926,1.06488,0.13398,0.93032,1.3833,-1.3316057769,-67.97650083210002,-1.4859428345999999,-0.283594185813,-3.7311648614879998,0.480445508114,-0.41963,1.17479,1.22409,65.9008,2.82432,7.0608,1.001954108068095,22.009999999999998
61889,0,6609571,-159,-9450,-310,-1000,-12792,1626,-1678,2447,1836,-135,-9340,-259,-999,-12463,1490,231,1604,2385,2256,112,256,19.11,1.00233900814212,24.92,1.00148038490007,4449.484375,-7309.8349609375,41.4000015258789,2,12,0.569999992847443,7.89450073242188,3,0,0,0,0,0,19.6006491534803,0,0,48.1043600304802,-2.0422740891,1.0552347666,67.441704981,-0.465404152870178,-0.493421494960785,-0.459036767482758,0.573776483535767,2,44.82473958333333,-73.163916015625,-1.1413763802,-67.83652071,-2.225325018,-0.969093153,-67.046889252,-1.8592231602,-0.305432618,-3.9070940494559996,0.496633436868,-0.305127185382,-3.8066067181339998,0.45509460082,-0.97324,1.41926,1.06488,0.13398,0.93032,1.3833,-1.0552347666,-67.441704981,-2.0422740891,-0.305279901691,-3.856850383795,0.475864018844,-0.41963,1.17479,1.22409,66.37152,3.29504,7.53152,1.001909696521095,22.015
61890,0,6609586,-183,-9294,-266,-1079,-13283,1608,-1678,2447,1836,-163,-9282,-220,-1077,-12949,1476,231,1604,2385,2320,80,208,19.1,1.00231926967678,24.91,1.00119417715273,4449.484375,-7309.8349609375,41.4000015258789,2,12,0.569999992847443,7.93743896484375,3,0,0,0,0,0,20.3559179723848,0,0,49.0052942416623,-1.7443676754,1.2418749294,66.6736089264,-0.4484001994133,-0.503994345664978,-0.443117469549179,0.590401411056519,2,44.82473958333333,-73.163916015625,-1.3136596074,-66.7166797332,-1.9094724348,-1.1700902514,-66.6305381196,-1.579262916,-0.329561794822,-4.057061464894,0.491135649744,-0.328950929586,-3.955046970482,0.450818544168,-0.97324,1.41926,1.06488,0.13398,0.93032,1.3833,-1.2418749294,-66.6736089264,-1.7443676754,-0.329256362204,-4.006054217688,0.470977096956,-0.41963,1.17479,1.22409,68.2544,2.3536,6.11936,1.001756723414755,22.005000000000003
61891,0,6609602,-247,-9328,-259,-946,-13654,1580,-1242,2457,1832,-214,-9195,-238,-950,-13431,1417,231,1604,2385,2160,64,224,19.1,1.00221070811744,24.91,1.00104613866272,4449.484375,-7309.8349609375,41.4000015258789,2,12,0.569999992847443,7.900634765625,3,0,0,0,0,0,21.1329969854942,0,0,49.9036813968931,-1.7838492483,1.6546368279,66.4833795297,-0.430471211671829,-0.514736771583557,-0.426206141710281,0.606703460216522,2,44.82473958333333,-73.163916015625,-1.7730815466,-66.96074763840001,-1.8592231602,-1.5361921092000002,-66.006011421,-1.7084753364,-0.28893925662799996,-4.170376966171999,0.48258353643999996,-0.2901609871,-4.102265492358,0.43279801970599996,-0.72036,1.42506,1.06256,0.13398,0.93032,1.3833,-1.6546368279,-66.4833795297,-1.7838492483000001,-0.289550121864,-4.136321229265,0.45769077807299996,-0.29319,1.1776900000000001,1.2229299999999999,63.547200000000004,1.88288,6.59008,1.00162842339008,22.005000000000003
61892,0,6609617,-256,-9227,-412,-974,-14185,1501,-1242,2457,1832,-228,-9116,-337,-1023,-13820,1365,231,1604,2385,2256,160,224,19.11,1.00208240809277,24.91,1.00103626943005,4449.484375,-7309.8349609375,41.4000015258789,2,12,0.569999992847443,7.91903686523438,3,0,0,0,0,0,21.9151897178878,0,0,50.7901694314721,-2.6883361911,1.7371892076,65.8373174277,-0.411336779594421,-0.525396585464478,-0.408457934856415,0.622834444046021,2,44.82473958333333,-73.163916015625,-1.8376877568,-66.2357223906,-2.9575287336000002,-1.6366906584,-65.4389124648,-2.4191436486,-0.297491369932,-4.33256168633,0.45845435961799996,-0.312457568214,-4.22107878076,0.41691552357,-0.72036,1.42506,1.06256,0.13398,0.93032,1.3833,-1.7371892076000002,-65.8373174277,-2.6883361911000003,-0.30497446907299997,-4.276820233545,0.43768494159399995,-0.29319,1.1776900000000001,1.2229299999999999,66.37152,4.7072,6.59008,1.00155933876141,22.009999999999998
61893,0,6609632,-230,-9195,-380,-930,-14513,1454,-1242,2457,1832,-207,-9033,-380,-965,-14307,1294,231,1604,2385,2144,96,112,19.1,1.00189489267209,24.92,1.00117443868739,4449.484375,-7309.8349609375,41.4000015258789,2,12,0.569999992847443,7.9169921875,3,0,0,0,0,0,22.6902103586732,0,0,51.6448237700831,-2.727817764,1.5684952143,65.4245555292,-0.391151696443558,-0.535995841026306,-0.389812558889389,0.638556957244873,2,44.82473958333333,-73.163916015625,-1.651047594,-66.006011421,-2.727817764,-1.4859428346,-64.8430996374,-2.727817764,-0.28405233473999997,-4.432743585033999,0.44409902657199996,-0.29474247637,-4.3698244657259995,0.395229807692,-0.72036,1.42506,1.06256,0.13398,0.93032,1.3833,-1.5684952143,-65.4245555292,-2.727817764,-0.289397405555,-4.401284025379999,0.419664417132,-0.29319,1.1776900000000001,1.2229299999999999,63.076480000000004,2.82432,3.29504,1.0015346656797401,22.01
61894,0,6609648,-330,-9166,-403,-769,-15039,1343,-1242,2457,1832,-296,-9026,-338,-791,-14670,1203,231,1604,2385,2240,224,240,19.1,1.00178633111276,24.9,1.00076980014804,4449.484375,-7309.8349609375,41.4000015258789,2,12,0.569999992847443,7.90676879882813,3,0,0,0,0,0,23.5202025925626,0,0,52.5388843205231,-2.6596223199,2.2468604214,65.2953431088,-0.36989352107048,-0.546712279319763,-0.370172142982483,0.653649032115936,2,44.82473958333333,-73.163916015625,-2.368894374,-65.7978358548,-2.8929225234000002,-2.1248264688000003,-64.7928503628,-2.4263221164,-0.23487768324199998,-4.593401142102,0.41019600597399997,-0.241597200838,-4.48069650606,0.367435439454,-0.72036,1.42506,1.06256,0.13398,0.93032,1.3833,-2.2468604214,-65.2953431088,-2.6596223199000004,-0.23823744203999997,-4.537048824080999,0.388815722714,-0.29319,1.1776900000000001,1.2229299999999999,65.9008,6.59008,7.0608,1.0012780656304,22.0
61895,0,6609663,-249,-9108,-451,-635,-15566,1276,-1242,2457,1832,-187,-9037,-402,-669,-15167,1108,231,1604,2385,2176,160,128,19.09,1.00161855415741,24.92,1.00074019245004,4449.484375,-7309.8349609375,41.4000015258789,2,12,0.569999992847443,7.91290283203125,3,0,0,0,0,0,24.3614105374434,0,0,53.4286320323885,-3.0616165167,1.5649059804,65.1266491155,-0.347425013780594,-0.557455837726593,-0.34945210814476,0.668148279190064,2,44.82473958333333,-73.163916015625,-1.7874384822,-65.3814847224,-3.2374889778,-1.3423734786000001,-64.8718135086,-2.8857440556,-0.19394971242999998,-4.754364131788,0.389732020568,-0.20433442144199998,-4.6324965172059995,0.338419340744,-0.72036,1.42506,1.06256,0.13398,0.93032,1.3833,-1.5649059804,-65.1266491155,-3.0616165167,-0.19914206693599998,-4.693430324496999,0.364075680656,-0.29319,1.1776900000000001,1.2229299999999999,64.01792,4.7072,3.76576,1.001179373303725,22.005000000000003
61896,0,6609679,-333,-9109,-481,-519,-15890,1179,-1242,2457,1832,-301,-9002,-457,-486,-15640,953,231,1604,2385,2160,80,144,19.1,1.00158894645941,24.92,1.0006908462867,4449.484375,-7309.8349609375,41.4000015258789,2,12,0.569999992847443,7.91290283203125,3,0,0,0,0,0,25.1974662328123,0,0,54.295838639635,-3.3667013982,2.2755742926,65.0046151629,-0.323857098817825,-0.568127453327179,-0.327846139669418,0.681809902191162,2,44.82473958333333,-73.163916015625,-2.3904297774,-65.3886631902,-3.4528430118,-2.1607188078,-64.6205671356,-3.2805597846000003,-0.15851952874199998,-4.85332430002,0.360105056622,-0.14844025234799998,-4.776966145519999,0.291077284954,-0.72036,1.42506,1.06256,0.13398,0.93032,1.3833,-2.2755742926,-65.0046151629,-3.3667013982,-0.153479890545,-4.815145222769999,0.325591170788,-0.29319,1.1776900000000001,1.2229299999999999,63.547200000000004,2.3536,4.23648,1.0011398963730551,22.01
61897,0,6609694,-261,-9021,-529,-352,-16324,982,-1242,2457,1832,-241,-8905,-439,-369,-15916,819,231,1604,2385,2224,96,160,19.1,1.00143103873674,24.92,1.00038490007402,4449.484375,-7309.8349609375,41.4000015258789,2,12,0.569999992847443,7.9169921875,3,0,0,0,0,0,26.0799811685698,0,0,55.1974004735063,-3.4743784152,1.8017954178,64.3406068914,-0.299188673496246,-0.578642189502716,-0.305488497018814,0.694504320621491,2,44.82473958333333,-73.163916015625,-1.8735800958000002,-64.7569580238,-3.7974094662,-1.7300107398,-63.924255759000005,-3.1513473642000003,-0.107512281536,-4.985882056232,0.299934830876,-0.112704636042,-4.861265548087999,0.250149314142,-0.72036,1.42506,1.06256,0.13398,0.93032,1.3833,-1.8017954178000002,-64.3406068914,-3.4743784152000003,-0.110108458789,-4.92357380216,0.275042072509,-0.29319,1.1776900000000001,1.2229299999999999,65.43008,2.82432,4.7072,1.00090796940538,22.01
61898,0,6609710,-262,-8871,-521,-156,-16894,889,-1242,2457,1832,-255,-8772,-425,-152,-16505,699,682,1578,2157,2288,128,208,19.1,1.0013224771774,24.9,1.00029607698001,4449.484375,-7309.8349609375,41.4000015258789,2,12,0.569999992847443,7.933349609375,3,0,0,0,0,0,26.9720389769049,0,0,56.0846962223128,-3.3954152694,1.8556339263,63.3248536977,-0.273174583911896,-0.589136481285095,-0.281954497098923,0.706254601478577,2,44.82473958333333,-73.163916015625,-1.8807585636000002,-63.6801878538,-3.7399817238,-1.830509289,-62.9695195416,-3.050848815,-0.047647488408,-5.159978648491999,0.271529597402,-0.046425757936,-5.04116536009,0.21349739998199999,-0.72036,1.42506,1.06256,0.39556,0.91524,1.25106,-1.8556339263000001,-63.3248536977,-3.3954152694,-0.047036623172,-5.100572004290999,0.242513498692,-0.1624,1.17015,1.1568100000000001,67.31296,3.76576,6.11936,1.0008092770787052,22.0
61899,0,6609725,-313,-8799,-588,129,-17258,813,-1242,2457,1832,-224,-8712,-499,95,-16850,619,682,1578,2157,2096,64,112,19.1,1.00117443868739,24.91,1.00030594621268,4449.484375,-7309.8349609375,41.4000015258789,2,12,0.569999992847443,7.933349609375,3,0,0,0,0,0,27.8651447344497,0,0,56.9434918228837,-3.9014972493,1.9274186043,62.8510748229,-0.246241465210915,-0.599449038505554,-0.257476478815079,0.716750979423523,2,44.82473958333333,-73.163916015625,-2.2468604214,-63.1633381722,-4.220939066400001,-1.6079767872000001,-62.5388114736,-3.5820554322000002,0.039400807722,-5.271156121444,0.248316718434,0.029016098709999997,-5.1465396133,0.18906279054199998,-0.72036,1.42506,1.06256,0.39556,0.91524,1.25106,-1.9274186043000001,-62.8510748229,-3.9014972493,0.034208453215999995,-5.2088478673720005,0.218689754488,-0.1624,1.17015,1.1568100000000001,61.664320000000004,1.88288,3.29504,1.000740192450035,22.005000000000003
61900,0,6609741,-307,-8744,-589,386,-17835,772,-1242,2457,1832,-260,-8670,-511,344,-17395,556,682,1578,2157,2176,224,160,19.11,1.00119417715273,24.9,1.000029607698,4449.484375,-7309.8349609375,41.4000015258789,2,12,0.569999992847443,7.92108154296875,3,0,0,0,0,0,28.77478234668,0,0,57.7991290380788,-3.94815729,2.0350956213,62.5029191346,-0.218073651194572,-0.609582245349884,-0.231761425733566,0.726044178009033,2,44.82473958333333,-73.163916015625,-2.2037896146000002,-62.768522443200006,-4.2281175342,-1.866401628,-62.237315826,-3.6681970458,0.117896990548,-5.44739074203,0.235793981096,0.105068820592,-5.31300039011,0.16982053560799998,-0.72036,1.42506,1.06256,0.39556,0.91524,1.25106,-2.0350956213,-62.502919134600006,-3.94815729,0.11148290557,-5.38019556607,0.20280725835199997,-0.1624,1.17015,1.1568100000000001,64.01792,6.59008,4.7072,1.0006118924253649,22.005
61901,0,6609756,-238,-8797,-492,688,-18147,790,-1242,2457,1832,-198,-8623,-445,691,-17859,575,682,1578,2157,2176,64,80,19.11,1.00092770787071,24.91,1.000059215396,4449.484375,-7309.8349609375,41.4000015258789,2,12,0.569999992847443,7.91494750976563,3,0,0,0,0,0,29.6976908086646,0,0,58.6500158758363,-3.3631121643,1.5649059804,62.524454538,-0.189092501997948,-0.619426846504211,-0.204922616481781,0.733867287635803,2,44.82473958333333,-73.163916015625,-1.7084753364,-63.1489812366,-3.5318061576,-1.4213366244,-61.8999278394,-3.194418171,0.210137641184,-5.542685718845999,0.24129176821999998,0.211053939038,-5.454721124862,0.17562375535,-0.72036,1.42506,1.06256,0.39556,0.91524,1.25106,-1.5649059804,-62.524454538,-3.3631121643000004,0.210595790111,-5.498703421854,0.20845776178499997,-0.1624,1.17015,1.1568100000000001,64.01792,1.88288,2.3536,1.000493461633355,22.009999999999998
61902,0,6609771,-358,-8700,-530,904,-18692,821,-1242,2457,1832,-303,-8565,-482,849,-18231,586,682,1578,2157,2064,32,112,19.1,1.00111522329139,24.9,0.999871699975327,4449.484375,-7309.8349609375,53.5999984741211,2,12,0.569999992847443,7.92108154296875,3,0,0,0,0,0,30.601483843215,0,0,59.4667409629323,-3.6323047068,2.3724836079,61.9681232835,-0.15912538766861,-0.628699481487274,-0.176956236362457,0.740339517593384,2,44.82473958333333,-73.163916015625,-2.5698914724,-62.45266986,-3.804587934,-2.1750757434,-61.483576707000005,-3.4600214796,0.27611108667199996,-5.709146495655999,0.250760179378,0.259312292682,-5.568342058758,0.17898351414799998,-0.72036,1.42506,1.06256,0.39556,0.91524,1.25106,-2.3724836079,-61.968123283500006,-3.6323047068000003,0.267711689677,-5.6387442772069996,0.21487184676299997,-0.1624,1.17015,1.1568100000000001,60.72288,0.94144,3.29504,1.0004934616333585,22.0
61903,0,6609787,-244,-8605,-555,1024,-19032,825,-1242,2457,1832,-198,-8461,-449,1033,-18734,589,682,1578,2157,2176,160,240,19.09,1.00083888477671,24.9,0.999832223044658,4449.484375,-7309.8349609375,53.5999984741211,2,12,0.569999992847443,7.9169921875,3,0,0,0,0,0,31.5288095792095,0,0,60.287325183356,-3.6035908356,1.5864413838,61.2538657374,-0.128216326236725,-0.637235999107361,-0.147994682192802,0.745378077030182,2,44.82473958333333,-73.163916015625,-1.7515461432000001,-61.770715419000005,-3.9840496290000003,-1.4213366244,-60.737016055800005,-3.2231320422,0.312763000832,-5.812993585776,0.25198190984999996,0.31551189439399996,-5.721974665612,0.179899812002,-0.72036,1.42506,1.06256,0.39556,0.91524,1.25106,-1.5864413838,-61.253865737400005,-3.6035908356000004,0.314137447613,-5.767484125694,0.21594086092599998,-0.1624,1.17015,1.1568100000000001,64.01792,4.7072,7.0608,1.000335553910684,21.994999999999997
61904,0,6609802,-292,-8476,-510,1293,-19546,926,-853,2427,1489,-247,-8445,-489,1265,-19087,664,682,1578,2157,2144,192,288,19.09,1.0006908462867,24.89,0.999753269183321,4449.484375,-7309.8349609375,53.5999984741211,2,12,0.569999992847443,7.91494750976563,3,0,0,0,0,0,32.4669746912985,0,0,61.0956060325605,-3.5856446661,1.9345970721,60.7334268219,-0.0965326279401779,-0.645086228847504,-0.117890432476997,0.748763740062714,2,44.82473958333333,-73.163916015625,-2.0961125976,-60.844693072800005,-3.661018578,-1.7730815466,-60.622160571,-3.5102707542,0.39492437507399997,-5.969985951428,0.282830604268,0.38637226177,-5.829792379765999,0.20280725835199997,-0.49474,1.40766,0.86362,0.39556,0.91524,1.25106,-1.9345970720999999,-60.733426821900004,-3.5856446661000003,0.390648318422,-5.899889165596999,0.24281893130999999,-0.049589999999999995,1.1614499999999999,1.05734,63.076480000000004,5.64864,8.47296,1.0002220577350105,21.990000000000002
61905,0,6609818,-255,-8471,-501,1438,-20045,985,-853,2427,1489,-217,-8377,-402,1436,-19598,719,682,1578,2157,2064,96,96,19.09,1.00058228472736,24.9,0.999467061435973,4449.484375,-7309.8349609375,53.5999984741211,2,12,0.569999992847443,7.89398956298828,3,0,0,0,0,0,33.4380145620569,0,0,61.9185271786594,-3.2410782117,1.6941184008,60.4714127472,-0.0639138594269753,-0.652017116546631,-0.086667962372303,0.750517964363098,2,44.82473958333333,-73.163916015625,-1.830509289,-60.808800733800005,-3.5964123678,-1.5577275126,-60.1340247606,-2.8857440556,0.43921210468399996,-6.122396827809999,0.30085112873,0.438601239448,-5.985868447564,0.21960605234199998,-0.49474,1.40766,0.86362,0.39556,0.91524,1.25106,-1.6941184008,-60.471412747200006,-3.2410782117,0.438906672066,-6.054132637686999,0.260228590536,-0.049589999999999995,1.1614499999999999,1.05734,60.72288,2.82432,2.82432,1.0000246730816664,21.994999999999997
61906,0,6609833,-266,-8342,-425,1586,-20433,1065,-853,2427,1489,-294,-8299,-307,1603,-20084,804,682,1578,2157,1968,96,128,19.09,1.00052306933136,24.91,0.999644707623982,4449.484375,-7309.8349609375,53.5999984741211,2,12,0.569999992847443,7.92108154296875,3,0,0,0,0,0,34.3719548725286,0,0,62.6840327935061,-2.6273192148,2.009970984,59.7284413299,-0.030562411993742,-0.657899618148804,-0.0544434487819672,0.750513255596161,2,44.82473958333333,-73.163916015625,-1.9094724348,-59.882778387600005,-3.050848815,-2.1104695332000003,-59.5741042722,-2.2037896146000002,0.48441613214799994,-6.240904683594,0.32528573817,0.489608486654,-6.134308699911999,0.245567824872,-0.49474,1.40766,0.86362,0.39556,0.91524,1.25106,-2.009970984,-59.72844132990001,-2.6273192148,0.48701230940099993,-6.1876066917529995,0.285426781521,-0.049589999999999995,1.1614499999999999,1.05734,57.89856,2.82432,3.76576,1.000083888477671,22.0
61907,0,6609849,-305,-8256,-350,1706,-20900,1154,-853,2427,1489,-221,-8207,-336,1670,-20458,873,682,1578,2157,2160,192,208,19.1,1.0006020231927,24.91,0.99947693066864,4449.484375,-7309.8349609375,53.5999984741211,2,12,0.569999992847443,7.91903686523438,3,0,0,0,0,0,35.297121052133,0,0,63.4164811574452,-2.4622144554,1.8879370314,59.0895576957,0.0034487338270992,-0.662521123886108,-0.0213221181184053,0.748731791973114,2,44.82473958333333,-73.163916015625,-2.1894326790000003,-59.2654301568,-2.51246373,-1.5864413838,-58.9136852346,-2.4119651808,0.521068046308,-6.3835417162,0.35246924117199996,0.51007247206,-6.248540499043999,0.266642675514,-0.49474,1.40766,0.86362,0.39556,0.91524,1.25106,-1.8879370314000001,-59.0895576957,-2.4622144554,0.5155702591839999,-6.3160411076219996,0.309555958343,-0.049589999999999995,1.1614499999999999,1.05734,63.547200000000004,5.64864,6.11936,1.00003947693067,22.005000000000003
61908,0,6609864,-331,-8175,-364,1615,-21281,1253,-853,2427,1489,-311,-8080,-325,1583,-20926,978,682,1578,2157,1968,208,288,19.1,1.00043424623736,24.9,0.99940784603997,4449.484375,-7309.8349609375,53.5999984741211,2,12,0.569999992847443,7.9169921875,3,0,0,0,0,0,36.2332589096599,0,0,64.1393299892149,-2.4729821571,2.3042881638,58.3429970445,0.0380287356674671,-0.665471374988556,0.012667840346694,0.745346367359161,2,44.82473958333333,-73.163916015625,-2.3760728418,-58.683974265,-2.6129622792,-2.2325034858,-58.002019824,-2.3330020350000003,0.49327367807,-6.4999115436579995,0.382707070354,0.48349983429399995,-6.3914829642679996,0.298713100404,-0.49474,1.40766,0.86362,0.39556,0.91524,1.25106,-2.3042881638,-58.3429970445,-2.4729821571,0.488386756182,-6.445697253962999,0.340710085379,-0.049589999999999995,1.1614499999999999,1.05734,57.89856,6.11936,8.47296,0.9999210461386651,22.0
61909,0,6609880,-373,-8111,-211,1757,-21703,1338,-853,2427,1489,-334,-8169,-191,1742,-21383,1041,682,1578,2157,2032,112,288,19.1,1.00017764618801,24.9,0.999151245990624,4449.484375,-7309.8349609375,53.5999984741211,2,12,0.569999992847443,7.91188049316406,3,0,0,0,0,0,37.2170594595749,0,0,64.8908103630431,-1.4428720278,2.5375883673,58.432727892,0.0731577277183533,-0.667060196399689,0.0474094226956368,0.739885807037354,2,44.82473958333333,-73.163916015625,-2.6775684894,-58.224552325800005,-1.5146567058,-2.3976082452000003,-58.6409034582,-1.3710873498,0.536645109826,-6.628804108453999,0.40866884288399996,0.532063620556,-6.531065670694,0.31795535533799996,-0.49474,1.40766,0.86362,0.39556,0.91524,1.25106,-2.5375883673,-58.432727892,-1.4428720278,0.534354365191,-6.579934889574,0.36331209911099993,-0.049589999999999995,1.1614499999999999,1.05734,59.78144,3.29504,8.47296,0.999664446089317,22.0
61910,0,6609895,-429,-8087,-313,1625,-22185,1402,-853,2427,1489,-345,-8010,-278,1576,-21716,1100,682,1578,2157,1984,128,224,19.09,1.00032568467802,24.9,0.999092030594621,4449.484375,-7309.8349609375,53.5999984741211,2,12,0.569999992847443,7.92108154296875,3,0,0,0,0,0,38.1662717971324,0,0,65.5940272420321,-2.1212372349,2.7780670386,57.7758980883,0.108682155609131,-0.666682243347168,0.0827826261520386,0.732714176177979,2,44.82473958333333,-73.163916015625,-3.0795626862,-58.0522690986,-2.2468604214,-2.4765713910000002,-57.499527078,-1.9956140484,0.49632800424999995,-6.77602263033,0.428216530436,0.481361805968,-6.6327747324879995,0.3359758798,-0.49474,1.40766,0.86362,0.39556,0.91524,1.25106,-2.7780670386,-57.775898088299996,-2.1212372349,0.48884490510899997,-6.704398681409,0.382096205118,-0.049589999999999995,1.1614499999999999,1.05734,58.36928,3.76576,6.59008,0.9997088576363204,21.994999999999997
61911,0,6609910,-444,-8033,-267,1599,-22523,1414,-853,2427,1489,-467,-7974,-227,1547,-22126,1117,840,1557,1765,1968,112,208,19.1,0.999822353811991,24.89,0.998865038243276,4449.484375,-7309.8349609375,53.5999984741211,2,12,0.569999992847443,7.91290283203125,3,0,0,0,0,0,39.1916659909285,0,0,66.3583907531095,-1.7730815466,3.2697920829,57.4528670373,0.144522726535797,-0.664452016353607,0.118541486561298,0.723577678203583,2,44.82473958333333,-73.163916015625,-3.1872397032,-57.6646318374,-1.9166509026,-3.3523444626,-57.2411022372,-1.6295121906,0.48838675618199995,-6.879258855213999,0.43188172185199997,0.472504260046,-6.758002105868,0.34116823430599996,-0.49474,1.40766,0.86362,0.4872,0.90306,1.0237,-3.2697920829,-57.4528670373,-1.7730815466,0.480445508114,-6.818630480541,0.386524978079,-0.0037699999999999956,1.15536,0.94366,57.89856,3.29504,6.11936,0.9993436960276335,21.995
61912,0,6609926,-474,-7976,-231,1518,-22913,1417,-853,2427,1489,-435,-7893,-174,1523,-22434,1121,840,1557,1765,2016,192,256,19.09,0.999743399950654,24.9,0.998736738218604,4449.484375,-7309.8349609375,53.5999984741211,2,12,0.569999992847443,7.89859008789063,3,0,0,0,0,0,40.2211100184224,0,0,67.1098869606203,-1.4536397295,3.2626136151,56.9575527591,0.180532306432724,-0.660252213478088,0.154534831643105,0.712456464767456,2,44.82473958333333,-73.163916015625,-3.4025937372,-57.2554591728,-1.6582260618,-3.122633493,-56.6596463454,-1.2490533972,0.463646714124,-6.998377576234,0.43279801970599996,0.465173877214,-6.852075352211999,0.342389964778,-0.49474,1.40766,0.86362,0.4872,0.90306,1.0237,-3.2626136151000003,-56.9575527591,-1.4536397294999999,0.464410295669,-6.925226464223,0.387593992242,-0.0037699999999999956,1.15536,0.94366,59.31072,5.64864,7.53152,0.999240069084629,21.994999999999997
61913,0,6609941,-588,-7849,-308,1356,-23235,1396,-853,2427,1489,-536,-7754,-253,1326,-22839,1093,840,1557,1765,2096,208,208,19.09,0.999536146064643,24.89,0.998618307426598,4449.484375,-7309.8349609375,53.5999984741211,2,12,0.569999992847443,7.90165710449219,3,0,0,0,0,0,41.2702331305993,0,0,67.8630473293881,-2.0135602179,4.0342989036,56.0028165417,0.216606765985489,-0.653788149356842,0.190682455897331,0.699487566947937,2,44.82473958333333,-73.163916015625,-4.220939066400001,-56.3437937622,-2.2109680824,-3.8476587408,-55.6618393212,-1.8161523534000001,0.41416663000799997,-7.096726879229999,0.42638393472799996,0.405003651468,-6.975775562501999,0.33383785147399997,-0.49474,1.40766,0.86362,0.4872,0.90306,1.0237,-4.0342989036,-56.0028165417,-2.0135602179000003,0.409585140738,-7.036251220865999,0.380110893101,-0.0037699999999999956,1.15536,0.94366,61.664320000000004,6.11936,6.11936,0.9990772267456205,21.990000000000002
61914,0,6609957,-618,-7807,-284,1261,-23572,1284,-853,2427,1489,-591,-7702,-222,1240,-23133,981,840,1557,1765,1824,160,176,19.09,0.999437453737972,24.89,0.998667653589933,4449.484375,-7309.8349609375,53.5999984741211,2,12,0.569999992847443,7.92926025390625,3,0,0,0,0,0,42.3011712852858,0,0,68.5699941405705,-1.8161523534,4.3393837851,55.6654285551,0.252695739269257,-0.645119190216064,0.226622968912125,0.684549570083618,2,44.82473958333333,-73.163916015625,-4.4362931004,-56.0422981146,-2.0386848552,-4.2424744698,-55.2885589956,-1.5936198516,0.385150531298,-7.1996576714959994,0.392175481512,0.37873644632,-7.065572752194,0.299629398258,-0.49474,1.40766,0.86362,0.4872,0.90306,1.0237,-4.339383785100001,-55.6654285551,-1.8161523534000001,0.381943488809,-7.132615211845,0.345902439885,-0.0037699999999999956,1.15536,0.94366,53.66208,4.7072,5.17792,0.9990525536639525,21.990000000000002
