	packetType	timestamp_s	timestamp_ms	imu1_accel_x	imu1_accel_y	imu1_accel_z	imu1_gyro_x	imu1_gyro_y	imu1_gyro_z	imu1_mag_x	imu1_mag_y	imu1_mag_z	imu2_accel_x	imu2_accel_y	imu2_accel_z	imu2_gyro_x	imu2_gyro_y	imu2_gyro_z	imu2_mag_x	imu2_mag_y	imu2_mag_z	high_g_accel_x	high_g_accel_y	high_g_accel_z	baro1_temp	baro1_pres	baro2_temp	baro2_pres	gps_lat	gps_long	gps_alt	battery_voltage	pyro_cont	pyro_status	heading	vtg	pos_x	pos_y	pos_z	vel_x	vel_y	vel_z	acc_x	acc_y	acc_z	q_x	q_y	q_z	q_w	state	gps_lat_mod	gps_long_mod	imu1_accel_x_real	imu1_accel_y_real	imu1_accel_z_real	imu2_accel_x_real	imu2_accel_y_real	imu2_accel_z_real	imu1_gyro_x_real	imu1_gyro_y_real	imu1_gyro_z_real	imu2_gyro_x_real	imu2_gyro_y_real	imu2_gyro_z_real	imu1_mag_x_real	imu1_mag_y_real	imu1_mag_z_real	imu2_mag_x_real	imu2_mag_y_real	imu2_mag_z_real	imu_accel_x_avg	imu_accel_y_avg	imu_accel_z_avg	imu_gyro_x_avg	imu_gyro_y_avg	imu_gyro_z_avg	imu_mag_x_avg	imu_mag_y_avg	imu_mag_z_avg	high_g_accel_x_real	high_g_accel_y_real	high_g_accel_z_real	baro_pres_avg	baro_temp_avg
12955	0	1393343	0	-1382	33	52	429	-200	11	-1203	-17	-1686	-1382	33	52	429	-200	11	-1203	-17	-1686	160	240	368	45.24	0.9944238835430546	43.83	0.99426597582038	4449.5048828125	-7309.857421875	37.09999847412109	12.261249542236328	1	0	0.0	0.0	0.0	0.0	0.5430748434656417	0.0	0.0	0.3182832621187635	0.3732803255999999	0.2368894373999999	9.9206424996	0.3760513067245483	-0.5913123488426208	0.3648138046264648	0.613062858581543	6	44.82508138020833	-73.16429036458334	-9.9206424996	0.2368894374	0.3732803256	-9.9206424996	0.2368894374	0.3732803256	0.131030593122	-0.0610865236	0.003359758798	0.131030593122	-0.0610865236	0.003359758798	-0.69774	-0.00986	-0.97788	-0.69774	-0.00986	-0.97788	-9.9206424996	0.2368894374	0.3732803256	0.131030593122	-0.0610865236	0.003359758798	-0.69774	-0.00986	-0.97788	4.7072	7.0608	10.82656	0.9943449296817173	44.535
12956	0	1393450	0	-1377	44	14	397	-209	31	-1203	-17	-1686	-1377	44	14	397	-209	31	-1203	-17	-1686	96	304	384	45.25	0.994384406612386	43.83	0.9942067604243772	4449.5048828125	-7309.857421875	37.09999847412109	12.261249542236328	1	0	0.0	0.0	0.0	0.0	0.8257977948513279	0.0	0.0	0.5808506195842729	0.1004985492	0.3158525832	9.8847501606	0.3759270012378692	-0.5913780927658081	0.3651539087295532	0.6128731369972229	6	44.82508138020833	-73.16429036458334	-9.884750160600001	0.31585258320000004	0.10049854920000001	-9.884750160600001	0.31585258320000004	0.10049854920000001	0.12125674934599999	-0.063835417162	0.009468411158	0.12125674934599999	-0.063835417162	0.009468411158	-0.69774	-0.00986	-0.97788	-0.69774	-0.00986	-0.97788	-9.884750160600001	0.31585258320000004	0.10049854920000001	0.12125674934599999	-0.063835417162	0.009468411158	-0.69774	-0.00986	-0.97788	2.82432	8.94368	11.29728	0.9942955835183815	44.54
12957	0	1393560	0	-1374	55	5	370	-217	53	-1198	-20	-1691	-1374	55	5	370	-217	53	-1198	-20	-1691	128	304	432	45.24	0.9942758450530472	43.83	0.9941080680977054	4449.5048828125	-7309.857421875	37.09999847412109	12.25374984741211	1	0	0.0	0.0	0.0	0.0	1.059319437698336	0.0	0.0	0.7730635425457373	0.0358923389999999	0.3948157289999999	9.8632147572	0.3764337003231048	-0.5913819074630737	0.3662225008010864	0.611920177936554	6	44.82508138020833	-73.16429036458334	-9.8632147572	0.394815729	0.035892339	-9.8632147572	0.394815729	0.035892339	0.11301006865999999	-0.066278878106	0.016187928754	0.11301006865999999	-0.066278878106	0.016187928754	-0.69484	-0.0116	-0.98078	-0.69484	-0.0116	-0.98078	-9.8632147572	0.394815729	0.035892339	0.11301006865999999	-0.066278878106	0.016187928754	-0.69484	-0.0116	-0.98078	3.76576	8.94368	12.70944	0.9941919565753763	44.535
12958	0	1393665	0	-1374	7	12	416	-210	27	-1198	-20	-1691	-1374	7	12	416	-210	27	-1198	-20	-1691	128	240	368	45.25	0.9944337527757215	43.83	0.9942067604243772	4449.5048828125	-7309.857421875	37.09999847412109	12.25374984741211	1	0	0.0	0.0	0.0	0.0	1.170612180622116	0.0	0.0	0.8126478241305884	0.0861416136	0.0502492746	9.8632147572	0.377137690782547	-0.5911136269569397	0.3676423728466034	0.6108935475349426	6	44.82508138020833	-73.16429036458334	-9.8632147572	0.050249274600000005	0.0861416136	-9.8632147572	0.050249274600000005	0.0861416136	0.127059969088	-0.06414084978	0.008246680686	0.127059969088	-0.06414084978	0.008246680686	-0.69484	-0.0116	-0.98078	-0.69484	-0.0116	-0.98078	-9.8632147572	0.050249274600000005	0.0861416136	0.127059969088	-0.06414084978	0.008246680686	-0.69484	-0.0116	-0.98078	3.76576	7.0608	10.82656	0.9943202566000493	44.54
12959	0	1393770	0	-1365	37	-21	427	-210	35	-1213	-6	-1680	-1365	37	-21	427	-210	35	-1213	-6	-1680	112	224	384	45.25	0.9945916604983962	43.83	0.9943153219837156	4449.5048828125	-7309.857421875	37.09999847412109	12.261249542236328	1	0	0.0	0.0	0.0	0.0	1.2411801045145114	0.0	0.0	0.8004228122923562	-0.1507478237999999	0.2656033086	9.798608547	0.3767630159854889	-0.5915180444717407	0.367814838886261	0.6106294393539429	6	44.82508138020833	-73.16429036458334	-9.798608547	0.26560330860000003	-0.1507478238	-9.798608547	0.26560330860000003	-0.1507478238	0.13041972788599998	-0.06414084978	0.010690141629999999	0.13041972788599998	-0.06414084978	0.010690141629999999	-0.70354	-0.00348	-0.9744	-0.70354	-0.00348	-0.9744	-9.798608547	0.26560330860000003	-0.1507478238	0.13041972788599998	-0.06414084978	0.010690141629999999	-0.70354	-0.00348	-0.9744	3.29504	6.59008	11.29728	0.9944534912410559	44.54
12960	0	1393877	0	-1373	15	-12	351	-167	7	-1192	-30	-1659	-1373	15	-12	351	-167	7	-1192	-30	-1659	112	272	336	45.25	0.9945324451023932	43.83	0.9941968911917098	4449.5048828125	-7309.857421875	37.09999847412109	12.25374984741211	1	0	0.0	0.0	0.0	0.0	1.314811791396283	0.0	0.0	0.7924467796156252	-0.0861416136	0.1076770169999999	9.8560362894	0.3770710527896881	-0.5910643339157104	0.3689987659454345	0.6101642847061157	6	44.82508138020833	-73.16429036458334	-9.8560362894	0.107677017	-0.0861416136	-9.8560362894	0.107677017	-0.0861416136	0.10720684891799999	-0.051007247206	0.0021380283259999997	0.10720684891799999	-0.051007247206	0.0021380283259999997	-0.69136	-0.0174	-0.96222	-0.69136	-0.0174	-0.96222	-9.8560362894	0.107677017	-0.0861416136	0.10720684891799999	-0.051007247206	0.0021380283259999997	-0.69136	-0.0174	-0.96222	3.29504	8.00224	9.88512	0.9943646681470515	44.54
12961	0	1393982	0	-1367	37	9	472	-183	-2	-1192	-30	-1659	-1367	37	9	472	-183	-2	-1192	-30	-1659	160	304	432	45.25	0.9945423143350604	43.84	0.9941771527263756	4449.5048828125	-7309.857421875	37.09999847412109	12.261249542236328	1	0	0.0	0.0	0.0	0.0	1.3354931797320575	0.0	0.0	0.733149618330121	0.0646062102	0.2656033086	9.8129654826	-0.1058282628655433	-0.6955083012580872	-0.1047959998250007	0.7029128670692444	6	44.82508138020833	-73.16429036458334	-9.812965482600001	0.26560330860000003	0.0646062102	-9.812965482600001	0.26560330860000003	0.0646062102	0.144164195696	-0.055894169093999996	-0.000610865236	0.144164195696	-0.055894169093999996	-0.000610865236	-0.69136	-0.0174	-0.96222	-0.69136	-0.0174	-0.96222	-9.812965482600001	0.26560330860000003	0.0646062102	0.144164195696	-0.055894169093999996	-0.000610865236	-0.69136	-0.0174	-0.96222	4.7072	8.94368	12.70944	0.9943597335307179	44.545
12962	0	1394092	0	-1380	29	16	438	-167	-6	-1225	11	-1667	-1380	29	16	438	-167	-6	-1225	11	-1667	128	240	352	45.24	0.9944732297063904	43.83	0.9941574142610412	4449.5048828125	-7309.857421875	37.09999847412109	12.260000228881836	1	0	0.0	0.0	0.0	0.0	1.5225719156444744	0.0	0.0	0.8485830380036141	0.1148554847999999	0.2081755662	9.906285564	-0.1054619252681732	-0.6952661871910095	-0.1046704798936843	0.7032260298728943	6	44.82508138020833	-73.16429036458334	-9.906285564000001	0.2081755662	0.1148554848	-9.906285564000001	0.2081755662	0.1148554848	0.133779486684	-0.051007247206	-0.001832595708	0.133779486684	-0.051007247206	-0.001832595708	-0.7105	0.00638	-0.96686	-0.7105	0.00638	-0.96686	-9.906285564000001	0.2081755662	0.1148554848	0.133779486684	-0.051007247206	-0.001832595708	-0.7105	0.00638	-0.96686	3.76576	7.0608	10.35584	0.9943153219837157	44.535
12963	0	1394199	0	-1379	33	4	538	-220	-24	-1225	11	-1667	-1376	29	6	538	-222	-31	-1225	11	-1667	128	288	400	45.25	0.994690352825068	43.84	0.994325191216383	4449.5048828125	-7309.857421875	37.09999847412109	12.260000228881836	1	0	0.0	0.0	0.0	0.0	1.4972106701828465	0.0	0.0	0.7351896664461279	0.0358923389999999	0.2225325018	9.8883393945	-0.1056679561734199	-0.6951711773872375	-0.1052646338939666	0.7032003402709961	6	44.82508138020833	-73.16429036458334	-9.8991070962	0.2368894374	0.0287138712	-9.8775716928	0.2081755662	0.0430708068	0.164322748484	-0.06719517595999999	-0.007330382832	0.164322748484	-0.06780604119599999	-0.009468411158	-0.7105	0.00638	-0.96686	-0.7105	0.00638	-0.96686	-9.8883393945	0.2225325018	0.035892339	0.164322748484	-0.067500608578	-0.008399396994999999	-0.7105	0.00638	-0.96686	3.76576	8.47296	11.768	0.9945077720207255	44.545
12964	0	1394304	0	-1371	35	13	471	-215	-23	-1221	-15	-1683	-1371	35	13	471	-215	-23	-1221	-15	-1683	160	208	400	45.25	0.9945916604983962	43.84	0.994384406612386	4449.5048828125	-7309.857421875	37.09999847412109	12.261249542236328	1	0	0.0	0.0	0.0	0.0	1.3359125228174056	0.0	0.0	0.4960148141408134	0.0933200813999999	0.2512463729999999	9.8416793538	-0.106175310909748	-0.6952102184295654	-0.1061887368559837	0.7029463052749634	6	44.82508138020833	-73.16429036458334	-9.8416793538	0.251246373	0.0933200814	-9.8416793538	0.251246373	0.0933200814	0.143858763078	-0.06566801287	-0.0070249502139999994	0.143858763078	-0.06566801287	-0.0070249502139999994	-0.70818	-0.0087	-0.97614	-0.70818	-0.0087	-0.97614	-9.8416793538	0.251246373	0.0933200814	0.143858763078	-0.06566801287	-0.0070249502139999994	-0.70818	-0.0087	-0.97614	4.7072	6.11936	11.768	0.9944880335553912	44.545
12965	0	1394413	0	-1377	20	7	516	-230	-29	-1221	-15	-1683	-1377	20	7	516	-230	-29	-1221	-15	-1683	32	288	384	45.25	0.9946015297310634	43.84	0.9944830989390576	4449.5048828125	-7309.857421875	37.09999847412109	12.260000228881836	1	0	0.0	0.0	0.0	0.0	1.1743136433303358	0.0	0.0	0.2814787755897526	0.0502492746	0.1435693559999999	9.8847501606	-0.1066435799002647	-0.6952806711196899	-0.1071795299649238	0.7026554346084595	6	44.82508138020833	-73.16429036458334	-9.884750160600001	0.143569356	0.050249274600000005	-9.884750160600001	0.143569356	0.050249274600000005	0.157603230888	-0.07024950213999999	-0.008857545922	0.157603230888	-0.07024950213999999	-0.008857545922	-0.70818	-0.0087	-0.97614	-0.70818	-0.0087	-0.97614	-9.884750160600001	0.143569356	0.050249274600000005	0.157603230888	-0.07024950213999999	-0.008857545922	-0.70818	-0.0087	-0.97614	0.94144	8.47296	11.29728	0.9945423143350605	44.545
12966	0	1394519	0	-1373	81	5	508	-214	-5	-1218	-11	-1682	-1373	81	5	508	-214	-5	-1218	-11	-1682	128	256	368	45.25	0.994690352825068	43.83	0.99426597582038	4449.5048828125	-7309.857421875	37.09999847412109	12.25374984741211	1	0	0.0	0.0	0.0	0.0	1.0654214246110445	0.0	0.0	0.1430400670678627	0.0358923389999999	0.5814558917999999	9.8560362894	-0.1076283082365989	-0.6953532099723816	-0.1084770336747169	0.7022342085838318	6	44.82508138020833	-73.16429036458334	-9.8560362894	0.5814558918	0.035892339	-9.8560362894	0.5814558918	0.035892339	0.155159769944	-0.065362580252	-0.0015271630899999999	0.155159769944	-0.065362580252	-0.0015271630899999999	-0.70644	-0.00638	-0.97556	-0.70644	-0.00638	-0.97556	-9.8560362894	0.5814558918	0.035892339	0.155159769944	-0.065362580252	-0.0015271630899999999	-0.70644	-0.00638	-0.97556	3.76576	7.53152	10.82656	0.9944781643227241	44.54
12967	0	1394626	0	-1377	46	-1	459	-149	12	-1218	-11	-1682	-1377	46	-1	459	-149	12	-1218	-11	-1682	112	272	400	45.25	0.9947495682210707	43.83	0.9944633604737232	4449.5048828125	-7309.857421875	37.09999847412109	12.25374984741211	1	0	0.0	0.0	0.0	0.0	0.8940288253885001	0.0	0.0	-0.0473729489831242	-0.0071784677999999	0.3302095188	9.8847501606	-0.1073618978261947	-0.6950576901435852	-0.1079957485198974	0.7026415467262268	6	44.82508138020833	-73.16429036458334	-9.884750160600001	0.3302095188	-0.0071784678	-9.884750160600001	0.3302095188	-0.0071784678	0.140193571662	-0.045509460082	0.003665191416	0.140193571662	-0.045509460082	0.003665191416	-0.70644	-0.00638	-0.97556	-0.70644	-0.00638	-0.97556	-9.884750160600001	0.3302095188	-0.0071784678	0.140193571662	-0.045509460082	0.003665191416	-0.70644	-0.00638	-0.97556	3.29504	8.00224	11.768	0.994606464347397	44.54
12968	0	1394731	0	-1369	83	-13	455	-146	20	-1211	-1	-1701	-1369	83	-13	455	-146	20	-1211	-1	-1701	112	304	352	45.25	0.9947890451517396	43.84	0.9944238835430546	4449.5048828125	-7309.857421875	37.09999847412109	12.260000228881836	1	0	0.0	0.0	0.0	0.0	0.6448334793423407	0.0	0.0	-0.2969384449801272	-0.0933200813999999	0.5958128274	9.8273224182	-0.1074627712368965	-0.6945026516914368	-0.1080020293593406	0.703173816204071	6	44.82508138020833	-73.16429036458334	-9.8273224182	0.5958128274000001	-0.0933200814	-9.8273224182	0.5958128274000001	-0.0933200814	0.13897184119	-0.044593162228	0.0061086523599999994	0.13897184119	-0.044593162228	0.0061086523599999994	-0.70238	-0.00058	-0.98658	-0.70238	-0.00058	-0.98658	-9.8273224182	0.5958128274000001	-0.0933200814	0.13897184119	-0.044593162228	0.0061086523599999994	-0.70238	-0.00058	-0.98658	3.29504	8.94368	10.35584	0.9946064643473971	44.545
12969	0	1394840	0	-1380	54	35	269	-157	49	-1211	-1	-1701	-1380	54	35	269	-157	49	-1211	-1	-1701	80	288	336	45.25	0.9944929681717246	43.84	0.99433506044905	4449.5048828125	-7309.857421875	37.09999847412109	12.2524995803833	1	0	0.0	0.0	0.0	0.0	0.6018844881254397	0.0	0.0	-0.3038049025956036	0.2512463729999999	0.3876372611999999	9.906285564	-0.1066439971327781	-0.6940783858299255	-0.1063389554619789	0.7039704322814941	6	44.82508138020833	-73.16429036458334	-9.906285564000001	0.3876372612	0.251246373	-9.906285564000001	0.3876372612	0.251246373	0.082161374242	-0.047952921025999996	0.014966198282	0.082161374242	-0.047952921025999996	0.014966198282	-0.70238	-0.00058	-0.98658	-0.70238	-0.00058	-0.98658	-9.906285564000001	0.3876372612	0.251246373	0.082161374242	-0.047952921025999996	0.014966198282	-0.70238	-0.00058	-0.98658	2.3536	8.47296	9.88512	0.9944140143103872	44.545
12970	0	1394947	0	-1368	31	26	360	-178	36	-1200	-20	-1696	-1368	31	26	360	-178	36	-1200	-20	-1696	128	288	432	45.25	0.9945916604983962	43.84	0.9944238835430546	4449.5048828125	-7309.857421875	37.09999847412109	12.260000228881836	1	0	0.0	0.0	0.0	0.0	0.6257991198893932	0.0	0.0	-0.2451026075912529	0.1866401627999999	0.2225325017999999	9.8201439504	0.3840610682964325	-0.5868194699287415	0.370468258857727	0.6090101599693298	6	44.82508138020833	-73.16429036458334	-9.8201439504	0.2225325018	0.1866401628	-9.8201439504	0.2225325018	0.1866401628	0.10995574248	-0.054367006004	0.010995574248	0.10995574248	-0.054367006004	0.010995574248	-0.696	-0.0116	-0.98368	-0.696	-0.0116	-0.98368	-9.8201439504	0.2225325018	0.1866401628	0.10995574248	-0.054367006004	0.010995574248	-0.696	-0.0116	-0.98368	3.76576	8.47296	12.70944	0.9945077720207254	44.545
12971	0	1395052	0	-1379	3	39	461	-234	4	-1200	-20	-1696	-1379	3	39	461	-234	4	-1200	-20	-1696	96	272	432	45.24	0.994522575869726	43.84	0.99433506044905	4449.5048828125	-7309.857421875	37.09999847412109	12.260000228881836	1	0	0.0	0.0	0.0	0.0	0.6215085849740274	0.0	0.0	-0.2198068741989913	0.2799602442	0.0215354034	9.8991070962	0.3841964900493622	-0.5867767333984375	0.3709087371826172	0.608697772026062	6	44.82508138020833	-73.16429036458334	-9.8991070962	0.0215354034	0.2799602442	-9.8991070962	0.0215354034	0.2799602442	0.14080443689799998	-0.071471232612	0.001221730472	0.14080443689799998	-0.071471232612	0.001221730472	-0.696	-0.0116	-0.98368	-0.696	-0.0116	-0.98368	-9.8991070962	0.0215354034	0.2799602442	0.14080443689799998	-0.071471232612	0.001221730472	-0.696	-0.0116	-0.98368	2.82432	8.00224	12.70944	0.994428818159388	44.540000000000006
12972	0	1395161	0	-1375	8	3	570	-254	-30	-1204	-16	-1673	-1375	8	3	570	-254	-30	-1204	-16	-1673	64	240	304	45.25	0.9945916604983962	43.84	0.994384406612386	4449.5048828125	-7309.857421875	37.09999847412109	12.260000228881836	1	0	0.0	0.0	0.0	0.0	0.5879498657425812	0.0	0.0	-0.2250955520898197	0.0215354034	0.0574277423999999	9.870393225	0.3838422298431396	-0.5876451134681702	0.3696882724761963	0.6088259816169739	6	44.82508138020833	-73.16429036458334	-9.870393225	0.0574277424	0.0215354034	-9.870393225	0.0574277424	0.0215354034	0.17409659226	-0.077579884972	-0.00916297854	0.17409659226	-0.077579884972	-0.00916297854	-0.69832	-0.00928	-0.97034	-0.69832	-0.00928	-0.97034	-9.870393225	0.0574277424	0.0215354034	0.17409659226	-0.077579884972	-0.00916297854	-0.69832	-0.00928	-0.97034	1.88288	7.0608	8.94368	0.9944880335553912	44.545
12973	0	1395267	0	-1377	50	-2	559	-237	-34	-1204	-16	-1673	-1377	50	-2	559	-237	-34	-1204	-16	-1673	96	272	416	45.25	0.9945916604983962	43.84	0.994325191216383	4449.5048828125	-7309.857421875	37.09999847412109	12.255000114440918	1	0	0.0	0.0	0.0	0.0	0.4892950903257702	0.0	0.0	-0.2995635367257949	-0.0143569355999999	0.3589233899999999	9.8847501606	0.3836615681648254	-0.5883461236953735	0.3682775497436523	0.6091176271438599	6	44.82508138020833	-73.16429036458334	-9.884750160600001	0.35892339	-0.0143569356	-9.884750160600001	0.35892339	-0.0143569356	0.170736833462	-0.072387530466	-0.010384709011999999	0.170736833462	-0.072387530466	-0.010384709011999999	-0.69832	-0.00928	-0.97034	-0.69832	-0.00928	-0.97034	-9.884750160600001	0.35892339	-0.0143569356	0.170736833462	-0.072387530466	-0.010384709011999999	-0.69832	-0.00928	-0.97034	2.82432	8.00224	12.23872	0.9944584258573896	44.545
12974	0	1395374	0	-1366	37	3	560	-203	-38	-1190	-22	-1684	-1366	37	3	560	-203	-38	-1190	-22	-1684	128	208	384	45.25	0.994690352825068	43.84	0.9942264988897114	4449.5048828125	-7309.857421875	37.09999847412109	12.258749961853027	1	0	0.0	0.0	0.0	0.0	0.3226812006319313	0.0	0.0	-0.431557034872737	0.0215354034	0.2656033086	9.8057870148	0.3835938572883606	-0.5885434150695801	0.3673809766769409	0.6095110774040222	6	44.82508138020833	-73.16429036458334	-9.8057870148	0.26560330860000003	0.0215354034	-9.8057870148	0.26560330860000003	0.0215354034	0.17104226607999998	-0.062002821454	-0.011606439484	0.17104226607999998	-0.062002821454	-0.011606439484	-0.6902	-0.01276	-0.97672	-0.6902	-0.01276	-0.97672	-9.8057870148	0.26560330860000003	0.0215354034	0.17104226607999998	-0.062002821454	-0.011606439484	-0.6902	-0.01276	-0.97672	3.76576	6.11936	11.29728	0.9944584258573896	44.545
12975	0	1395479	0	-1373	63	-9	452	-157	-32	-1190	-22	-1684	-1373	63	-9	452	-157	-32	-1190	-22	-1684	96	224	368	45.26	0.994759437453738	43.84	0.9944732297063904	4449.5048828125	-7309.857421875	37.09999847412109	12.25374984741211	1	0	0.0	0.0	0.0	0.0	0.1212563459075732	0.0	0.0	-0.5921015787258339	-0.0646062102	0.4522434714	9.8560362894	0.383144348859787	-0.588535726070404	0.3663409948348999	0.6104264259338379	6	44.82508138020833	-73.16429036458334	-9.8560362894	0.45224347140000004	-0.0646062102	-9.8560362894	0.45224347140000004	-0.0646062102	0.13805554333599998	-0.047952921025999996	-0.009773843776	0.13805554333599998	-0.047952921025999996	-0.009773843776	-0.6902	-0.01276	-0.97672	-0.6902	-0.01276	-0.97672	-9.8560362894	0.45224347140000004	-0.0646062102	0.13805554333599998	-0.047952921025999996	-0.009773843776	-0.6902	-0.01276	-0.97672	2.82432	6.59008	10.82656	0.9946163335800642	44.55
12976	0	1395588	0	-1363	45	29	422	-133	11	-1192	-13	-1644	-1363	45	29	422	-133	11	-1192	-13	-1644	128	240	384	45.26	0.9947100912904022	43.84	0.9944732297063904	4449.5048828125	-7309.857421875	37.09999847412109	12.260000228881836	1	0	0.0	0.0	0.0	0.0	-0.1183801932266648	0.0	0.0	-0.7689567518995687	0.2081755662	0.3230310509999999	9.784251611399998	0.3830296695232391	-0.5877745151519775	0.36697518825531	0.6108507513999939	6	44.82508138020833	-73.16429036458334	-9.7842516114	0.323031051	0.2081755662	-9.7842516114	0.323031051	0.2081755662	0.128892564796	-0.040622538193999996	0.003359758798	0.128892564796	-0.040622538193999996	0.003359758798	-0.69136	-0.00754	-0.95352	-0.69136	-0.00754	-0.95352	-9.7842516114	0.323031051	0.2081755662	0.128892564796	-0.040622538193999996	0.003359758798	-0.69136	-0.00754	-0.95352	3.76576	7.0608	11.29728	0.9945916604983963	44.55
12977	0	1395696	0	-1383	77	23	401	-150	32	-1192	-13	-1644	-1383	77	23	401	-150	32	-1192	-13	-1644	64	320	384	45.25	0.9947495682210707	43.84	0.9943745373797188	4449.5048828125	-7309.857421875	37.09999847412109	12.25374984741211	1	0	0.0	0.0	0.0	0.0	-0.3208119584206407	0.0	0.0	-0.8868025470839267	0.1651047594	0.5527420206	9.9278209674	0.3826224505901336	-0.5873687863349915	0.3674615323543548	0.6112038493156433	6	44.82508138020833	-73.16429036458334	-9.9278209674	0.5527420206	0.1651047594	-9.9278209674	0.5527420206	0.1651047594	0.12247847981799999	-0.0458148927	0.009773843776	0.12247847981799999	-0.0458148927	0.009773843776	-0.69136	-0.00754	-0.95352	-0.69136	-0.00754	-0.95352	-9.9278209674	0.5527420206	0.1651047594	0.12247847981799999	-0.0458148927	0.009773843776	-0.69136	-0.00754	-0.95352	1.88288	9.4144	11.29728	0.9945620528003948	44.545
12978	0	1395801	0	-1375	7	49	353	-179	45	-1203	-54	-1691	-1375	7	49	353	-179	45	-1203	-54	-1691	80	224	320	45.25	0.9946508758943992	43.83	0.9943646681470516	4449.5048828125	-7309.857421875	37.09999847412109	12.260000228881836	1	0	0.0	0.0	0.0	0.0	-0.3850691472395778	0.0	0.0	-0.8463814662268179	0.3517449222	0.0502492746	9.870393225	0.3829265534877777	-0.5867658853530884	0.3689464330673218	0.6106975674629211	6	44.82508138020833	-73.16429036458334	-9.870393225	0.050249274600000005	0.35174492220000003	-9.870393225	0.050249274600000005	0.35174492220000003	0.10781771415399999	-0.054672438622	0.01374446781	0.10781771415399999	-0.054672438622	0.01374446781	-0.69774	-0.03132	-0.98078	-0.69774	-0.03132	-0.98078	-9.870393225	0.050249274600000005	0.35174492220000003	0.10781771415399999	-0.054672438622	0.01374446781	-0.69774	-0.03132	-0.98078	2.3536	6.59008	9.4144	0.9945077720207254	44.54
12979	0	1395906	0	-1376	37	14	459	-224	31	-1203	-54	-1691	-1376	37	14	459	-224	31	-1203	-54	-1691	96	240	416	45.26	0.9947693066864052	43.84	0.994522575869726	4449.5048828125	-7309.857421875	37.09999847412109	12.260000228881836	1	0	0.0	0.0	0.0	0.0	-0.5188811867903766	0.0	0.0	-0.8848931044003976	0.1004985492	0.2656033086	9.877571692799998	0.3827904760837555	-0.5869473814964294	0.3693180084228515	0.610383927822113	6	44.82508138020833	-73.16429036458334	-9.8775716928	0.26560330860000003	0.10049854920000001	-9.8775716928	0.26560330860000003	0.10049854920000001	0.140193571662	-0.06841690643199999	0.009468411158	0.140193571662	-0.06841690643199999	0.009468411158	-0.69774	-0.03132	-0.98078	-0.69774	-0.03132	-0.98078	-9.8775716928	0.26560330860000003	0.10049854920000001	0.140193571662	-0.06841690643199999	0.009468411158	-0.69774	-0.03132	-0.98078	2.82432	7.0608	12.23872	0.9946459412780656	44.55
12980	0	1396016	0	-1376	24	4	440	-210	12	-1183	-27	-1672	-1376	24	4	440	-210	12	-1183	-27	-1672	96	224	368	45.25	0.9945916604983962	43.84	0.9944830989390576	4449.5048828125	-7309.857421875	37.20000076293945	12.25374984741211	1	0	0.0	0.0	0.0	0.0	-0.5636779675896476	0.0	0.0	-0.832969850015061	0.0287138711999999	0.1722832272	9.877571692799998	0.4078187048435211	-0.5733941197395325	0.3962777554988861	0.589802622795105	6	44.82508138020833	-73.16429036458334	-9.8775716928	0.1722832272	0.0287138712	-9.8775716928	0.1722832272	0.0287138712	0.13439035191999998	-0.06414084978	0.003665191416	0.13439035191999998	-0.06414084978	0.003665191416	-0.68614	-0.01566	-0.96976	-0.68614	-0.01566	-0.96976	-9.8775716928	0.1722832272	0.0287138712	0.13439035191999998	-0.06414084978	0.003665191416	-0.68614	-0.01566	-0.96976	2.82432	6.59008	10.82656	0.9945373797187269	44.545
12981	0	1396123	0	-1372	30	7	470	-205	-24	-1191	-29	-1705	-1372	30	7	470	-205	-24	-1191	-29	-1705	48	256	400	45.25	0.9946508758943992	43.84	0.994325191216383	4449.5048828125	-7309.857421875	37.20000076293945	12.260000228881836	1	0	0.0	0.0	0.0	0.0	-0.4896781145638523	0.0	0.0	-0.6631943621218954	0.0502492746	0.2153540339999999	9.8488578216	0.4077872335910797	-0.5735026001930237	0.3958428502082824	0.5900107622146606	6	44.82508138020833	-73.16429036458334	-9.848857821600001	0.215354034	0.050249274600000005	-9.848857821600001	0.215354034	0.050249274600000005	0.14355333046	-0.06261368669	-0.007330382832	0.14355333046	-0.06261368669	-0.007330382832	-0.69078	-0.01682	-0.9889	-0.69078	-0.01682	-0.9889	-9.848857821600001	0.215354034	0.050249274600000005	0.14355333046	-0.06261368669	-0.007330382832	-0.69078	-0.01682	-0.9889	1.41216	7.53152	11.768	0.9944880335553911	44.545
12982	0	1396229	0	-1369	45	10	480	-185	-23	-1191	-29	-1705	-1369	45	10	480	-185	-23	-1191	-29	-1705	96	288	368	45.25	0.9947495682210707	43.84	0.9944337527757215	4449.5048828125	-7309.857421875	37.20000076293945	12.25374984741211	1	0	0.0	0.0	0.0	0.0	-0.4467182579144983	0.0	0.0	-0.5454344503387577	0.0717846779999999	0.3230310509999999	9.8273224182	0.4077352285385132	-0.5734144449234009	0.3952560126781463	0.5905256867408752	6	44.82508138020833	-73.16429036458334	-9.8273224182	0.323031051	0.071784678	-9.8273224182	0.323031051	0.071784678	0.14660765664	-0.056505034329999995	-0.0070249502139999994	0.14660765664	-0.056505034329999995	-0.0070249502139999994	-0.69078	-0.01682	-0.9889	-0.69078	-0.01682	-0.9889	-9.8273224182	0.323031051	0.071784678	0.14660765664	-0.056505034329999995	-0.0070249502139999994	-0.69078	-0.01682	-0.9889	2.82432	8.47296	10.82656	0.9945916604983962	44.545
12983	0	1396338	0	-1377	68	9	479	-182	-26	-1196	-29	-1656	-1377	68	9	479	-182	-26	-1196	-29	-1656	144	208	320	45.26	0.9947199605230692	43.85	0.9945423143350604	4449.5048828125	-7309.857421875	37.20000076293945	12.258749961853027	1	0	0.0	0.0	0.0	0.0	-0.4998246949515163	0.0	0.0	-0.5365531844122992	0.0646062102	0.4881358104	9.8847501606	0.407660961151123	-0.573209285736084	0.3946806192398071	0.5911606550216675	6	44.82508138020833	-73.16429036458334	-9.884750160600001	0.48813581040000004	0.0646062102	-9.884750160600001	0.48813581040000004	0.0646062102	0.146302224022	-0.055588736475999996	-0.007941248068	0.146302224022	-0.055588736475999996	-0.007941248068	-0.69368	-0.01682	-0.96048	-0.69368	-0.01682	-0.96048	-9.884750160600001	0.48813581040000004	0.0646062102	0.146302224022	-0.055588736475999996	-0.007941248068	-0.69368	-0.01682	-0.96048	4.23648	6.11936	9.4144	0.9946311374290648	44.555
12984	0	1396445	0	-1366	64	6	415	-198	9	-1196	-29	-1656	-1366	64	6	415	-198	9	-1196	-29	-1656	128	240	384	45.25	0.9947989143844066	43.85	0.9944929681717246	4449.5048828125	-7309.857421875	37.20000076293945	12.260000228881836	1	0	0.0	0.0	0.0	0.0	-0.6032855303829774	0.0	0.0	-0.5786463150403787	0.0430708068	0.4594219391999999	9.8057870148	0.407732754945755	-0.5730492472648621	0.3946641087532043	0.5912773013114929	6	44.82508138020833	-73.16429036458334	-9.8057870148	0.4594219392	0.0430708068	-9.8057870148	0.4594219392	0.0430708068	0.12675453646999998	-0.060475658364	0.002748893562	0.12675453646999998	-0.060475658364	0.002748893562	-0.69368	-0.01682	-0.96048	-0.69368	-0.01682	-0.96048	-9.8057870148	0.4594219392	0.0430708068	0.12675453646999998	-0.060475658364	0.002748893562	-0.69368	-0.01682	-0.96048	3.76576	7.0608	11.29728	0.9946459412780656	44.55
12985	0	1396551	0	-1374	56	18	426	-201	44	-1197	-36	-1707	-1374	56	18	426	-201	44	-1197	-36	-1707	80	304	352	45.25	0.994690352825068	43.84	0.9944337527757215	4449.5048828125	-7309.857421875	37.20000076293945	12.255000114440918	1	0	0.0	0.0	0.0	0.0	-0.6796423802769419	0.0	0.0	-0.5865881592849442	0.1292124204	0.4019941968	9.8632147572	0.4076802432537079	-0.5730469822883606	0.395114541053772	0.5910148620605469	6	44.82508138020833	-73.16429036458334	-9.8632147572	0.40199419680000004	0.1292124204	-9.8632147572	0.40199419680000004	0.1292124204	0.130114295268	-0.061391956218	0.013439035192	0.130114295268	-0.061391956218	0.013439035192	-0.69426	-0.02088	-0.99006	-0.69426	-0.02088	-0.99006	-9.8632147572	0.40199419680000004	0.1292124204	0.130114295268	-0.061391956218	0.013439035192	-0.69426	-0.02088	-0.99006	2.3536	8.94368	10.35584	0.9945620528003948	44.545
12986	0	1396656	0	-1373	42	11	340	-201	45	-1197	-36	-1707	-1373	42	11	340	-201	45	-1197	-36	-1707	48	288	352	45.26	0.9947100912904022	43.84	0.994384406612386	4449.5048828125	-7309.857421875	37.20000076293945	12.2524995803833	1	0	0.0	0.0	0.0	0.0	-0.6234234702889233	0.0	0.0	-0.4606606255133662	0.0789631458	0.3014956475999999	9.8560362894	0.4078222811222076	-0.572976291179657	0.3958622217178345	0.5904847383499146	6	44.82508138020833	-73.16429036458334	-9.8560362894	0.3014956476	0.07896314580000001	-9.8560362894	0.3014956476	0.07896314580000001	0.10384709012	-0.061391956218	0.01374446781	0.10384709012	-0.061391956218	0.01374446781	-0.69426	-0.02088	-0.99006	-0.69426	-0.02088	-0.99006	-9.8560362894	0.3014956476	0.07896314580000001	0.10384709012	-0.061391956218	0.01374446781	-0.69426	-0.02088	-0.99006	1.41216	8.47296	10.35584	0.9945472489513941	44.55
12987	0	1396763	0	-1379	9	5	400	-186	30	-1223	-11	-1691	-1379	9	5	400	-186	30	-1223	-11	-1691	48	288	352	45.26	0.9945521835677276	43.85	0.9942857142857144	4449.5048828125	-7309.857421875	37.20000076293945	12.260000228881836	1	0	0.0	0.0	0.0	0.0	-0.4420591299906233	0.0	0.0	-0.2170717202219171	0.0358923389999999	0.0646062102	9.8991070962	0.4080350995063782	-0.5727989077568054	0.3966445326805115	0.589984655380249	6	44.82508138020833	-73.16429036458334	-9.8991070962	0.0646062102	0.035892339	-9.8991070962	0.0646062102	0.035892339	0.1221730472	-0.056810466947999995	0.00916297854	0.1221730472	-0.056810466947999995	0.00916297854	-0.70934	-0.00638	-0.98078	-0.70934	-0.00638	-0.98078	-9.8991070962	0.0646062102	0.035892339	0.1221730472	-0.056810466947999995	0.00916297854	-0.70934	-0.00638	-0.98078	1.41216	8.47296	10.35584	0.994418948926721	44.555
12988	0	1396873	0	-1377	34	1	502	-193	3	-1223	-11	-1691	-1377	34	1	502	-193	3	-1223	-11	-1691	128	208	336	45.27	0.994522575869726	43.84	0.994384406612386	4449.5048828125	-7309.857421875	37.20000076293945	12.2524995803833	1	0	0.0	0.0	0.0	0.0	-0.3116335365880405	0.0	0.0	-0.051505941683686	0.0071784677999999	0.2440679052	9.8847501606	0.4078749716281891	-0.5727968811988831	0.3966127038002014	0.5901188254356384	6	44.82508138020833	-73.16429036458334	-9.884750160600001	0.24406790520000002	0.0071784678	-9.884750160600001	0.24406790520000002	0.0071784678	0.15332717423599998	-0.058948495274	0.000916297854	0.15332717423599998	-0.058948495274	0.000916297854	-0.70934	-0.00638	-0.98078	-0.70934	-0.00638	-0.98078	-9.884750160600001	0.24406790520000002	0.0071784678	0.15332717423599998	-0.058948495274	0.000916297854	-0.70934	-0.00638	-0.98078	3.76576	6.11936	9.88512	0.9944534912410561	44.55500000000001
12989	0	1396978	0	-1372	37	8	485	-190	-21	-1189	-16	-1720	-1372	37	8	485	-190	-21	-1189	-16	-1720	128	240	400	45.25	0.9946508758943992	43.84	0.9944337527757215	4449.5048828125	-7309.857421875	37.20000076293945	12.260000228881836	1	0	0.0	0.0	0.0	0.0	-0.2535741953167955	0.0	0.0	0.0162264933170976	0.0574277423999999	0.2656033086	9.8488578216	0.3844574093818664	-0.5893771648406982	0.3757082521915436	0.6030510067939758	6	44.82508138020833	-73.16429036458334	-9.848857821600001	0.26560330860000003	0.0574277424	-9.848857821600001	0.26560330860000003	0.0574277424	0.14813481972999998	-0.058032197419999994	-0.006414084978	0.14813481972999998	-0.058032197419999994	-0.006414084978	-0.68962	-0.00928	-0.9976	-0.68962	-0.00928	-0.9976	-9.848857821600001	0.26560330860000003	0.0574277424	0.14813481972999998	-0.058032197419999994	-0.006414084978	-0.68962	-0.00928	-0.9976	3.76576	7.0608	11.768	0.9945423143350604	44.545
12990	0	1397087	0	-1368	51	8	496	-182	-50	-1189	-16	-1720	-1368	51	8	496	-182	-50	-1189	-16	-1720	144	224	336	45.26	0.9947199605230692	43.85	0.99433506044905	4449.5048828125	-7309.857421875	37.20000076293945	12.2524995803833	1	0	0.0	0.0	0.0	0.0	-0.2993926351170779	0.0	0.0	-0.0260821674059553	0.0574277423999999	0.3661018578	9.8201439504	0.3843497633934021	-0.5893334746360779	0.3746277689933777	0.6038339734077454	6	44.82508138020833	-73.16429036458334	-9.8201439504	0.36610185780000004	0.0574277424	-9.8201439504	0.36610185780000004	0.0574277424	0.151494578528	-0.055588736475999996	-0.0152716309	0.151494578528	-0.055588736475999996	-0.0152716309	-0.68962	-0.00928	-0.9976	-0.68962	-0.00928	-0.9976	-9.8201439504	0.36610185780000004	0.0574277424	0.151494578528	-0.055588736475999996	-0.0152716309	-0.68962	-0.00928	-0.9976	4.23648	6.59008	9.88512	0.9945275104860596	44.555
12991	0	1397194	0	-1379	70	16	453	-192	-18	-1212	-22	-1669	-1379	70	16	453	-192	-18	-1212	-22	-1669	112	288	400	45.26	0.9946607451270664	43.85	0.9944041450777202	4449.5048828125	-7309.857421875	37.20000076293945	12.261249542236328	1	0	0.0	0.0	0.0	0.0	-0.3170452229647273	0.0	0.0	-0.0351563445816463	0.1148554847999999	0.5024927459999999	9.8991070962	0.3842903971672058	-0.5893679857254028	0.3737401366233825	0.6043877601623535	6	44.82508138020833	-73.16429036458334	-9.8991070962	0.502492746	0.1148554848	-9.8991070962	0.502492746	0.1148554848	0.138360975954	-0.058643062656	-0.005497787124	0.138360975954	-0.058643062656	-0.005497787124	-0.70296	-0.01276	-0.96802	-0.70296	-0.01276	-0.96802	-9.8991070962	0.502492746	0.1148554848	0.138360975954	-0.058643062656	-0.005497787124	-0.70296	-0.01276	-0.96802	3.29504	8.47296	11.768	0.9945324451023934	44.555
12992	0	1397299	0	-1377	55	15	433	-206	9	-1212	-22	-1669	-1377	55	15	433	-206	9	-1212	-22	-1669	128	256	368	45.26	0.9947199605230692	43.84	0.9945324451023932	4449.5048828125	-7309.857421875	37.20000076293945	12.260000228881836	1	0	0.0	0.0	0.0	0.0	-0.381484946385431	0.0	0.0	-0.0896112523562574	0.1076770169999999	0.3948157289999999	9.8847501606	0.3842127621173858	-0.5896381139755249	0.3732693195343017	0.6044647097587585	6	44.82508138020833	-73.16429036458334	-9.884750160600001	0.394815729	0.107677017	-9.884750160600001	0.394815729	0.107677017	0.132252323594	-0.062919119308	0.002748893562	0.132252323594	-0.062919119308	0.002748893562	-0.70296	-0.01276	-0.96802	-0.70296	-0.01276	-0.96802	-9.884750160600001	0.394815729	0.107677017	0.132252323594	-0.062919119308	0.002748893562	-0.70296	-0.01276	-0.96802	3.76576	7.53152	10.82656	0.9946262028127313	44.55
12993	0	1397404	0	-1372	55	4	382	-207	59	-1210	-31	-1691	-1372	55	4	382	-207	59	-1210	-31	-1691	80	288	384	45.26	0.9946113989637304	43.84	0.9944337527757215	4449.5048828125	-7309.857421875	37.20000076293945	12.260000228881836	1	0	0.0	0.0	0.0	0.0	-0.3962375306290425	0.0	0.0	-0.0908483405482073	0.0287138711999999	0.3948157289999999	9.8488578216	0.3840915560722351	-0.5898608565330505	0.3735467195510864	0.6041529774665833	6	44.82508138020833	-73.16429036458334	-9.848857821600001	0.394815729	0.0287138712	-9.848857821600001	0.394815729	0.0287138712	0.11667526007599999	-0.063224551926	0.018020524462	0.11667526007599999	-0.063224551926	0.018020524462	-0.7018	-0.01798	-0.98078	-0.7018	-0.01798	-0.98078	-9.848857821600001	0.394815729	0.0287138712	0.11667526007599999	-0.063224551926	0.018020524462	-0.7018	-0.01798	-0.98078	2.3536	8.47296	11.29728	0.994522575869726	44.55
12994	0	1397512	0	-1378	37	-6	431	-194	57	-1210	-31	-1691	-1378	37	-6	431	-194	57	-1210	-31	-1691	96	176	368	45.26	0.9946015297310634	43.85	0.994453491241056	4449.5048828125	-7309.857421875	37.20000076293945	12.2524995803833	1	0	0.0	0.0	0.0	0.0	-0.415373604425837	0.0	0.0	-0.0963014407033431	-0.0430708068	0.2656033086	9.8919286284	0.3839048147201538	-0.5900289416313171	0.3742536008358001	0.6036697626113892	6	44.82508138020833	-73.16429036458334	-9.8919286284	0.26560330860000003	-0.0430708068	-9.8919286284	0.26560330860000003	-0.0430708068	0.13164145835799998	-0.059253927892	0.017409659225999997	0.13164145835799998	-0.059253927892	0.017409659225999997	-0.7018	-0.01798	-0.98078	-0.7018	-0.01798	-0.98078	-9.8919286284	0.26560330860000003	-0.0430708068	0.13164145835799998	-0.059253927892	0.017409659225999997	-0.7018	-0.01798	-0.98078	2.82432	5.17792	10.82656	0.9945275104860597	44.555
12995	0	1397617	0	-1372	34	6	397	-177	45	-1197	-36	-1723	-1372	34	6	397	-177	45	-1197	-36	-1723	80	256	400	45.26	0.9947693066864052	43.85	0.994453491241056	4449.5048828125	-7309.857421875	37.20000076293945	12.2524995803833	1	0	0.0	0.0	0.0	0.0	-0.376853349352153	0.0	0.0	-0.0429073611314692	0.0430708068	0.2440679052	9.8488578216	0.3838626444339752	-0.5899779796600342	0.3750583827495575	0.6032468676567078	6	44.82508138020833	-73.16429036458334	-9.848857821600001	0.24406790520000002	0.0430708068	-9.848857821600001	0.24406790520000002	0.0430708068	0.12125674934599999	-0.054061573386	0.01374446781	0.12125674934599999	-0.054061573386	0.01374446781	-0.69426	-0.02088	-0.99934	-0.69426	-0.02088	-0.99934	-9.848857821600001	0.24406790520000002	0.0430708068	0.12125674934599999	-0.054061573386	0.01374446781	-0.69426	-0.02088	-0.99934	2.3536	7.53152	11.768	0.9946113989637306	44.555
12996	0	1397726	0	-1379	22	11	481	-186	0	-1197	-36	-1723	-1379	22	11	486	-186	0	-1197	-36	-1723	64	224	368	45.26	0.9946015297310634	43.85	0.9944041450777202	4449.5048828125	-7309.857421875	37.20000076293945	12.260000228881836	1	0	0.0	0.0	0.0	0.0	-0.3067193580820933	0.0	0.0	0.0393997893685268	0.0789631458	0.1579262916	9.8991070962	0.3838077187538147	-0.589846134185791	0.3753713071346283	0.6032160520553589	6	44.82508138020833	-73.16429036458334	-9.8991070962	0.15792629160000002	0.07896314580000001	-9.8991070962	0.15792629160000002	0.07896314580000001	0.14691308925799998	-0.056810466947999995	0.0	0.14844025234799998	-0.056810466947999995	0.0	-0.69426	-0.02088	-0.99934	-0.69426	-0.02088	-0.99934	-9.8991070962	0.15792629160000002	0.07896314580000001	0.14767667080299998	-0.056810466947999995	0.0	-0.69426	-0.02088	-0.99934	1.88288	6.59008	10.82656	0.9945028374043918	44.555
12997	0	1397835	0	-1375	34	5	457	-188	-20	-1218	-25	-1707	-1375	34	5	457	-188	-20	-1218	-25	-1707	80	288	416	45.26	0.9947100912904022	43.85	0.994394275845053	4449.5048828125	-7309.857421875	37.20000076293945	12.2524995803833	1	0	0.0	0.0	0.0	0.0	-0.2838099740528128	0.0	0.0	0.0631555510866481	0.0358923389999999	0.2440679052	9.870393225	0.3837151825428009	-0.5898200273513794	0.374889075756073	0.6036003232002258	6	44.82508138020833	-73.16429036458334	-9.870393225	0.24406790520000002	0.035892339	-9.870393225	0.24406790520000002	0.035892339	0.13958270642599999	-0.057421332183999994	-0.0061086523599999994	0.13958270642599999	-0.057421332183999994	-0.0061086523599999994	-0.70644	-0.0145	-0.99006	-0.70644	-0.0145	-0.99006	-9.870393225	0.24406790520000002	0.035892339	0.13958270642599999	-0.057421332183999994	-0.0061086523599999994	-0.70644	-0.0145	-0.99006	2.3536	8.47296	12.23872	0.9945521835677276	44.555
12998	0	1397940	0	-1374	57	28	484	-210	-21	-1218	-25	-1707	-1374	57	28	484	-210	-21	-1218	-25	-1707	64	272	320	45.26	0.9944041450777202	43.85	0.99433506044905	4449.5048828125	-7309.857421875	37.20000076293945	12.258749961853027	1	0	0.0	0.0	0.0	0.0	-0.1664997381868909	0.0	0.0	0.187452529530601	0.2009970984	0.4091726645999999	9.8632147572	0.3439494669437408	-0.6077203750610352	0.3285899460315704	0.6359272599220276	6	44.82508138020833	-73.16429036458334	-9.8632147572	0.4091726646	0.20099709840000002	-9.8632147572	0.4091726646	0.20099709840000002	0.147829387112	-0.06414084978	-0.006414084978	0.147829387112	-0.06414084978	-0.006414084978	-0.70644	-0.0145	-0.99006	-0.70644	-0.0145	-0.99006	-9.8632147572	0.4091726646	0.20099709840000002	0.147829387112	-0.06414084978	-0.006414084978	-0.70644	-0.0145	-0.99006	1.88288	8.00224	9.4144	0.994369602763385	44.555
12999	0	1398045	0	-1375	53	10	471	-221	18	-1207	-44	-1678	-1375	53	10	471	-221	18	-1207	-44	-1678	96	272	432	45.26	0.9944633604737232	43.85	0.9943449296817172	4449.5048828125	-7309.857421875	37.20000076293945	12.258749961853027	1	0	0.0	0.0	0.0	0.0	0.0144057189248092	0.0	0.0	0.3637254162544313	0.0717846779999999	0.3804587934	9.870393225	0.3438110649585724	-0.6080297827720642	0.3280267119407654	0.6359970569610596	6	44.82508138020833	-73.16429036458334	-9.870393225	0.3804587934	0.071784678	-9.870393225	0.3804587934	0.071784678	0.143858763078	-0.067500608578	0.005497787124	0.143858763078	-0.067500608578	0.005497787124	-0.70006	-0.02552	-0.97324	-0.70006	-0.02552	-0.97324	-9.870393225	0.3804587934	0.071784678	0.143858763078	-0.067500608578	0.005497787124	-0.70006	-0.02552	-0.97324	2.82432	8.00224	12.70944	0.9944041450777201	44.555
13000	0	1398150	0	-1376	47	2	387	-206	27	-1185	-33	-1706	-1376	47	2	387	-206	27	-1185	-33	-1706	128	208	400	45.26	0.9945620528003948	43.85	0.9943449296817172	4449.5048828125	-7309.857421875	37.20000076293945	12.260000228881836	1	0	0.0	0.0	0.0	0.0	0.2308344369970742	0.0	0.0	0.5510699532359682	0.0143569355999999	0.3373879865999999	9.877571692799998	0.3437862396240234	-0.6081640124320984	0.3281919062137604	0.6357969641685486	6	44.82508138020833	-73.16429036458334	-9.8775716928	0.3373879866	0.0143569356	-9.8775716928	0.3373879866	0.0143569356	0.11820242316599999	-0.062919119308	0.008246680686	0.11820242316599999	-0.062919119308	0.008246680686	-0.6873	-0.01914	-0.98948	-0.6873	-0.01914	-0.98948	-9.8775716928	0.3373879866	0.0143569356	0.11820242316599999	-0.062919119308	0.008246680686	-0.6873	-0.01914	-0.98948	3.76576	6.11936	11.768	0.994453491241056	44.555
13001	0	1398257	0	-1369	40	8	393	-195	39	-1185	-33	-1706	-1369	40	8	393	-195	39	-1185	-33	-1706	112	224	336	45.26	0.9946113989637304	43.85	0.9941376757957068	4449.5048828125	-7309.857421875	37.20000076293945	12.261249542236328	1	0	0.0	0.0	0.0	0.0	0.3810801801104757	0.0	0.0	0.654214978893184	0.0574277423999999	0.2871387119999999	9.8273224182	0.3437967896461487	-0.6081926226615906	0.3286671042442322	0.6355183124542236	6	44.82508138020833	-73.16429036458334	-9.8273224182	0.287138712	0.0574277424	-9.8273224182	0.287138712	0.0574277424	0.12003501887399999	-0.05955936051	0.011911872102	0.12003501887399999	-0.05955936051	0.011911872102	-0.6873	-0.01914	-0.98948	-0.6873	-0.01914	-0.98948	-9.8273224182	0.287138712	0.0574277424	0.12003501887399999	-0.05955936051	0.011911872102	-0.6873	-0.01914	-0.98948	3.29504	6.59008	9.88512	0.9943745373797186	44.555
13002	0	1398362	0	-1375	28	3	446	-196	29	-1201	-36	-1695	-1375	28	3	446	-196	29	-1201	-36	-1695	64	240	384	45.26	0.9945620528003948	43.85	0.9944929681717246	4449.5048828125	-7309.857421875	37.20000076293945	12.260000228881836	1	0	0.0	0.0	0.0	0.0	0.4841983566772184	0.0	0.0	0.6941739803976319	0.0215354034	0.2009970984	9.870393225	0.3436134457588196	-0.6082385182380676	0.3290357589721679	0.6353827118873596	6	44.82508138020833	-73.16429036458334	-9.870393225	0.20099709840000002	0.0215354034	-9.870393225	0.20099709840000002	0.0215354034	0.136222947628	-0.059864793128	0.008857545922	0.136222947628	-0.059864793128	0.008857545922	-0.69658	-0.02088	-0.9831	-0.69658	-0.02088	-0.9831	-9.870393225	0.20099709840000002	0.0215354034	0.136222947628	-0.059864793128	0.008857545922	-0.69658	-0.02088	-0.9831	1.88288	7.0608	11.29728	0.9945275104860597	44.555
13003	0	1398472	0	-1372	28	13	420	-189	-12	-1201	-36	-1695	-1372	28	13	420	-189	-12	-1201	-36	-1695	112	320	400	45.27	0.9946212681963976	43.85	0.994453491241056	4449.5048828125	-7309.857421875	37.20000076293945	12.2524995803833	1	0	0.0	0.0	0.0	0.0	0.4908026002673436	0.0	0.0	0.6285945702359944	0.0933200813999999	0.2009970984	9.8488578216	0.3434316515922546	-0.6083506345748901	0.3287384212017059	0.6355275511741638	6	44.82508138020833	-73.16429036458334	-9.848857821600001	0.20099709840000002	0.0933200814	-9.848857821600001	0.20099709840000002	0.0933200814	0.12828169956	-0.057726764801999994	-0.003665191416	0.12828169956	-0.057726764801999994	-0.003665191416	-0.69658	-0.02088	-0.9831	-0.69658	-0.02088	-0.9831	-9.848857821600001	0.20099709840000002	0.0933200814	0.12828169956	-0.057726764801999994	-0.003665191416	-0.69658	-0.02088	-0.9831	3.29504	9.4144	11.768	0.9945373797187268	44.56
13004	0	1398581	0	-1376	23	6	495	-186	-17	-1193	-13	-1696	-1376	23	6	495	-186	-17	-1193	-13	-1696	144	176	384	45.26	0.9947199605230692	43.85	0.9943547989143844	4449.5048828125	-7309.857421875	37.20000076293945	12.258749961853027	1	0	0.0	0.0	0.0	0.0	0.4616551609049235	0.0	0.0	0.5347105875044127	0.0430708068	0.1651047594	9.877571692799998	0.3433801531791687	-0.6083557605743408	0.328255295753479	0.6358001232147217	6	44.82508138020833	-73.16429036458334	-9.8775716928	0.1651047594	0.0430708068	-9.8775716928	0.1651047594	0.0430708068	0.15118914591	-0.056810466947999995	-0.005192354505999999	0.15118914591	-0.056810466947999995	-0.005192354505999999	-0.69194	-0.00754	-0.98368	-0.69194	-0.00754	-0.98368	-9.8775716928	0.1651047594	0.0430708068	0.15118914591	-0.056810466947999995	-0.005192354505999999	-0.69194	-0.00754	-0.98368	4.23648	5.17792	11.29728	0.9945373797187268	44.555
13005	0	1398686	0	-1369	43	-11	505	-201	-23	-1193	-13	-1696	-1369	43	-11	505	-201	-23	-1193	-13	-1696	64	224	384	45.26	0.9946113989637304	43.85	0.9945620528003948	4449.5048828125	-7309.857421875	37.29999923706055	12.2524995803833	1	0	0.0	0.0	0.0	0.0	0.3195743591880157	0.0	0.0	0.3362441795677506	-0.0789631458	0.3086741153999999	9.8273224182	0.3429275751113891	-0.6086285710334778	0.3272401988506317	0.6363064646720886	6	44.82508138020833	-73.16429036458334	-9.8273224182	0.3086741154	-0.07896314580000001	-9.8273224182	0.3086741154	-0.07896314580000001	0.15424347209	-0.061391956218	-0.0070249502139999994	0.15424347209	-0.061391956218	-0.0070249502139999994	-0.69194	-0.00754	-0.98368	-0.69194	-0.00754	-0.98368	-9.8273224182	0.3086741154	-0.07896314580000001	0.15424347209	-0.061391956218	-0.0070249502139999994	-0.69194	-0.00754	-0.98368	1.88288	6.59008	11.29728	0.9945867258820626	44.555
13006	0	1398793	0	-1372	46	15	465	-193	-13	-1195	-34	-1683	-1372	46	15	465	-193	-13	-1195	-34	-1683	80	224	320	45.27	0.9947298297557364	43.85	0.9942857142857144	4449.5048828125	-7309.857421875	37.29999923706055	12.25749969482422	1	0	0.0	0.0	0.0	0.0	0.209799230330746	0.0	0.0	0.1932495184597679	0.1076770169999999	0.3302095188	9.8488578216	0.3427507281303406	-0.6086425185203552	0.3266218900680542	0.6367059350013733	6	44.82508138020833	-73.16429036458334	-9.848857821600001	0.3302095188	0.107677017	-9.848857821600001	0.3302095188	0.107677017	0.14202616736999998	-0.058948495274	-0.003970624034	0.14202616736999998	-0.058948495274	-0.003970624034	-0.6931	-0.01972	-0.97614	-0.6931	-0.01972	-0.97614	-9.848857821600001	0.3302095188	0.107677017	0.14202616736999998	-0.058948495274	-0.003970624034	-0.6931	-0.01972	-0.97614	2.3536	6.59008	9.4144	0.9945077720207254	44.56
13007	0	1398899	0	-1377	63	9	421	-186	15	-1195	-34	-1683	-1377	63	9	421	-186	15	-1195	-34	-1683	32	240	368	45.26	0.9945620528003948	43.85	0.994394275845053	4449.5048828125	-7309.857421875	37.29999923706055	12.2524995803833	1	0	0.0	0.0	0.0	0.0	0.2396585800901192	0.0	0.0	0.2072726095595915	0.0646062102	0.4522434714	9.8847501606	0.3425662815570831	-0.608637273311615	0.3265049457550049	0.6368702054023743	6	44.82508138020833	-73.16429036458334	-9.884750160600001	0.45224347140000004	0.0646062102	-9.884750160600001	0.45224347140000004	0.0646062102	0.128587132178	-0.056810466947999995	0.00458148927	0.128587132178	-0.056810466947999995	0.00458148927	-0.6931	-0.01972	-0.97614	-0.6931	-0.01972	-0.97614	-9.884750160600001	0.45224347140000004	0.0646062102	0.128587132178	-0.056810466947999995	0.00458148927	-0.6931	-0.01972	-0.97614	0.94144	7.0608	10.82656	0.9944781643227238	44.555
13008	0	1399006	0	-1378	55	3	402	-179	47	-1205	-29	-1688	-1378	55	3	402	-179	47	-1205	-29	-1688	96	272	368	45.27	0.9946804835924008	43.85	0.9944041450777202	4449.5048828125	-7309.857421875	37.29999923706055	12.258749961853027	1	0	0.0	0.0	0.0	0.0	0.2274632563957305	0.0	0.0	0.1753616636958939	0.0215354034	0.3948157289999999	9.8919286284	0.4816256761550903	-0.515119731426239	0.4607122540473938	0.5389180183410645	6	44.82508138020833	-73.16429036458334	-9.8919286284	0.394815729	0.0215354034	-9.8919286284	0.394815729	0.0215354034	0.122783912436	-0.054672438622	0.014355333045999999	0.122783912436	-0.054672438622	0.014355333045999999	-0.6989	-0.01682	-0.97904	-0.6989	-0.01682	-0.97904	-9.8919286284	0.394815729	0.0215354034	0.122783912436	-0.054672438622	0.014355333045999999	-0.6989	-0.01682	-0.97904	2.82432	8.00224	10.82656	0.9945423143350605	44.56
13009	0	1399112	0	-1374	39	6	398	-160	42	-1205	-29	-1688	-1374	39	6	398	-160	42	-1205	-29	-1688	48	240	368	45.26	0.9946113989637304	43.85	0.9941968911917098	4449.5048828125	-7309.857421875	37.29999923706055	12.2524995803833	1	0	0.0	0.0	0.0	0.0	0.2805393712601761	0.0	0.0	0.2184767992834251	0.0430708068	0.2799602442	9.8632147572	0.4815507233142853	-0.5148802995681763	0.4615123569965362	0.5385291576385498	6	44.82508138020833	-73.16429036458334	-9.8632147572	0.2799602442	0.0430708068	-9.8632147572	0.2799602442	0.0430708068	0.121562181964	-0.048869218879999995	0.012828169956	0.121562181964	-0.048869218879999995	0.012828169956	-0.6989	-0.01682	-0.97904	-0.6989	-0.01682	-0.97904	-9.8632147572	0.2799602442	0.0430708068	0.121562181964	-0.048869218879999995	0.012828169956	-0.6989	-0.01682	-0.97904	1.41216	7.0608	10.82656	0.9944041450777201	44.555
13010	0	1399220	0	-1384	27	35	387	-188	32	-1225	-19	-1686	-1384	27	35	387	-188	32	-1225	-19	-1686	160	272	416	45.27	0.9946212681963976	43.85	0.9943547989143844	4449.5048828125	-7309.857421875	37.29999923706055	12.25374984741211	1	0	0.0	0.0	0.0	0.0	0.2072642704519412	0.0	0.0	0.1272041718658673	0.2512463729999999	0.1938186305999999	9.9349994352	0.4815298020839691	-0.5146601796150208	0.4621268510818481	0.5382311940193176	6	44.82508138020833	-73.16429036458334	-9.9349994352	0.1938186306	0.251246373	-9.9349994352	0.1938186306	0.251246373	0.11820242316599999	-0.057421332183999994	0.009773843776	0.11820242316599999	-0.057421332183999994	0.009773843776	-0.7105	-0.01102	-0.97788	-0.7105	-0.01102	-0.97788	-9.9349994352	0.1938186306	0.251246373	0.11820242316599999	-0.057421332183999994	0.009773843776	-0.7105	-0.01102	-0.97788	4.7072	8.00224	12.23872	0.994488033555391	44.56
13011	0	1399331	0	-1378	20	11	455	-191	-5	-1225	-19	-1686	-1378	20	11	467	-191	-5	-1225	-19	-1686	144	320	400	45.26	0.9948186528497408	43.85	0.994394275845053	4449.5048828125	-7309.857421875	37.29999923706055	12.258749961853027	1	0	0.0	0.0	0.0	0.0	0.1247384278679923	0.0	0.0	0.0344434650873008	0.0789631458	0.1435693559999999	9.8919286284	0.4814803600311279	-0.5146700739860535	0.4619963765144348	0.5383779406547546	6	44.82508138020833	-73.16429036458334	-9.8919286284	0.143569356	0.07896314580000001	-9.8919286284	0.143569356	0.07896314580000001	0.13897184119	-0.058337630037999993	-0.0015271630899999999	0.142637032606	-0.058337630037999993	-0.0015271630899999999	-0.7105	-0.01102	-0.97788	-0.7105	-0.01102	-0.97788	-9.8919286284	0.143569356	0.07896314580000001	0.14080443689799998	-0.058337630037999993	-0.0015271630899999999	-0.7105	-0.01102	-0.97788	4.23648	9.4144	11.768	0.9946064643473969	44.555
13012	0	1399436	0	-1370	50	29	525	-187	-33	-1200	-41	-1687	-1370	50	29	525	-187	-33	-1200	-41	-1687	128	288	384	45.27	0.994522575869726	43.86	0.9944633604737232	4449.5048828125	-7309.857421875	37.29999923706055	12.2524995803833	1	0	0.0	0.0	0.0	0.0	0.093447025145912	0.0	0.0	0.0059556908907598	0.2081755662	0.3589233899999999	9.834500886	0.4812792241573334	-0.5147922039031982	0.4611572623252868	0.5391599535942078	6	44.82508138020833	-73.16429036458334	-9.834500886	0.35892339	0.2081755662	-9.834500886	0.35892339	0.2081755662	0.16035212445	-0.057115899565999995	-0.010079276394	0.16035212445	-0.057115899565999995	-0.010079276394	-0.696	-0.02378	-0.97846	-0.696	-0.02378	-0.97846	-9.834500886	0.35892339	0.2081755662	0.16035212445	-0.057115899565999995	-0.010079276394	-0.696	-0.02378	-0.97846	3.76576	8.47296	11.29728	0.9944929681717246	44.565
13013	0	1399543	0	-1379	49	16	479	-205	-39	-1200	-41	-1687	-1379	49	16	479	-205	-39	-1200	-41	-1687	112	304	288	45.26	0.9946706143597336	43.86	0.9944140143103872	4449.5048828125	-7309.857421875	37.29999923706055	12.260000228881836	1	0	0.0	0.0	0.0	0.0	0.0564187117818976	0.0	0.0	-0.0274575809575987	0.1148554847999999	0.3517449222	9.8991070962	0.4812061190605163	-0.5149953365325928	0.4601023197174072	0.5399317145347595	6	44.82508138020833	-73.16429036458334	-9.8991070962	0.35174492220000003	0.1148554848	-9.8991070962	0.35174492220000003	0.1148554848	0.146302224022	-0.06261368669	-0.011911872102	0.146302224022	-0.06261368669	-0.011911872102	-0.696	-0.02378	-0.97846	-0.696	-0.02378	-0.97846	-9.8991070962	0.35174492220000003	0.1148554848	0.146302224022	-0.06261368669	-0.011911872102	-0.696	-0.02378	-0.97846	3.29504	8.94368	8.47296	0.9945423143350605	44.56
13014	0	1399649	0	-1373	72	5	461	-223	-17	-1215	0	-1666	-1373	72	5	461	-223	-17	-1215	0	-1666	112	272	400	45.27	0.9946311374290648	43.85	0.9942561065877128	4449.5048828125	-7309.857421875	37.29999923706055	12.258749961853027	1	0	0.0	0.0	0.0	0.0	0.1164069390728508	0.0	0.0	0.0452131847507288	0.0358923389999999	0.5168496816	9.8560362894	0.4811618626117706	-0.5153263211250305	0.4590618014335632	0.5405408143997192	6	44.82508138020833	-73.16429036458334	-9.8560362894	0.5168496816	0.035892339	-9.8560362894	0.5168496816	0.035892339	0.14080443689799998	-0.068111473814	-0.005192354505999999	0.14080443689799998	-0.068111473814	-0.005192354505999999	-0.7047	0.0	-0.96628	-0.7047	0.0	-0.96628	-9.8560362894	0.5168496816	0.035892339	0.14080443689799998	-0.068111473814	-0.005192354505999999	-0.7047	0.0	-0.96628	3.29504	8.00224	11.768	0.9944436220083888	44.56
13015	0	1399756	0	-1374	57	11	424	-210	28	-1215	0	-1666	-1374	57	11	424	-210	28	-1215	0	-1666	144	224	336	45.27	0.9946804835924008	43.85	0.9942955835183814	4449.5048828125	-7309.857421875	37.29999923706055	12.25374984741211	1	0	0.0	0.0	0.0	0.0	0.1454865518870733	0.0	0.0	0.0757325866214673	0.0789631458	0.4091726645999999	9.8632147572	0.4811562895774841	-0.5155765414237976	0.4587854146957397	0.5405417680740356	6	44.82508138020833	-73.16429036458334	-9.8632147572	0.4091726646	0.07896314580000001	-9.8632147572	0.4091726646	0.07896314580000001	0.129503430032	-0.06414084978	0.008552113303999999	0.129503430032	-0.06414084978	0.008552113303999999	-0.7047	0.0	-0.96628	-0.7047	0.0	-0.96628	-9.8632147572	0.4091726646	0.07896314580000001	0.129503430032	-0.06414084978	0.008552113303999999	-0.7047	0.0	-0.96628	4.23648	6.59008	9.88512	0.9944880335553912	44.56
13016	0	1399862	0	-1374	66	-3	435	-182	43	-1222	-17	-1721	-1374	66	-3	435	-182	43	-1222	-17	-1721	144	272	352	45.26	0.9946113989637304	43.85	0.9943547989143844	4449.5048828125	-7309.857421875	37.29999923706055	12.2524995803833	1	0	0.0	0.0	0.0	0.0	0.1673091601160409	0.0	0.0	0.0943672689134411	-0.0215354034	0.4737788747999999	9.8632147572	0.4809389114379883	-0.5158237814903259	0.4589715600013733	0.5403413772583008	6	44.82508138020833	-73.16429036458334	-9.8632147572	0.4737788748	-0.0215354034	-9.8632147572	0.4737788748	-0.0215354034	0.13286318882999998	-0.055588736475999996	0.013133602574	0.13286318882999998	-0.055588736475999996	0.013133602574	-0.7087600000000001	-0.00986	-0.99818	-0.7087600000000001	-0.00986	-0.99818	-9.8632147572	0.4737788748	-0.0215354034	0.13286318882999998	-0.055588736475999996	0.013133602574	-0.7087600000000001	-0.00986	-0.99818	4.23648	8.00224	10.35584	0.9944830989390574	44.555
13017	0	1399969	0	-1368	38	3	394	-161	54	-1222	-17	-1721	-1368	38	3	394	-161	54	-1222	-17	-1721	112	272	384	45.27	0.9947298297557364	43.85	0.9944041450777202	4449.5048828125	-7309.857421875	37.400001525878906	12.258749961853027	1	0	0.0	0.0	0.0	0.0	0.1267631015589482	0.0	0.0	0.0435356948355513	0.0215354034	0.2727817763999999	9.8201439504	0.473707377910614	-0.5231142044067383	0.4606281816959381	0.5383071899414062	6	44.82508138020833	-73.16429036458334	-9.8201439504	0.2727817764	0.0215354034	-9.8201439504	0.2727817764	0.0215354034	0.120340451492	-0.049174651497999995	0.016493361372	0.120340451492	-0.049174651497999995	0.016493361372	-0.7087600000000001	-0.00986	-0.99818	-0.7087600000000001	-0.00986	-0.99818	-9.8201439504	0.2727817764	0.0215354034	0.120340451492	-0.049174651497999995	0.016493361372	-0.7087600000000001	-0.00986	-0.99818	3.29504	8.00224	11.29728	0.9945669874167283	44.56
13018	0	1400078	0	-1378	39	5	419	-174	34	-1205	-32	-1666	-1378	39	5	419	-174	34	-1205	-32	-1666	64	288	368	45.26	0.9946113989637304	43.85	0.9943547989143844	4449.5048828125	-7309.857421875	37.400001525878906	12.2524995803833	1	0	0.0	0.0	0.0	0.0	0.2065328307006278	0.0	0.0	0.1252628324287643	0.0358923389999999	0.2799602442	9.8919286284	0.4735364019870758	-0.522871732711792	0.461257666349411	0.5381540656089783	6	44.82508138020833	-73.16429036458334	-9.8919286284	0.2799602442	0.035892339	-9.8919286284	0.2799602442	0.035892339	0.12797626694199998	-0.053145275532	0.010384709011999999	0.12797626694199998	-0.053145275532	0.010384709011999999	-0.6989	-0.01856	-0.96628	-0.6989	-0.01856	-0.96628	-9.8919286284	0.2799602442	0.035892339	0.12797626694199998	-0.053145275532	0.010384709011999999	-0.6989	-0.01856	-0.96628	1.88288	8.47296	10.82656	0.9944830989390574	44.555
13019	0	1400183	0	-1376	33	23	390	-162	16	-1214	-8	-1675	-1376	33	23	390	-162	16	-1214	-8	-1675	96	240	368	45.27	0.9946311374290648	43.85	0.9943449296817172	4449.5048828125	-7309.857421875	37.400001525878906	12.258749961853027	1	0	0.0	0.0	0.0	0.0	0.2937229651980567	0.0	0.0	0.2051643264963538	0.1651047594	0.2368894373999999	9.877571692799998	0.4735872447490692	-0.5224766731262207	0.4617744386196136	0.5380498170852661	6	44.82508138020833	-73.16429036458334	-9.8775716928	0.2368894374	0.1651047594	-9.8775716928	0.2368894374	0.1651047594	0.11911872102	-0.049480084115999995	0.004886921888	0.11911872102	-0.049480084115999995	0.004886921888	-0.70412	-0.00464	-0.9715	-0.70412	-0.00464	-0.9715	-9.8775716928	0.2368894374	0.1651047594	0.11911872102	-0.049480084115999995	0.004886921888	-0.70412	-0.00464	-0.9715	2.82432	7.0608	10.82656	0.994488033555391	44.56
13020	0	1400292	0	-1377	9	44	483	-215	-12	-1214	-8	-1675	-1377	9	44	483	-215	-12	-1214	-8	-1675	160	240	416	45.27	0.9947298297557364	43.86	0.994522575869726	4449.5048828125	-7309.857421875	37.400001525878906	12.258749961853027	1	0	0.0	0.0	0.0	0.0	0.2158422889304037	0.0	0.0	0.1088164408845352	0.3158525832	0.0646062102	9.8847501606	0.4735463559627533	-0.5224674344062805	0.4614562392234802	0.5383676290512085	6	44.82508138020833	-73.16429036458334	-9.884750160600001	0.0646062102	0.31585258320000004	-9.884750160600001	0.0646062102	0.31585258320000004	0.147523954494	-0.06566801287	-0.003665191416	0.147523954494	-0.06566801287	-0.003665191416	-0.70412	-0.00464	-0.9715	-0.70412	-0.00464	-0.9715	-9.884750160600001	0.0646062102	0.31585258320000004	0.147523954494	-0.06566801287	-0.003665191416	-0.70412	-0.00464	-0.9715	4.7072	7.0608	12.23872	0.9946262028127313	44.565
13021	0	1400397	0	-1373	51	3	524	-250	-24	-1233	-16	-1692	-1373	51	3	524	-250	-24	-1233	-16	-1692	96	256	368	45.27	0.9946212681963976	43.85	0.9944633604737232	4449.5048828125	-7309.857421875	37.400001525878906	12.258749961853027	1	0	0.0	0.0	0.0	0.0	0.1988706579942484	0.0	0.0	0.0876510258588095	0.0215354034	0.3661018578	9.8560362894	0.4733677804470062	-0.5233758687973022	0.4597819447517395	0.5390744209289551	6	44.82508138020833	-73.16429036458334	-9.8560362894	0.36610185780000004	0.0215354034	-9.8560362894	0.36610185780000004	0.0215354034	0.160046691832	-0.0763581545	-0.007330382832	0.160046691832	-0.0763581545	-0.007330382832	-0.71514	-0.00928	-0.98136	-0.71514	-0.00928	-0.98136	-9.8560362894	0.36610185780000004	0.0215354034	0.160046691832	-0.0763581545	-0.007330382832	-0.71514	-0.00928	-0.98136	2.82432	7.53152	10.82656	0.9945423143350605	44.56
13022	0	1400504	0	-1382	43	8	471	-212	4	-1233	-16	-1692	-1382	43	8	471	-212	4	-1233	-16	-1692	128	224	384	45.27	0.994522575869726	43.85	0.9942561065877128	4449.5048828125	-7309.857421875	37.400001525878906	12.258749961853027	1	0	0.0	0.0	0.0	0.0	0.1216575243925279	0.0	0.0	0.0058952610925938	0.0574277423999999	0.3086741153999999	9.9206424996	0.4736919701099396	-0.5236697196960449	0.4590351581573486	0.5391405820846558	6	44.82508138020833	-73.16429036458334	-9.9206424996	0.3086741154	0.0574277424	-9.9206424996	0.3086741154	0.0574277424	0.143858763078	-0.064751715016	0.001221730472	0.143858763078	-0.064751715016	0.001221730472	-0.71514	-0.00928	-0.98136	-0.71514	-0.00928	-0.98136	-9.9206424996	0.3086741154	0.0574277424	0.143858763078	-0.064751715016	0.001221730472	-0.71514	-0.00928	-0.98136	3.76576	6.59008	11.29728	0.9943893412287195	44.56
13023	0	1400609	0	-1365	90	-9	452	-215	8	-1216	-19	-1679	-1365	90	-9	452	-215	8	-1216	-19	-1679	160	240	368	45.27	0.9945817912657292	43.86	0.9943153219837156	4449.5048828125	-7309.857421875	37.400001525878906	12.260000228881836	1	0	0.0	0.0	0.0	0.0	0.2059906232670555	0.0	0.0	0.0956906721493036	-0.0646062102	0.6460621019999999	9.798608547	0.4736857712268829	-0.5240527987480164	0.4583365321159363	0.539368212223053	6	44.82508138020833	-73.16429036458334	-9.798608547	0.646062102	-0.0646062102	-9.798608547	0.646062102	-0.0646062102	0.13805554333599998	-0.06566801287	0.002443460944	0.13805554333599998	-0.06566801287	0.002443460944	-0.70528	-0.01102	-0.97382	-0.70528	-0.01102	-0.97382	-9.798608547	0.646062102	-0.0646062102	0.13805554333599998	-0.06566801287	0.002443460944	-0.70528	-0.01102	-0.97382	4.7072	7.0608	10.82656	0.9944485566247224	44.565
13024	0	1400717	0	-1373	28	-8	364	-162	46	-1216	-19	-1679	-1373	28	-8	364	-162	46	-1216	-19	-1679	160	288	368	45.27	0.9946311374290648	43.85	0.9945127066370588	4449.5048828125	-7309.857421875	37.400001525878906	12.25374984741211	1	0	0.0	0.0	0.0	0.0	0.1779330843874597	0.0	0.0	0.0572149753511043	-0.0574277423999999	0.2009970984	9.8560362894	0.4738704860210418	-0.5238277316093445	0.4589694142341614	0.5388861894607544	6	44.82508138020833	-73.16429036458334	-9.8560362894	0.20099709840000002	-0.0574277424	-9.8560362894	0.20099709840000002	-0.0574277424	0.11117747295199999	-0.049480084115999995	0.014049900427999999	0.11117747295199999	-0.049480084115999995	0.014049900427999999	-0.70528	-0.01102	-0.97382	-0.70528	-0.01102	-0.97382	-9.8560362894	0.20099709840000002	-0.0574277424	0.11117747295199999	-0.049480084115999995	0.014049900427999999	-0.70528	-0.01102	-0.97382	4.7072	8.47296	10.82656	0.9945719220330618	44.56
13025	0	1400826	0	-1379	51	12	403	-144	38	-1208	-21	-1710	-1379	51	12	403	-144	38	-1208	-21	-1710	112	304	336	45.27	0.9946311374290648	43.85	0.994394275845053	4449.5048828125	-7309.857421875	37.400001525878906	12.2524995803833	1	0	0.0	0.0	0.0	0.0	0.2507077329360642	0.0	0.0	0.1309239251209887	0.0861416136	0.3661018578	9.8991070962	0.4735626578330993	-0.5235169529914856	0.4596252143383026	0.5388998985290527	6	44.82508138020833	-73.16429036458334	-9.8991070962	0.36610185780000004	0.0861416136	-9.8991070962	0.36610185780000004	0.0861416136	0.12308934505399999	-0.043982296992	0.011606439484	0.12308934505399999	-0.043982296992	0.011606439484	-0.70064	-0.01218	-0.9918	-0.70064	-0.01218	-0.9918	-9.8991070962	0.36610185780000004	0.0861416136	0.12308934505399999	-0.043982296992	0.011606439484	-0.70064	-0.01218	-0.9918	3.29504	8.94368	9.88512	0.9945127066370589	44.56
13026	0	1400931	0	-1367	36	26	359	-143	40	-1208	-21	-1710	-1367	36	26	359	-143	40	-1208	-21	-1710	160	208	320	45.27	0.9945817912657292	43.86	0.9943646681470516	4449.5048828125	-7309.857421875	37.400001525878906	12.258749961853027	1	0	0.0	0.0	0.0	0.0	0.2505240562341218	0.0	0.0	0.1236958447434452	0.1866401627999999	0.2584248408	9.8129654826	0.4734329283237457	-0.5228542685508728	0.4607191979885101	0.5387229919433594	6	44.82508138020833	-73.16429036458334	-9.812965482600001	0.2584248408	0.1866401628	-9.812965482600001	0.2584248408	0.1866401628	0.109650309862	-0.043676864374	0.012217304719999999	0.109650309862	-0.043676864374	0.012217304719999999	-0.70064	-0.01218	-0.9918	-0.70064	-0.01218	-0.9918	-9.812965482600001	0.2584248408	0.1866401628	0.109650309862	-0.043676864374	0.012217304719999999	-0.70064	-0.01218	-0.9918	4.7072	6.11936	9.4144	0.9944732297063904	44.565
13027	0	1401040	0	-1378	26	25	416	-175	9	-1244	8	-1692	-1378	26	25	416	-175	9	-1244	8	-1692	64	272	384	45.27	0.994522575869726	43.86	0.9944238835430546	4449.5048828125	-7309.857421875	37.400001525878906	12.2524995803833	1	0	0.0	0.0	0.0	0.0	0.2933211016247064	0.0	0.0	0.1603546775298084	0.1794616949999999	0.1866401627999999	9.8919286284	0.1360491514205932	-0.6831333041191101	0.1319728940725326	0.7052678465843201	6	44.82508138020833	-73.16429036458334	-9.8919286284	0.1866401628	0.179461695	-9.8919286284	0.1866401628	0.179461695	0.127059969088	-0.05345070815	0.002748893562	0.127059969088	-0.05345070815	0.002748893562	-0.72152	0.00464	-0.98136	-0.72152	0.00464	-0.98136	-9.8919286284	0.1866401628	0.179461695	0.127059969088	-0.05345070815	0.002748893562	-0.72152	0.00464	-0.98136	1.88288	8.00224	11.29728	0.9944732297063903	44.565
13028	0	1401145	0	-1377	18	38	557	-257	-52	-1244	8	-1692	-1377	18	38	557	-257	-52	-1244	8	-1692	80	320	400	45.27	0.994641006661732	43.86	0.9943646681470516	4449.5048828125	-7309.857421875	37.400001525878906	12.260000228881836	1	0	0.0	0.0	0.0	0.0	0.2185289884478167	0.0	0.0	0.0733100837503196	0.2727817763999999	0.1292124204	9.8847501606	0.1356542706489563	-0.6835580468177795	0.1303965002298355	0.7052255868911743	6	44.82508138020833	-73.16429036458334	-9.884750160600001	0.1292124204	0.2727817764	-9.884750160600001	0.1292124204	0.2727817764	0.17012596822599999	-0.078496182826	-0.015882496136	0.17012596822599999	-0.078496182826	-0.015882496136	-0.72152	0.00464	-0.98136	-0.72152	0.00464	-0.98136	-9.884750160600001	0.1292124204	0.2727817764	0.17012596822599999	-0.078496182826	-0.015882496136	-0.72152	0.00464	-0.98136	2.3536	9.4144	11.768	0.9945028374043918	44.565
13029	0	1401252	0	-1367	60	-19	534	-250	-62	-1224	-16	-1688	-1367	60	-19	534	-250	-62	-1224	-16	-1688	80	256	384	45.27	0.9946212681963976	43.85	0.9944041450777202	4449.5048828125	-7309.857421875	37.400001525878906	12.258749961853027	1	0	0.0	0.0	0.0	0.0	0.1380869775350672	0.0	0.0	-0.011829445139621	-0.1363908881999999	0.4307080679999999	9.8129654826	0.1350005716085434	-0.6844182014465332	0.1275237649679184	0.7050421237945557	6	44.82508138020833	-73.16429036458334	-9.812965482600001	0.430708068	-0.1363908882	-9.812965482600001	0.430708068	-0.1363908882	0.163101018012	-0.0763581545	-0.018936822316	0.163101018012	-0.0763581545	-0.018936822316	-0.70992	-0.00928	-0.97904	-0.70992	-0.00928	-0.97904	-9.812965482600001	0.430708068	-0.1363908882	0.163101018012	-0.0763581545	-0.018936822316	-0.70992	-0.00928	-0.97904	2.3536	7.53152	11.29728	0.9945127066370589	44.56
13030	0	1401357	0	-1371	37	-1	518	-211	-54	-1224	-16	-1688	-1371	37	-1	518	-211	-54	-1224	-16	-1688	144	304	368	45.27	0.9947396989884036	43.86	0.9944633604737232	4449.5048828125	-7309.857421875	37.400001525878906	12.260000228881836	1	0	0.0	0.0	0.0	0.0	-0.020630124536686	0.0	0.0	-0.1717721791690297	-0.0071784677999999	0.2656033086	9.8416793538	0.135011225938797	-0.6847259402275085	0.1256021708250045	0.7050861120223999	6	44.82508138020833	-73.16429036458334	-9.8416793538	0.26560330860000003	-0.0071784678	-9.8416793538	0.26560330860000003	-0.0071784678	0.158214096124	-0.064446282398	-0.016493361372	0.158214096124	-0.064446282398	-0.016493361372	-0.70992	-0.00928	-0.97904	-0.70992	-0.00928	-0.97904	-9.8416793538	0.26560330860000003	-0.0071784678	0.158214096124	-0.064446282398	-0.016493361372	-0.70992	-0.00928	-0.97904	4.23648	8.94368	10.82656	0.9946015297310634	44.565
13031	0	1401465	0	-1360	102	-19	465	-162	-1	-1214	-8	-1663	-1360	102	-19	465	-162	-1	-1214	-8	-1663	48	240	352	45.27	0.994522575869726	43.86	0.9943646681470516	4449.5048828125	-7309.857421875	37.400001525878906	12.2524995803833	1	0	0.0	0.0	0.0	0.0	-0.0751472451947794	0.0	0.0	-0.2025473839691902	-0.1363908881999999	0.7322037156	9.762716208	0.1346364021301269	-0.6847172379493713	0.1238568052649498	0.7054749727249146	6	44.82508138020833	-73.16429036458334	-9.762716208	0.7322037156000001	-0.1363908882	-9.762716208	0.7322037156000001	-0.1363908882	0.14202616736999998	-0.049480084115999995	-0.000305432618	0.14202616736999998	-0.049480084115999995	-0.000305432618	-0.70412	-0.00464	-0.96454	-0.70412	-0.00464	-0.96454	-9.762716208	0.7322037156000001	-0.1363908882	0.14202616736999998	-0.049480084115999995	-0.000305432618	-0.70412	-0.00464	-0.96454	1.41216	7.0608	10.35584	0.9944436220083888	44.565
13032	0	1401572	0	-1375	66	26	399	-129	82	-1214	-8	-1663	-1375	66	26	399	-129	82	-1214	-8	-1663	64	272	384	45.27	0.9945817912657292	43.85	0.9943547989143844	4449.5048828125	-7309.857421875	37.400001525878906	12.25749969482422	1	0	0.0	0.0	0.0	0.0	-0.0891796657325546	0.0	0.0	-0.191990556475085	0.1866401627999999	0.4737788747999999	9.870393225	0.1347291022539138	-0.6840407252311707	0.1247326657176017	0.7059590816497803	6	44.82508138020833	-73.16429036458334	-9.870393225	0.4737788748	0.1866401628	-9.870393225	0.4737788748	0.1866401628	0.12186761458199999	-0.039400807722	0.025045474675999997	0.12186761458199999	-0.039400807722	0.025045474675999997	-0.70412	-0.00464	-0.96454	-0.70412	-0.00464	-0.96454	-9.870393225	0.4737788748	0.1866401628	0.12186761458199999	-0.039400807722	0.025045474675999997	-0.70412	-0.00464	-0.96454	1.88288	8.00224	11.29728	0.9944682950900567	44.56
13033	0	1401679	0	-1375	79	22	325	-127	98	-1191	-19	-1665	-1375	79	22	325	-127	98	-1191	-19	-1665	128	288	320	45.27	0.9946311374290648	43.85	0.9944041450777202	4449.5048828125	-7309.857421875	37.400001525878906	12.251250267028809	1	0	0.0	0.0	0.0	0.0	-0.1133898182216194	0.0	0.0	-0.1907937576952447	0.1579262916	0.5670989562	9.870393225	0.1347298622131347	-0.6833558678627014	0.1264147609472274	0.7063228487968445	6	44.82508138020833	-73.16429036458334	-9.870393225	0.5670989562000001	0.15792629160000002	-9.870393225	0.5670989562000001	0.15792629160000002	0.09926560085	-0.038789942486	0.029932396564	0.09926560085	-0.038789942486	0.029932396564	-0.69078	-0.01102	-0.9657	-0.69078	-0.01102	-0.9657	-9.870393225	0.5670989562000001	0.15792629160000002	0.09926560085	-0.038789942486	0.029932396564	-0.69078	-0.01102	-0.9657	3.76576	8.47296	9.4144	0.9945176412533925	44.56
13034	0	1401788	0	-1374	28	20	291	-159	112	-1191	-19	-1665	-1374	28	20	291	-159	112	-1191	-19	-1665	96	272	352	45.27	0.994690352825068	43.86	0.994522575869726	4449.5048828125	-7309.857421875	37.400001525878906	12.256250381469728	1	0	0.0	0.0	0.0	0.0	-0.1112157928341689	0.0	0.0	-0.1627833136976605	0.1435693559999999	0.2009970984	9.8632147572	0.1352439671754837	-0.6828845739364624	0.129075139760971	0.7061992883682251	6	44.82508138020833	-73.16429036458334	-9.8632147572	0.20099709840000002	0.143569356	-9.8632147572	0.20099709840000002	0.143569356	0.08888089183799999	-0.048563786261999996	0.034208453215999995	0.08888089183799999	-0.048563786261999996	0.034208453215999995	-0.69078	-0.01102	-0.9657	-0.69078	-0.01102	-0.9657	-9.8632147572	0.20099709840000002	0.143569356	0.08888089183799999	-0.048563786261999996	0.034208453215999995	-0.69078	-0.01102	-0.9657	2.82432	8.00224	10.35584	0.9946064643473971	44.565
13035	0	1401894	0	-1376	12	28	349	-221	47	-1229	2	-1710	-1376	12	28	349	-221	47	-1229	2	-1710	128	288	336	45.27	0.994690352825068	43.86	0.9943646681470516	4449.5048828125	-7309.857421875	37.400001525878906	12.251250267028809	1	0	0.0	0.0	0.0	0.0	-0.1643909450997154	0.0	0.0	-0.1932383998945248	0.2009970984	0.0861416136	9.877571692799998	0.1359733194112777	-0.6829618215560913	0.1308819055557251	0.7056517004966736	6	44.82508138020833	-73.16429036458334	-9.8775716928	0.0861416136	0.20099709840000002	-9.8775716928	0.0861416136	0.20099709840000002	0.10659598368199999	-0.067500608578	0.014355333045999999	0.10659598368199999	-0.067500608578	0.014355333045999999	-0.71282	0.00116	-0.9918	-0.71282	0.00116	-0.9918	-9.8775716928	0.0861416136	0.20099709840000002	0.10659598368199999	-0.067500608578	0.014355333045999999	-0.71282	0.00116	-0.9918	3.76576	8.47296	9.88512	0.9945275104860598	44.565
13036	0	1402001	0	-1380	-7	9	552	-255	-65	-1229	2	-1710	-1380	-7	9	552	-255	-65	-1229	2	-1710	144	304	384	45.27	0.9946311374290648	43.85	0.9944041450777202	4449.5048828125	-7309.857421875	37.400001525878906	12.258749961853027	1	0	0.0	0.0	0.0	0.0	-0.1919020229429114	0.0	0.0	-0.1965942338184889	0.0646062102	-0.0502492746	9.906285564	-0.3990402519702911	-0.5822058320045471	-0.3946375250816345	0.5882725715637207	6	44.82508138020833	-73.16429036458334	-9.906285564000001	-0.050249274600000005	0.0646062102	-9.906285564000001	-0.050249274600000005	0.0646062102	0.16859880513599998	-0.07788531758999999	-0.01985312017	0.16859880513599998	-0.07788531758999999	-0.01985312017	-0.71282	0.00116	-0.9918	-0.71282	0.00116	-0.9918	-9.906285564000001	-0.050249274600000005	0.0646062102	0.16859880513599998	-0.07788531758999999	-0.01985312017	-0.71282	0.00116	-0.9918	4.23648	8.94368	11.29728	0.9945176412533925	44.56
13037	0	1402107	0	-1368	16	-17	686	-219	-120	-1228	8	-1670	-1368	16	-17	686	-219	-120	-1228	8	-1670	112	304	336	45.27	0.9946804835924008	43.86	0.9944140143103872	4449.5048828125	-7309.857421875	37.400001525878906	12.2524995803833	1	0	0.0	0.0	0.0	0.0	-0.2122753464381469	0.0	0.0	-0.1931882637638277	-0.1220339526	0.1148554847999999	9.8201439504	-0.4002218544483185	-0.581913948059082	-0.3974299728870392	0.5858737230300903	6	44.82508138020833	-73.16429036458334	-9.8201439504	0.1148554848	-0.12203395260000001	-9.8201439504	0.1148554848	-0.12203395260000001	0.20952677594799998	-0.066889743342	-0.03665191416	0.20952677594799998	-0.066889743342	-0.03665191416	-0.71224	0.00464	-0.9686	-0.71224	0.00464	-0.9686	-9.8201439504	0.1148554848	-0.12203395260000001	0.20952677594799998	-0.066889743342	-0.03665191416	-0.71224	0.00464	-0.9686	3.29504	8.94368	9.88512	0.994547248951394	44.565
13038	0	1402214	0	-1375	86	-10	517	-153	-90	-1228	8	-1670	-1375	86	-10	517	-153	-90	-1228	8	-1670	128	256	368	45.27	0.994690352825068	43.86	0.9944140143103872	4449.5048828125	-7309.857421875	37.400001525878906	12.258749961853027	1	0	0.0	0.0	0.0	0.0	-0.1587508704471737	0.0	0.0	-0.1187535006829946	-0.0717846779999999	0.6173482307999999	9.870393225	-0.4004493653774261	-0.5816134214401245	-0.4001688957214355	0.5841497778892517	6	44.82508138020833	-73.16429036458334	-9.870393225	0.6173482308	-0.071784678	-9.870393225	0.6173482308	-0.071784678	0.157908663506	-0.046731190554	-0.02748893562	0.157908663506	-0.046731190554	-0.02748893562	-0.71224	0.00464	-0.9686	-0.71224	0.00464	-0.9686	-9.870393225	0.6173482308	-0.071784678	0.157908663506	-0.046731190554	-0.02748893562	-0.71224	0.00464	-0.9686	3.76576	7.53152	10.82656	0.9945521835677276	44.565
13039	0	1402321	0	-1364	101	6	410	-163	-22	-1221	-40	-1659	-1364	101	6	410	-163	-22	-1221	-40	-1659	144	288	336	45.28	0.9946508758943992	43.87	0.994384406612386	4449.5048828125	-7309.857421875	37.400001525878906	12.258749961853027	1	0	0.0	0.0	0.0	0.0	-0.0722296710534935	0.0	0.0	-0.0116049915838068	0.0430708068	0.7250252478	9.7914300792	-0.3999902606010437	-0.5814154744148254	-0.4013867974281311	0.5838258266448975	6	44.82508138020833	-73.16429036458334	-9.7914300792	0.7250252478	0.0430708068	-9.7914300792	0.7250252478	0.0430708068	0.12522737338	-0.049785516733999995	-0.006719517596	0.12522737338	-0.049785516733999995	-0.006719517596	-0.70818	-0.0232	-0.96222	-0.70818	-0.0232	-0.96222	-9.7914300792	0.7250252478	0.0430708068	0.12522737338	-0.049785516733999995	-0.006719517596	-0.70818	-0.0232	-0.96222	4.23648	8.47296	9.88512	0.9945176412533926	44.575
13040	0	1402429	0	-1380	109	48	343	-166	108	-1222	-27	-1697	-1380	109	48	343	-166	108	-1222	-27	-1697	64	288	416	45.27	0.9946311374290648	43.86	0.9944140143103872	4449.5048828125	-7309.857421875	37.400001525878906	12.2524995803833	1	0	0.0	0.0	0.0	0.0	-0.0074579035724577	0.0	0.0	0.0604973547067233	0.3445664544	0.7824529901999999	9.906285564	-0.3997740745544433	-0.5808971524238586	-0.4012620747089386	0.5845749974250793	6	44.82508138020833	-73.16429036458334	-9.906285564000001	0.7824529902	0.3445664544	-9.906285564000001	0.7824529902	0.3445664544	0.10476338797399999	-0.050701814587999994	0.032986722744	0.10476338797399999	-0.050701814587999994	0.032986722744	-0.7087600000000001	-0.01566	-0.98426	-0.7087600000000001	-0.01566	-0.98426	-9.906285564000001	0.7824529902	0.3445664544	0.10476338797399999	-0.050701814587999994	0.032986722744	-0.7087600000000001	-0.01566	-0.98426	1.88288	8.47296	12.23872	0.994522575869726	44.565
13041	0	1402534	0	-1377	26	22	264	-196	129	-1222	-27	-1697	-1377	26	22	264	-196	129	-1222	-27	-1697	128	240	384	45.27	0.9946311374290648	43.87	0.9944830989390576	4449.5048828125	-7309.857421875	37.400001525878906	12.260000228881836	1	0	0.0	0.0	0.0	0.0	-0.0186628580400033	0.0	0.0	0.0489615713741098	0.1579262916	0.1866401627999999	9.8847501606	-0.3994075357913971	-0.5809890627861023	-0.3989897966384887	0.5862870216369629	6	44.82508138020833	-73.16429036458334	-9.884750160600001	0.1866401628	0.15792629160000002	-9.884750160600001	0.1866401628	0.15792629160000002	0.080634211152	-0.059864793128	0.039400807722	0.080634211152	-0.059864793128	0.039400807722	-0.7087600000000001	-0.01566	-0.98426	-0.7087600000000001	-0.01566	-0.98426	-9.884750160600001	0.1866401628	0.15792629160000002	0.080634211152	-0.059864793128	0.039400807722	-0.7087600000000001	-0.01566	-0.98426	3.76576	7.0608	11.29728	0.9945571181840612	44.57
13042	0	1402643	0	-1379	15	24	325	-211	98	-1222	-32	-1697	-1379	15	24	325	-211	98	-1222	-32	-1697	160	288	432	45.27	0.994690352825068	43.85	0.9944633604737232	4449.5048828125	-7309.857421875	37.400001525878906	12.25374984741211	1	0	0.0	0.0	0.0	0.0	-0.1380838131802269	0.0	0.0	-0.0753730007542435	0.1722832272	0.1076770169999999	9.8991070962	-0.3995125889778137	-0.5810500979423523	-0.397143006324768	0.5874077677726746	6	44.82508138020833	-73.16429036458334	-9.8991070962	0.107677017	0.1722832272	-9.8991070962	0.107677017	0.1722832272	0.09926560085	-0.064446282398	0.029932396564	0.09926560085	-0.064446282398	0.029932396564	-0.7087600000000001	-0.01856	-0.98426	-0.7087600000000001	-0.01856	-0.98426	-9.8991070962	0.107677017	0.1722832272	0.09926560085	-0.064446282398	0.029932396564	-0.7087600000000001	-0.01856	-0.98426	4.7072	8.47296	12.70944	0.9945768566493955	44.56
13043	0	1402750	0	-1372	15	6	281	-205	51	-1222	-32	-1697	-1372	15	6	281	-205	51	-1222	-32	-1697	96	256	368	45.27	0.9946804835924008	43.86	0.9943153219837156	4449.5048828125	-7309.857421875	37.400001525878906	12.260000228881836	1	0	0.0	0.0	0.0	0.0	-0.1507179792304055	0.0	0.0	-0.0785048626190058	0.0430708068	0.1076770169999999	9.8488578216	-0.3991613984107971	-0.5815362334251404	-0.3955498933792114	0.5882399678230286	6	44.82508138020833	-73.16429036458334	-9.848857821600001	0.107677017	0.0430708068	-9.848857821600001	0.107677017	0.0430708068	0.085826565658	-0.06261368669	0.015577063518	0.085826565658	-0.06261368669	0.015577063518	-0.7087600000000001	-0.01856	-0.98426	-0.7087600000000001	-0.01856	-0.98426	-9.848857821600001	0.107677017	0.0430708068	0.085826565658	-0.06261368669	0.015577063518	-0.7087600000000001	-0.01856	-0.98426	2.82432	7.53152	10.82656	0.9944979027880583	44.565
13044	0	1402856	0	-1370	-18	9	496	-196	-53	-1213	11	-1702	-1370	-18	9	496	-196	-53	-1213	11	-1702	96	256	368	45.27	0.994690352825068	43.87	0.9944830989390576	4449.5048828125	-7309.857421875	37.400001525878906	12.251250267028809	1	0	0.0	0.0	0.0	0.0	-0.1477325228830214	0.0	0.0	-0.0644535910917369	0.0646062102	-0.1292124204	9.834500886	-0.3988502025604248	-0.5818890929222107	-0.395348310470581	0.5882375240325928	6	44.82508138020833	-73.16429036458334	-9.834500886	-0.1292124204	0.0646062102	-9.834500886	-0.1292124204	0.0646062102	0.151494578528	-0.059864793128	-0.016187928754	0.151494578528	-0.059864793128	-0.016187928754	-0.70354	0.00638	-0.98716	-0.70354	0.00638	-0.98716	-9.834500886	-0.1292124204	0.0646062102	0.151494578528	-0.059864793128	-0.016187928754	-0.70354	0.00638	-0.98716	2.82432	7.53152	10.82656	0.9945867258820629	44.57
13045	0	1402963	0	-1378	19	24	790	-212	-99	-1213	11	-1702	-1378	19	24	790	-212	-99	-1213	11	-1702	128	224	368	45.28	0.9946015297310634	43.87	0.9945324451023932	4449.5048828125	-7309.857421875	37.400001525878906	12.2524995803833	1	0	0.0	0.0	0.0	0.0	-0.078698778286689	0.0	0.0	0.01717573331368	0.1722832272	0.1363908881999999	9.8919286284	-0.4004847407341003	-0.5810340046882629	-0.3985996544361114	0.5857728719711304	6	44.82508138020833	-73.16429036458334	-9.8919286284	0.1363908882	0.1722832272	-9.8919286284	0.1363908882	0.1722832272	0.24129176821999998	-0.064751715016	-0.030237829182	0.24129176821999998	-0.064751715016	-0.030237829182	-0.70354	0.00638	-0.98716	-0.70354	0.00638	-0.98716	-9.8919286284	0.1363908882	0.1722832272	0.24129176821999998	-0.064751715016	-0.030237829182	-0.70354	0.00638	-0.98716	3.76576	6.59008	10.82656	0.9945669874167283	44.575
13046	0	1403071	0	-1374	55	2	344	-167	-80	-1240	-44	-1696	-1374	55	2	344	-167	-80	-1240	-44	-1696	32	256	400	45.28	0.994759437453738	43.85	0.9944633604737232	4449.5048828125	-7309.857421875	37.400001525878906	12.2524995803833	1	0	0.0	0.0	0.0	0.0	-0.1730715006349052	0.0	0.0	-0.079236973050877	0.0143569355999999	0.3948157289999999	9.8632147572	0.2351367175579071	-0.660189688205719	0.2279442101716995	0.6759450435638428	6	44.82508138020833	-73.16429036458334	-9.8632147572	0.394815729	0.0143569356	-9.8632147572	0.394815729	0.0143569356	0.105068820592	-0.051007247206	-0.024434609439999998	0.105068820592	-0.051007247206	-0.024434609439999998	-0.7192	-0.02552	-0.98368	-0.7192	-0.02552	-0.98368	-9.8632147572	0.394815729	0.0143569356	0.105068820592	-0.051007247206	-0.024434609439999998	-0.7192	-0.02552	-0.98368	0.94144	7.53152	11.768	0.9946113989637306	44.565
13047	0	1403178	0	-1375	80	12	530	-190	-40	-1240	-44	-1696	-1375	80	12	530	-190	-40	-1240	-44	-1696	80	304	352	45.28	0.9947100912904022	43.86	0.9943745373797188	4449.5048828125	-7309.857421875	37.400001525878906	12.258749961853027	1	0	0.0	0.0	0.0	0.0	-0.1599071216931998	0.0	0.0	-0.0526976455162557	0.0861416136	0.5742774239999999	9.870393225	0.235466867685318	-0.6599373817443848	0.2270760983228683	0.6763686537742615	6	44.82508138020833	-73.16429036458334	-9.870393225	0.574277424	0.0861416136	-9.870393225	0.574277424	0.0861416136	0.16187928754	-0.058032197419999994	-0.012217304719999999	0.16187928754	-0.058032197419999994	-0.012217304719999999	-0.7192	-0.02552	-0.98368	-0.7192	-0.02552	-0.98368	-9.870393225	0.574277424	0.0861416136	0.16187928754	-0.058032197419999994	-0.012217304719999999	-0.7192	-0.02552	-0.98368	2.3536	8.94368	10.35584	0.9945423143350605	44.57
13048	0	1403283	0	-1372	114	31	400	-197	44	-1234	-52	-1717	-1372	114	31	400	-197	44	-1234	-52	-1717	96	272	384	45.27	0.9946311374290648	43.86	0.9944140143103872	4449.5048828125	-7309.857421875	37.400001525878906	12.251250267028809	1	0	0.0	0.0	0.0	0.0	-0.1802020033079194	0.0	0.0	-0.0606927738647701	0.2225325017999999	0.8183453291999999	9.8488578216	0.2353078573942184	-0.6600844264030457	0.2268415987491607	0.6763591766357422	6	44.82508138020833	-73.16429036458334	-9.848857821600001	0.8183453292	0.2225325018	-9.848857821600001	0.8183453292	0.2225325018	0.1221730472	-0.060170225746	0.013439035192	0.1221730472	-0.060170225746	0.013439035192	-0.71572	-0.03016	-0.99586	-0.71572	-0.03016	-0.99586	-9.848857821600001	0.8183453292	0.2225325018	0.1221730472	-0.060170225746	0.013439035192	-0.71572	-0.03016	-0.99586	2.82432	8.00224	11.29728	0.994522575869726	44.565
13049	0	1403390	0	-1372	31	9	358	-223	76	-1234	-52	-1717	-1372	31	8	370	-227	76	-1234	-52	-1717	48	224	400	45.28	0.9946508758943992	43.87	0.994384406612386	4449.5048828125	-7309.857421875	37.400001525878906	12.258749961853027	1	0	0.0	0.0	0.0	0.0	-0.1768254404278481	0.0	0.0	-0.0412967215605125	0.0610169763	0.2225325017999999	9.8488578216	0.2357740104198455	-0.6600937843322754	0.2287674695253372	0.6755384802818298	6	44.82508138020833	-73.16429036458334	-9.848857821600001	0.2225325018	0.0646062102	-9.848857821600001	0.2225325018	0.0574277424	0.109344877244	-0.068111473814	0.023212878968	0.11301006865999999	-0.069333204286	0.023212878968	-0.71572	-0.03016	-0.99586	-0.71572	-0.03016	-0.99586	-9.848857821600001	0.2225325018	0.0610169763	0.11117747295199999	-0.06872233905	0.023212878968	-0.71572	-0.03016	-0.99586	1.41216	6.59008	11.768	0.9945176412533926	44.575
13050	0	1403499	0	-1377	37	2	335	-175	77	-1228	-31	-1695	-1377	37	2	335	-175	77	-1228	-31	-1695	96	320	352	45.28	0.994759437453738	43.87	0.994384406612386	4449.5048828125	-7309.857421875	37.400001525878906	12.260000228881836	1	0	0.0	0.0	0.0	0.0	-0.2080237449136417	0.0	0.0	-0.0654613844146794	0.0143569355999999	0.2656033086	9.8847501606	0.2357629090547561	-0.6601721048355103	0.2302883863449096	0.6749488711357117	6	44.82508138020833	-73.16429036458334	-9.884750160600001	0.26560330860000003	0.0143569356	-9.884750160600001	0.26560330860000003	0.0143569356	0.10231992703	-0.05345070815	0.023518311586	0.10231992703	-0.05345070815	0.023518311586	-0.71224	-0.01798	-0.9831	-0.71224	-0.01798	-0.9831	-9.884750160600001	0.26560330860000003	0.0143569356	0.10231992703	-0.05345070815	0.023518311586	-0.71224	-0.01798	-0.9831	2.82432	9.4144	10.35584	0.994571922033062	44.575
13051	0	1403604	0	-1375	-17	5	373	-166	45	-1228	-31	-1695	-1375	-17	5	373	-166	45	-1228	-31	-1695	128	320	368	45.28	0.9946508758943992	43.86	0.994325191216383	4449.5048828125	-7309.857421875	37.400001525878906	12.260000228881836	1	0	0.0	0.0	0.0	0.0	-0.243112499700894	0.0	0.0	-0.086938748346514	0.0358923389999999	-0.1220339526	9.870393225	0.2363861501216888	-0.6597569584846497	0.2324118167161941	0.6744087338447571	6	44.82508138020833	-73.16429036458334	-9.870393225	-0.12203395260000001	0.035892339	-9.870393225	-0.12203395260000001	0.035892339	0.113926366514	-0.050701814587999994	0.01374446781	0.113926366514	-0.050701814587999994	0.01374446781	-0.71224	-0.01798	-0.9831	-0.71224	-0.01798	-0.9831	-9.870393225	-0.12203395260000001	0.035892339	0.113926366514	-0.050701814587999994	0.01374446781	-0.71224	-0.01798	-0.9831	3.76576	9.4144	10.82656	0.9944880335553911	44.57
13052	0	1403712	0	-1375	25	8	448	-183	-17	-1254	-31	-1705	-1375	25	8	448	-183	-17	-1254	-31	-1705	64	256	400	45.28	0.994700222057735	43.86	0.9943745373797188	4449.5048828125	-7309.857421875	37.400001525878906	12.2524995803833	1	0	0.0	0.0	0.0	0.0	-0.3031257665960243	0.0	0.0	-0.1334743918522342	0.0574277423999999	0.1794616949999999	9.870393225	0.2363697588443756	-0.6596257090568542	0.232551634311676	0.674494743347168	6	44.82508138020833	-73.16429036458334	-9.870393225	0.179461695	0.0574277424	-9.870393225	0.179461695	0.0574277424	0.13683381286399998	-0.055894169093999996	-0.005192354505999999	0.13683381286399998	-0.055894169093999996	-0.005192354505999999	-0.72732	-0.01798	-0.9889	-0.72732	-0.01798	-0.9889	-9.870393225	0.179461695	0.0574277424	0.13683381286399998	-0.055894169093999996	-0.005192354505999999	-0.72732	-0.01798	-0.9889	1.88288	7.53152	11.768	0.9945373797187269	44.57
13053	0	1403819	0	-1371	26	29	464	-206	-39	-1254	-31	-1705	-1371	26	29	464	-206	-39	-1254	-31	-1705	160	224	352	45.28	0.994700222057735	43.86	0.9943646681470516	4449.5048828125	-7309.857421875	37.400001525878906	12.2524995803833	1	0	0.0	0.0	0.0	0.0	-0.3079166648003495	0.0	0.0	-0.1162377746748335	0.2081755662	0.1866401627999999	9.8416793538	0.2366560101509094	-0.6595037579536438	0.2321038991212844	0.6746677756309509	6	44.82508138020833	-73.16429036458334	-9.8416793538	0.1866401628	0.2081755662	-9.8416793538	0.1866401628	0.2081755662	0.141720734752	-0.062919119308	-0.011911872102	0.141720734752	-0.062919119308	-0.011911872102	-0.72732	-0.01798	-0.9889	-0.72732	-0.01798	-0.9889	-9.8416793538	0.1866401628	0.2081755662	0.141720734752	-0.062919119308	-0.011911872102	-0.72732	-0.01798	-0.9889	4.7072	6.59008	10.35584	0.9945324451023934	44.57
13054	0	1403926	0	-1380	60	13	581	-213	-61	-1192	-15	-1681	-1380	60	13	581	-213	-61	-1192	-15	-1681	80	272	384	45.27	0.9945423143350604	43.87	0.9942857142857144	4449.5048828125	-7309.857421875	37.400001525878906	12.258749961853027	1	0	0.0	0.0	0.0	0.0	-0.2787617373739582	0.0	0.0	-0.0648225141913566	0.0933200813999999	0.4307080679999999	9.906285564	0.236567273736	-0.6597264409065247	0.2305614501237869	0.6750099658966064	6	44.82508138020833	-73.16429036458334	-9.906285564000001	0.430708068	0.0933200814	-9.906285564000001	0.430708068	0.0933200814	0.17745635105799998	-0.065057147634	-0.018631389698	0.17745635105799998	-0.065057147634	-0.018631389698	-0.69136	-0.0087	-0.97498	-0.69136	-0.0087	-0.97498	-9.906285564000001	0.430708068	0.0933200814	0.17745635105799998	-0.065057147634	-0.018631389698	-0.69136	-0.0087	-0.97498	2.3536	8.00224	11.29728	0.9944140143103875	44.57
13055	0	1404031	0	-1381	80	8	414	-202	-6	-1192	-15	-1681	-1381	80	8	414	-202	-6	-1192	-15	-1681	128	288	304	45.28	0.9946015297310634	43.86	0.9944238835430546	4449.5048828125	-7309.857421875	37.400001525878906	12.2524995803833	1	0	0.0	0.0	0.0	0.0	-0.1821204349650176	0.0	0.0	0.0455619970115265	0.0574277423999999	0.5742774239999999	9.913464031799998	0.5018437504768372	-0.4968422353267669	0.4727925062179565	0.5270369648933411	6	44.82508138020833	-73.16429036458334	-9.9134640318	0.574277424	0.0574277424	-9.9134640318	0.574277424	0.0574277424	0.126449103852	-0.061697388836	-0.001832595708	0.126449103852	-0.061697388836	-0.001832595708	-0.69136	-0.0087	-0.97498	-0.69136	-0.0087	-0.97498	-9.9134640318	0.574277424	0.0574277424	0.126449103852	-0.061697388836	-0.001832595708	-0.69136	-0.0087	-0.97498	3.76576	8.47296	8.94368	0.9945127066370589	44.57
13056	0	1404138	0	-1364	63	-10	462	-220	28	-1206	-32	-1715	-1364	63	-10	462	-220	28	-1206	-32	-1715	128	256	352	45.28	0.9946015297310634	43.86	0.9943745373797188	4449.5048828125	-7309.857421875	37.400001525878906	12.258749961853027	1	0	0.0	0.0	0.0	0.0	-0.140006740864397	0.0	0.0	0.0894688302660204	-0.0717846779999999	0.4522434714	9.7914300792	0.5021401643753052	-0.4968840181827545	0.4730170965194702	0.526513397693634	6	44.82508138020833	-73.16429036458334	-9.7914300792	0.45224347140000004	-0.071784678	-9.7914300792	0.45224347140000004	-0.071784678	0.141109869516	-0.06719517595999999	0.008552113303999999	0.141109869516	-0.06719517595999999	0.008552113303999999	-0.69948	-0.01856	-0.9947	-0.69948	-0.01856	-0.9947	-9.7914300792	0.45224347140000004	-0.071784678	0.141109869516	-0.06719517595999999	0.008552113303999999	-0.69948	-0.01856	-0.9947	3.76576	7.53152	10.35584	0.9944880335553912	44.57
13057	0	1404247	0	-1370	63	2	335	-154	73	-1206	-32	-1715	-1370	63	2	335	-154	73	-1206	-32	-1715	80	224	400	45.28	0.9946508758943992	43.87	0.994384406612386	4449.5048828125	-7309.857421875	37.400001525878906	12.260000228881836	1	0	0.0	0.0	0.0	0.0	-0.0532873619058863	0.0	0.0	0.1729468720547342	0.0143569355999999	0.4522434714	9.834500886	0.5021495819091797	-0.4967135787010193	0.4740959107875824	0.5256943106651306	6	44.82508138020833	-73.16429036458334	-9.834500886	0.45224347140000004	0.0143569356	-9.834500886	0.45224347140000004	0.0143569356	0.10231992703	-0.047036623172	0.022296581114	0.10231992703	-0.047036623172	0.022296581114	-0.69948	-0.01856	-0.9947	-0.69948	-0.01856	-0.9947	-9.834500886	0.45224347140000004	0.0143569356	0.10231992703	-0.047036623172	0.022296581114	-0.69948	-0.01856	-0.9947	2.3536	6.59008	11.768	0.9945176412533926	44.575
13058	0	1404352	0	-1368	28	1	379	-165	67	-1225	-21	-1671	-1368	28	1	379	-165	67	-1225	-21	-1671	96	320	384	45.28	0.9946113989637304	43.86	0.994325191216383	4449.5048828125	-7309.857421875	37.400001525878906	12.258749961853027	1	0	0.0	0.0	0.0	0.0	0.0609831347434594	0.0	0.0	0.277485750241221	0.0071784677999999	0.2009970984	9.8201439504	0.5025159120559692	-0.4959405958652496	0.4760859310626983	0.5242738127708435	6	44.82508138020833	-73.16429036458334	-9.8201439504	0.20099709840000002	0.0071784678	-9.8201439504	0.20099709840000002	0.0071784678	0.115758962222	-0.050396381969999994	0.020463985405999998	0.115758962222	-0.050396381969999994	0.020463985405999998	-0.7105	-0.01218	-0.96918	-0.7105	-0.01218	-0.96918	-9.8201439504	0.20099709840000002	0.0071784678	0.115758962222	-0.050396381969999994	0.020463985405999998	-0.7105	-0.01218	-0.96918	2.82432	9.4144	11.29728	0.9944682950900567	44.57
13059	0	1404457	0	-1377	35	20	350	-142	43	-1226	-13	-1704	-1377	35	20	350	-142	43	-1226	-13	-1704	80	320	320	45.28	0.9944140143103872	43.87	0.9942264988897114	4449.5048828125	-7309.857421875	37.400001525878906	12.25749969482422	1	0	0.0	0.0	0.0	0.0	0.2771043112584343	0.0	0.0	0.4759060968494596	0.1435693559999999	0.2512463729999999	9.8847501606	0.5025308728218079	-0.4952168762683868	0.477576196193695	0.523587703704834	6	44.82508138020833	-73.16429036458334	-9.884750160600001	0.251246373	0.143569356	-9.884750160600001	0.251246373	0.143569356	0.1069014163	-0.043371431756	0.013133602574	0.1069014163	-0.043371431756	0.013133602574	-0.71108	-0.00754	-0.98832	-0.71108	-0.00754	-0.98832	-9.884750160600001	0.251246373	0.143569356	0.1069014163	-0.043371431756	0.013133602574	-0.71108	-0.00754	-0.98832	2.3536	9.4144	9.4144	0.9943202566000493	44.575
13060	0	1404566	0	-1374	8	37	457	-183	-6	-1226	-13	-1704	-1374	8	37	457	-183	-6	-1226	-13	-1704	64	272	416	45.28	0.9945127066370588	43.86	0.9943745373797188	4449.5048828125	-7309.857421875	37.400001525878906	12.258749961853027	1	0	0.0	0.0	0.0	0.0	0.2541301575423566	0.0	0.0	0.4104588400446275	0.2656033086	0.0574277423999999	9.8632147572	0.5029054880142212	-0.4944783747196197	0.4785859584808349	0.5230034589767456	6	44.82508138020833	-73.16429036458334	-9.8632147572	0.0574277424	0.26560330860000003	-9.8632147572	0.0574277424	0.26560330860000003	0.13958270642599999	-0.055894169093999996	-0.001832595708	0.13958270642599999	-0.055894169093999996	-0.001832595708	-0.71108	-0.00754	-0.98832	-0.71108	-0.00754	-0.98832	-9.8632147572	0.0574277424	0.26560330860000003	0.13958270642599999	-0.055894169093999996	-0.001832595708	-0.71108	-0.00754	-0.98832	1.88288	8.00224	12.23872	0.9944436220083888	44.57
13061	0	1404674	0	-1378	5	18	524	-215	-47	-1240	-19	-1686	-1381	7	15	538	-216	-52	-1240	-19	-1686	112	272	384	45.28	0.9948087836170738	43.86	0.9944633604737232	4449.5048828125	-7309.857421875	37.400001525878906	12.2524995803833	1	0	0.0	0.0	0.0	0.0	0.1998250977181138	0.0	0.0	0.3137310835598944	0.1184447186999999	0.0430708068	9.9026963301	0.5031774044036865	-0.4943432211875915	0.4782557189464569	0.5231717824935913	6	44.82508138020833	-73.16429036458334	-9.8919286284	0.035892339	0.1292124204	-9.9134640318	0.050249274600000005	0.107677017	0.160046691832	-0.06566801287	-0.014355333045999999	0.164322748484	-0.065973445488	-0.015882496136	-0.7192	-0.01102	-0.97788	-0.7192	-0.01102	-0.97788	-9.9026963301	0.0430708068	0.1184447187	0.162184720158	-0.065820729179	-0.015118914591	-0.7192	-0.01102	-0.97788	3.29504	8.00224	11.29728	0.9946360720453985	44.57
13062	0	1404779	0	-1381	40	1	511	-241	-70	-1240	-19	-1686	-1381	40	1	511	-241	-70	-1240	-19	-1686	48	224	368	45.27	0.994690352825068	43.86	0.9945324451023932	4449.5048828125	-7309.857421875	37.400001525878906	12.2524995803833	1	0	0.0	0.0	0.0	0.0	0.0927750970389628	0.0	0.0	0.1736303757081946	0.0071784677999999	0.2871387119999999	9.913464031799998	0.5029525756835938	-0.4951147735118866	0.4763343632221222	0.5244097709655762	6	44.82508138020833	-73.16429036458334	-9.9134640318	0.287138712	0.0071784678	-9.9134640318	0.287138712	0.0071784678	0.15607606779799998	-0.07360926093799999	-0.021380283259999997	0.15607606779799998	-0.07360926093799999	-0.021380283259999997	-0.7192	-0.01102	-0.97788	-0.7192	-0.01102	-0.97788	-9.9134640318	0.287138712	0.0071784678	0.15607606779799998	-0.07360926093799999	-0.021380283259999997	-0.7192	-0.01102	-0.97788	1.41216	6.59008	10.82656	0.9946113989637306	44.565
13063	0	1404886	0	-1373	61	-2	447	-207	-13	-1216	-50	-1670	-1373	61	-2	447	-207	-13	-1216	-50	-1670	48	288	304	45.28	0.9946508758943992	43.87	0.9944830989390576	4449.5048828125	-7309.857421875	37.400001525878906	12.258749961853027	1	0	0.0	0.0	0.0	0.0	0.0847909357129201	0.0	0.0	0.1491121375110922	-0.0143569355999999	0.4378865358	9.8560362894	0.5034125447273254	-0.4952829480171203	0.4755036234855652	0.524563729763031	6	44.82508138020833	-73.16429036458334	-9.8560362894	0.43788653580000003	-0.0143569356	-9.8560362894	0.43788653580000003	-0.0143569356	0.136528380246	-0.063224551926	-0.003970624034	0.136528380246	-0.063224551926	-0.003970624034	-0.70528	-0.029	-0.9686	-0.70528	-0.029	-0.9686	-9.8560362894	0.43788653580000003	-0.0143569356	0.136528380246	-0.063224551926	-0.003970624034	-0.70528	-0.029	-0.9686	1.41216	8.47296	8.94368	0.9945669874167284	44.575
13064	0	1404991	0	-1370	103	-1	532	-188	12	-1216	-50	-1670	-1370	103	-1	532	-188	12	-1216	-50	-1670	128	288	368	45.28	0.9945620528003948	43.87	0.9944929681717246	4449.5048828125	-7309.857421875	37.5	12.258749961853027	1	0	0.0	0.0	0.0	0.0	0.0762184580128575	0.0	0.0	0.1294478273849583	-0.0071784677999999	0.7393821834	9.834500886	0.4911141693592071	-0.5069113373756409	0.4687850177288055	0.5311200022697449	6	44.82508138020833	-73.16429036458334	-9.834500886	0.7393821834000001	-0.0071784678	-9.834500886	0.7393821834000001	-0.0071784678	0.16249015277599999	-0.057421332183999994	0.003665191416	0.16249015277599999	-0.057421332183999994	0.003665191416	-0.70528	-0.029	-0.9686	-0.70528	-0.029	-0.9686	-9.834500886	0.7393821834000001	-0.0071784678	0.16249015277599999	-0.057421332183999994	0.003665191416	-0.70528	-0.029	-0.9686	3.76576	8.47296	10.82656	0.9945275104860597	44.575
13065	0	1405100	0	-1374	62	10	290	-133	75	-1220	-32	-1671	-1374	62	10	290	-133	75	-1220	-32	-1671	96	240	400	45.29	0.9947199605230692	43.86	0.9943745373797188	4449.5048828125	-7309.857421875	37.5	12.258749961853027	1	0	0.0	0.0	0.0	0.0	0.0193733114311165	0.0	0.0	0.0586217983361165	0.0717846779999999	0.4450650035999999	9.8632147572	0.4912281334400177	-0.5061367750167847	0.470476359128952	0.530256986618042	6	44.82508138020833	-73.16429036458334	-9.8632147572	0.4450650036	0.071784678	-9.8632147572	0.4450650036	0.071784678	0.08857545922	-0.040622538193999996	0.02290744635	0.08857545922	-0.040622538193999996	0.02290744635	-0.7076	-0.01856	-0.96918	-0.7076	-0.01856	-0.96918	-9.8632147572	0.4450650036	0.071784678	0.08857545922	-0.040622538193999996	0.02290744635	-0.7076	-0.01856	-0.96918	2.82432	7.0608	11.768	0.994547248951394	44.575
13066	0	1405205	0	-1376	30	11	372	-150	59	-1220	-32	-1671	-1376	30	11	372	-150	59	-1220	-32	-1671	112	272	384	45.28	0.9947100912904022	43.87	0.9944436220083888	4449.5048828125	-7309.857421875	37.5	12.25749969482422	1	0	0.0	0.0	0.0	0.0	-0.0455479158449412	0.0	0.0	-0.0110033699086522	0.0789631458	0.2153540339999999	9.877571692799998	0.4914644956588745	-0.5051153302192688	0.4727896451950073	0.5289530158042908	6	44.82508138020833	-73.16429036458334	-9.8775716928	0.215354034	0.07896314580000001	-9.8775716928	0.215354034	0.07896314580000001	0.11362093389599999	-0.0458148927	0.018020524462	0.11362093389599999	-0.0458148927	0.018020524462	-0.7076	-0.01856	-0.96918	-0.7076	-0.01856	-0.96918	-9.8775716928	0.215354034	0.07896314580000001	0.11362093389599999	-0.0458148927	0.018020524462	-0.7076	-0.01856	-0.96918	3.29504	8.00224	11.29728	0.9945768566493955	44.575
13067	0	1405315	0	-1380	21	41	344	-165	57	-1243	-9	-1698	-1380	21	41	344	-165	57	-1243	-9	-1698	112	256	368	45.28	0.9946508758943992	43.87	0.9942857142857144	4449.5048828125	-7309.857421875	37.5	12.2524995803833	1	0	0.0	0.0	0.0	0.0	0.0131884330123977	0.0	0.0	0.0553283007299881	0.2943171798	0.1507478237999999	9.906285564	0.4915949404239654	-0.5044291615486145	0.4745510518550873	0.5279081463813782	6	44.82508138020833	-73.16429036458334	-9.906285564000001	0.1507478238	0.2943171798	-9.906285564000001	0.1507478238	0.2943171798	0.105068820592	-0.050396381969999994	0.017409659225999997	0.105068820592	-0.050396381969999994	0.017409659225999997	-0.72094	-0.00522	-0.98484	-0.72094	-0.00522	-0.98484	-9.906285564000001	0.1507478238	0.2943171798	0.105068820592	-0.050396381969999994	0.017409659225999997	-0.72094	-0.00522	-0.98484	3.29504	7.53152	10.82656	0.9944682950900567	44.575
13068	0	1405423	0	-1377	21	28	408	-206	19	-1243	-9	-1698	-1377	21	28	408	-206	19	-1243	-9	-1698	112	256	384	45.28	0.9946015297310634	43.87	0.9944436220083888	4449.5048828125	-7309.857421875	37.5	12.2524995803833	1	0	0.0	0.0	0.0	0.0	-0.05703784004933	0.0	0.0	-0.0149069695730846	0.2009970984	0.1507478237999999	9.8847501606	0.4921800196170807	-0.5037849545478821	0.4759654700756073	0.5267033576965332	6	44.82508138020833	-73.16429036458334	-9.884750160600001	0.1507478238	0.20099709840000002	-9.884750160600001	0.1507478238	0.20099709840000002	0.124616508144	-0.062919119308	0.005803219742	0.124616508144	-0.062919119308	0.005803219742	-0.72094	-0.00522	-0.98484	-0.72094	-0.00522	-0.98484	-9.884750160600001	0.1507478238	0.20099709840000002	0.124616508144	-0.062919119308	0.005803219742	-0.72094	-0.00522	-0.98484	3.29504	7.53152	11.29728	0.994522575869726	44.575
13069	0	1405528	0	-1375	13	9	456	-223	-32	-1206	-28	-1728	-1375	13	9	456	-223	-32	-1206	-28	-1728	128	320	320	45.28	0.9946113989637304	43.86	0.9944238835430546	4449.5048828125	-7309.857421875	37.5	12.258749961853027	1	0	0.0	0.0	0.0	0.0	-0.1165708506158272	0.0	0.0	-0.0674585541964374	0.0646062102	0.0933200813999999	9.870393225	0.4927538931369781	-0.5034683346748352	0.4763329029083252	0.5261371731758118	6	44.82508138020833	-73.16429036458334	-9.870393225	0.0933200814	0.0646062102	-9.870393225	0.0933200814	0.0646062102	0.13927727380799998	-0.068111473814	-0.009773843776	0.13927727380799998	-0.068111473814	-0.009773843776	-0.69948	-0.01624	-1.00224	-0.69948	-0.01624	-1.00224	-9.870393225	0.0933200814	0.0646062102	0.13927727380799998	-0.068111473814	-0.009773843776	-0.69948	-0.01624	-1.00224	3.76576	9.4144	9.4144	0.9945176412533925	44.57
13070	0	1405635	0	-1367	26	20	636	-247	-63	-1206	-28	-1728	-1367	26	20	636	-247	-63	-1206	-28	-1728	48	272	368	45.28	0.9946113989637304	43.87	0.994394275845053	4449.5048828125	-7309.857421875	37.5	12.251250267028809	1	0	0.0	0.0	0.0	0.0	0.0164529046927869	0.0	0.0	0.0784425324010098	0.1435693559999999	0.1866401627999999	9.8129654826	0.4925757944583893	-0.504279613494873	0.4747864902019501	0.5269241333007812	6	44.82508138020833	-73.16429036458334	-9.812965482600001	0.1866401628	0.143569356	-9.812965482600001	0.1866401628	0.143569356	0.19425514504799998	-0.07544185664599999	-0.019242254934	0.19425514504799998	-0.07544185664599999	-0.019242254934	-0.69948	-0.01624	-1.00224	-0.69948	-0.01624	-1.00224	-9.812965482600001	0.1866401628	0.143569356	0.19425514504799998	-0.07544185664599999	-0.019242254934	-0.69948	-0.01624	-1.00224	1.41216	8.00224	10.82656	0.9945028374043917	44.575
13071	0	1405740	0	-1371	89	-18	420	-201	-37	-1235	-31	-1729	-1371	89	-18	420	-201	-37	-1235	-31	-1729	16	224	400	45.28	0.9946113989637304	43.87	0.994394275845053	4449.5048828125	-7309.857421875	37.5	12.258749961853027	1	0	0.0	0.0	0.0	0.0	0.0524926903744369	0.0	0.0	0.1091352118716911	-0.1292124204	0.6388836341999999	9.8416793538	0.4925235509872436	-0.5046637058258057	0.4735854566097259	0.5276855230331421	6	44.82508138020833	-73.16429036458334	-9.8416793538	0.6388836342	-0.1292124204	-9.8416793538	0.6388836342	-0.1292124204	0.12828169956	-0.061391956218	-0.011301006866	0.12828169956	-0.061391956218	-0.011301006866	-0.7163	-0.01798	-1.00282	-0.7163	-0.01798	-1.00282	-9.8416793538	0.6388836342	-0.1292124204	0.12828169956	-0.061391956218	-0.011301006866	-0.7163	-0.01798	-1.00282	0.47072	6.59008	11.768	0.9945028374043917	44.575
13072	0	1405850	0	-1359	31	9	465	-200	-41	-1235	-31	-1729	-1359	31	9	465	-200	-41	-1235	-31	-1729	96	272	368	45.28	0.9946508758943992	43.87	0.994394275845053	4449.5048828125	-7309.857421875	37.5	12.2524995803833	1	0	0.0	0.0	0.0	0.0	-0.0413109153987841	0.0	0.0	0.0060192347405996	0.0646062102	0.2225325017999999	9.7555377402	0.4930480718612671	-0.5041074752807617	0.473760575056076	0.5275701880455017	6	44.82508138020833	-73.16429036458334	-9.755537740200001	0.2225325018	0.0646062102	-9.755537740200001	0.2225325018	0.0646062102	0.14202616736999998	-0.0610865236	-0.012522737337999999	0.14202616736999998	-0.0610865236	-0.012522737337999999	-0.7163	-0.01798	-1.00282	-0.7163	-0.01798	-1.00282	-9.755537740200001	0.2225325018	0.0646062102	0.14202616736999998	-0.0610865236	-0.012522737337999999	-0.7163	-0.01798	-1.00282	2.82432	8.00224	10.82656	0.994522575869726	44.575
13073	0	1405955	0	-1373	103	-4	429	-157	41	-1202	-13	-1674	-1373	103	-4	429	-157	41	-1202	-13	-1674	128	208	384	45.29	0.9944732297063904	43.87	0.9942955835183814	4449.5048828125	-7309.857421875	37.5	12.258749961853027	1	0	0.0	0.0	0.0	0.0	-0.0480067917672658	0.0	0.0	0.0046459546363677	-0.0287138711999999	0.7393821834	9.8560362894	0.4928820431232452	-0.5038339495658875	0.474042534828186	0.5277332663536072	6	44.82508138020833	-73.16429036458334	-9.8560362894	0.7393821834000001	-0.0287138712	-9.8560362894	0.7393821834000001	-0.0287138712	0.131030593122	-0.047952921025999996	0.012522737337999999	0.131030593122	-0.047952921025999996	0.012522737337999999	-0.69716	-0.00754	-0.97092	-0.69716	-0.00754	-0.97092	-9.8560362894	0.7393821834000001	-0.0287138712	0.131030593122	-0.047952921025999996	0.012522737337999999	-0.69716	-0.00754	-0.97092	3.76576	6.11936	11.29728	0.9943844066123859	44.58
13074	0	1406065	0	-1381	17	10	311	-146	66	-1202	-13	-1674	-1381	17	10	311	-146	66	-1202	-13	-1674	80	208	368	45.28	0.9945620528003948	43.87	0.9942264988897114	4449.5048828125	-7309.857421875	37.5	12.2524995803833	1	0	0.0	0.0	0.0	0.0	-0.0051899973634868	0.0	0.0	0.0559809330165151	0.0717846779999999	0.1220339526	9.913464031799998	0.5016435980796814	-0.4961549043655395	0.4713847637176513	0.5291318893432617	6	44.82508138020833	-73.16429036458334	-9.9134640318	0.12203395260000001	0.071784678	-9.9134640318	0.12203395260000001	0.071784678	0.094989544198	-0.044593162228	0.020158552788	0.094989544198	-0.044593162228	0.020158552788	-0.69716	-0.00754	-0.97092	-0.69716	-0.00754	-0.97092	-9.9134640318	0.12203395260000001	0.071784678	0.094989544198	-0.044593162228	0.020158552788	-0.69716	-0.00754	-0.97092	2.3536	6.11936	10.82656	0.994394275845053	44.575
13075	0	1406172	0	-1370	44	20	356	-177	83	-1232	-41	-1705	-1370	44	20	356	-177	83	-1232	-41	-1705	160	288	400	45.29	0.9946212681963976	43.86	0.9942758450530472	4449.5048828125	-7309.857421875	37.5	12.258749961853027	1	0	0.0	0.0	0.0	0.0	0.115828365377818	0.0	0.0	0.1782000575413028	0.1435693559999999	0.3158525832	9.834500886	0.5016775131225586	-0.4959313571453094	0.4728851020336151	0.5279693007469177	6	44.82508138020833	-73.16429036458334	-9.834500886	0.31585258320000004	0.143569356	-9.834500886	0.31585258320000004	0.143569356	0.108734012008	-0.054061573386	0.025350907293999997	0.108734012008	-0.054061573386	0.025350907293999997	-0.71456	-0.02378	-0.9889	-0.71456	-0.02378	-0.9889	-9.834500886	0.31585258320000004	0.143569356	0.108734012008	-0.054061573386	0.025350907293999997	-0.71456	-0.02378	-0.9889	4.7072	8.47296	11.768	0.9944485566247224	44.575
13076	0	1406277	0	-1378	13	22	273	-200	56	-1232	-41	-1705	-1378	13	22	273	-200	56	-1232	-41	-1705	112	256	368	45.28	0.9946508758943992	43.87	0.9944041450777202	4449.5048828125	-7309.857421875	37.59999847412109	12.2524995803833	1	0	0.0	0.0	0.0	0.0	0.110596538680604	0.0	0.0	0.1579600181378345	0.1579262916	0.0933200813999999	9.8919286284	0.5024138689041138	-0.4952252209186554	0.4749345481395721	0.5260890126228333	6	44.82508138020833	-73.16429036458334	-9.8919286284	0.0933200814	0.15792629160000002	-9.8919286284	0.0933200814	0.15792629160000002	0.083383104714	-0.0610865236	0.017104226607999998	0.083383104714	-0.0610865236	0.017104226607999998	-0.71456	-0.02378	-0.9889	-0.71456	-0.02378	-0.9889	-9.8919286284	0.0933200814	0.15792629160000002	0.083383104714	-0.0610865236	0.017104226607999998	-0.71456	-0.02378	-0.9889	3.29504	7.53152	10.82656	0.9945275104860597	44.575
13077	0	1406385	0	-1374	-3	23	499	-222	-6	-1226	-30	-1689	-1374	-3	23	499	-222	-6	-1226	-30	-1689	128	240	400	45.29	0.994522575869726	43.87	0.9942857142857144	4449.5048828125	-7309.857421875	37.59999847412109	12.258749961853027	1	0	0.0	0.0	0.0	0.0	0.1042863348170361	0.0	0.0	0.1413624104687822	0.1651047594	-0.0215354034	9.8632147572	0.5030907988548279	-0.4949558973312378	0.4756492078304291	0.5250486731529236	6	44.82508138020833	-73.16429036458334	-9.8632147572	-0.0215354034	0.1651047594	-9.8632147572	-0.0215354034	0.1651047594	0.152410876382	-0.06780604119599999	-0.001832595708	0.152410876382	-0.06780604119599999	-0.001832595708	-0.71108	-0.0174	-0.97962	-0.71108	-0.0174	-0.97962	-9.8632147572	-0.0215354034	0.1651047594	0.152410876382	-0.06780604119599999	-0.001832595708	-0.71108	-0.0174	-0.97962	3.76576	7.0608	11.768	0.9944041450777202	44.58
13078	0	1406490	0	-1377	13	18	714	-249	-66	-1223	-29	-1705	-1377	13	18	714	-249	-66	-1223	-29	-1705	144	272	368	45.28	0.9946508758943992	43.87	0.9944929681717246	4449.5048828125	-7309.857421875	37.59999847412109	12.25749969482422	1	0	0.0	0.0	0.0	0.0	0.1248673002955464	0.0	0.0	0.1503373773389569	0.1292124204	0.0933200813999999	9.8847501606	0.5028616189956665	-0.4958077669143677	0.4740937352180481	0.5258708000183105	6	44.82508138020833	-73.16429036458334	-9.884750160600001	0.0933200814	0.1292124204	-9.884750160600001	0.0933200814	0.1292124204	0.21807888925199997	-0.07605272188199999	-0.020158552788	0.21807888925199997	-0.07605272188199999	-0.020158552788	-0.70934	-0.01682	-0.9889	-0.70934	-0.01682	-0.9889	-9.884750160600001	0.0933200814	0.1292124204	0.21807888925199997	-0.07605272188199999	-0.020158552788	-0.70934	-0.01682	-0.9889	4.23648	8.00224	10.82656	0.9945719220330619	44.575
13079	0	1406597	0	-1375	111	-12	568	-211	-50	-1223	-29	-1705	-1375	111	-12	568	-211	-50	-1223	-29	-1705	160	288	336	45.28	0.9945521835677276	43.87	0.994384406612386	4449.5048828125	-7309.857421875	37.59999847412109	12.258749961853027	1	0	0.0	0.0	0.0	0.0	0.0866338874226531	0.0	0.0	0.0970232240380938	-0.0861416136	0.7968099258	9.870393225	0.5027007460594177	-0.4965921640396118	0.4722462892532348	0.5269455313682556	6	44.82508138020833	-73.16429036458334	-9.870393225	0.7968099258	-0.0861416136	-9.870393225	0.7968099258	-0.0861416136	0.173485727024	-0.064446282398	-0.0152716309	0.173485727024	-0.064446282398	-0.0152716309	-0.70934	-0.01682	-0.9889	-0.70934	-0.01682	-0.9889	-9.870393225	0.7968099258	-0.0861416136	0.173485727024	-0.064446282398	-0.0152716309	-0.70934	-0.01682	-0.9889	4.7072	8.47296	9.88512	0.9944682950900567	44.575
13080	0	1406708	0	-1372	48	-10	439	-186	-46	-1215	-13	-1683	-1372	48	-10	439	-186	-46	-1215	-13	-1683	64	256	432	45.28	0.9946607451270664	43.87	0.9942955835183814	4449.5048828125	-7309.857421875	37.5	12.258749961853027	1	0	0.0	0.0	0.0	0.0	0.1140097354413526	0.0	0.0	0.1189859298948319	-0.0717846779999999	0.3445664544	9.8488578216	0.5034171938896179	-0.4959757924079895	0.4722338318824768	0.5268533825874329	6	44.82508138020833	-73.16429036458334	-9.848857821600001	0.3445664544	-0.071784678	-9.848857821600001	0.3445664544	-0.071784678	0.134084919302	-0.056810466947999995	-0.014049900427999999	0.134084919302	-0.056810466947999995	-0.014049900427999999	-0.7047	-0.00754	-0.97614	-0.7047	-0.00754	-0.97614	-9.848857821600001	0.3445664544	-0.071784678	0.134084919302	-0.056810466947999995	-0.014049900427999999	-0.7047	-0.00754	-0.97614	1.88288	7.53152	12.70944	0.9944781643227238	44.575
13081	0	1406814	0	-1369	105	-6	429	-157	25	-1215	-13	-1683	-1369	105	-6	429	-157	25	-1215	-13	-1683	96	240	352	45.28	0.9944140143103872	43.87	0.9942264988897114	4449.5048828125	-7309.857421875	37.5	12.251250267028809	1	0	0.0	0.0	0.0	0.0	0.2358013644512959	0.0	0.0	0.2374529673511029	-0.0430708068	0.7537391189999999	9.8273224182	0.5033015608787537	-0.4957285821437835	0.4721889495849609	0.5272364020347595	6	44.82508138020833	-73.16429036458334	-9.8273224182	0.753739119	-0.0430708068	-9.8273224182	0.753739119	-0.0430708068	0.131030593122	-0.047952921025999996	0.00763581545	0.131030593122	-0.047952921025999996	0.00763581545	-0.7047	-0.00754	-0.97614	-0.7047	-0.00754	-0.97614	-9.8273224182	0.753739119	-0.0430708068	0.131030593122	-0.047952921025999996	0.00763581545	-0.7047	-0.00754	-0.97614	2.82432	7.0608	10.35584	0.9943202566000493	44.575
13082	0	1406921	0	-1379	32	41	302	-160	73	-1231	-19	-1642	-1382	31	35	302	-162	68	-1231	-19	-1642	96	256	448	45.28	0.9945620528003948	43.87	0.994394275845053	4449.5048828125	-7309.857421875	37.5	12.251250267028809	1	0	0.0	0.0	0.0	0.0	0.288535943855273	0.0	0.0	0.2742837034288097	0.2727817764	0.2261217357	9.9098747979	0.5036336183547974	-0.4947654604911804	0.474361777305603	0.525871992111206	6	44.82508138020833	-73.16429036458334	-9.8991070962	0.2297109696	0.2943171798	-9.9206424996	0.2225325018	0.251246373	0.092240650636	-0.048869218879999995	0.022296581114	0.092240650636	-0.049480084115999995	0.020769418023999998	-0.7139800000000001	-0.01102	-0.95236	-0.7139800000000001	-0.01102	-0.95236	-9.909874797899999	0.2261217357	0.2727817764	0.092240650636	-0.049174651497999995	0.021532999568999997	-0.7139800000000001	-0.01102	-0.95236	2.82432	7.53152	13.18016	0.9944781643227238	44.575
13083	0	1407027	0	-1372	53	11	377	-182	71	-1231	-19	-1642	-1372	53	11	377	-182	71	-1231	-19	-1642	128	224	336	45.29	0.9944732297063904	43.87	0.9944041450777202	4449.5048828125	-7309.857421875	37.59999847412109	12.2524995803833	1	0	0.0	0.0	0.0	0.0	0.2749398191115493	0.0	0.0	0.2388036009528737	0.0789631458	0.3804587934	9.8488578216	0.4841943681240082	-0.513178825378418	0.4641002714633941	0.5355504155158997	6	44.82508138020833	-73.16429036458334	-9.848857821600001	0.3804587934	0.07896314580000001	-9.848857821600001	0.3804587934	0.07896314580000001	0.115148096986	-0.055588736475999996	0.021685715878	0.115148096986	-0.055588736475999996	0.021685715878	-0.7139800000000001	-0.01102	-0.95236	-0.7139800000000001	-0.01102	-0.95236	-9.848857821600001	0.3804587934	0.07896314580000001	0.115148096986	-0.055588736475999996	0.021685715878	-0.7139800000000001	-0.01102	-0.95236	3.76576	6.59008	9.88512	0.9944386873920553	44.58
13084	0	1407134	0	-1379	20	33	294	-206	58	-1215	-18	-1714	-1379	20	33	294	-206	58	-1215	-18	-1714	144	240	336	45.28	0.9945127066370588	43.87	0.9942955835183814	4449.5048828125	-7309.857421875	37.59999847412109	12.258749961853027	1	0	0.0	0.0	0.0	0.0	0.274328075554545	0.0	0.0	0.2197087580461083	0.2368894373999999	0.1435693559999999	9.8991070962	0.4849426746368408	-0.5126690864562988	0.4657325148582458	0.5339423418045044	6	44.82508138020833	-73.16429036458334	-9.8991070962	0.143569356	0.2368894374	-9.8991070962	0.143569356	0.2368894374	0.089797189692	-0.062919119308	0.017715091844	0.089797189692	-0.062919119308	0.017715091844	-0.7047	-0.01044	-0.99412	-0.7047	-0.01044	-0.99412	-9.8991070962	0.143569356	0.2368894374	0.089797189692	-0.062919119308	0.017715091844	-0.7047	-0.01044	-0.99412	4.23648	7.0608	9.88512	0.9944041450777201	44.575
13085	0	1407239	0	-1382	1	8	438	-230	13	-1215	-18	-1714	-1382	1	8	438	-230	13	-1215	-18	-1714	64	240	448	45.29	0.9946706143597336	43.87	0.9942955835183814	4449.5048828125	-7309.857421875	37.59999847412109	12.2524995803833	1	0	0.0	0.0	0.0	0.0	0.2591558827286626	0.0	0.0	0.185545263144996	0.0574277423999999	0.0071784677999999	9.9206424996	0.4858259260654449	-0.5124997496604919	0.4664069414138794	0.5327118039131165	6	44.82508138020833	-73.16429036458334	-9.9206424996	0.0071784678	0.0574277424	-9.9206424996	0.0071784678	0.0574277424	0.133779486684	-0.07024950213999999	0.003970624034	0.133779486684	-0.07024950213999999	0.003970624034	-0.7047	-0.01044	-0.99412	-0.7047	-0.01044	-0.99412	-9.9206424996	0.0071784678	0.0574277424	0.133779486684	-0.07024950213999999	0.003970624034	-0.7047	-0.01044	-0.99412	1.88288	7.0608	13.18016	0.9944830989390575	44.58
13086	0	1407344	0	-1371	-3	2	586	-236	-50	-1220	-13	-1661	-1371	-3	2	586	-236	-50	-1220	-13	-1661	128	304	400	45.29	0.994641006661732	43.87	0.9944041450777202	4449.5048828125	-7309.857421875	37.59999847412109	12.258749961853027	1	0	0.0	0.0	0.0	0.0	0.2002265347698281	0.0	0.0	0.1080493169225662	0.0143569355999999	-0.0215354034	9.8416793538	0.4861188530921936	-0.512932300567627	0.4655217826366424	0.5328025221824646	6	44.82508138020833	-73.16429036458334	-9.8416793538	-0.0215354034	0.0143569356	-9.8416793538	-0.0215354034	0.0143569356	0.17898351414799998	-0.072082097848	-0.0152716309	0.17898351414799998	-0.072082097848	-0.0152716309	-0.7076	-0.00754	-0.96338	-0.7076	-0.00754	-0.96338	-9.8416793538	-0.0215354034	0.0143569356	0.17898351414799998	-0.072082097848	-0.0152716309	-0.7076	-0.00754	-0.96338	3.76576	8.94368	11.768	0.9945225758697261	44.58
13087	0	1407453	0	-1367	95	-17	594	-187	-48	-1220	-13	-1661	-1367	95	-17	594	-187	-48	-1220	-13	-1661	96	288	400	45.28	0.9946607451270664	43.87	0.9944830989390576	4449.5048828125	-7309.857421875	37.59999847412109	12.258749961853027	1	0	0.0	0.0	0.0	0.0	0.0714793188039649	0.0	0.0	-0.0321692012146162	-0.1220339526	0.6819544409999999	9.8129654826	0.4857597947120666	-0.5135438442230225	0.4637776911258697	0.5340602993965149	6	44.82508138020833	-73.16429036458334	-9.812965482600001	0.681954441	-0.12203395260000001	-9.812965482600001	0.681954441	-0.12203395260000001	0.18142697509199998	-0.057115899565999995	-0.014660765664	0.18142697509199998	-0.057115899565999995	-0.014660765664	-0.7076	-0.00754	-0.96338	-0.7076	-0.00754	-0.96338	-9.812965482600001	0.681954441	-0.12203395260000001	0.18142697509199998	-0.057115899565999995	-0.014660765664	-0.7076	-0.00754	-0.96338	2.82432	8.47296	11.768	0.994571922033062	44.575
13088	0	1407562	0	-1382	17	4	445	-168	-35	-1225	-28	-1668	-1382	17	4	445	-168	-35	-1225	-28	-1668	96	256	432	45.28	0.9944633604737232	43.87	0.9942363681223784	4449.5048828125	-7309.857421875	37.59999847412109	12.25749969482422	1	0	0.0	0.0	0.0	0.0	0.1120831669677188	0.0	0.0	0.0173615536987603	0.0287138711999999	0.1220339526	9.9206424996	0.4865628182888031	-0.5125749707221985	0.4641442596912384	0.5339416265487671	6	44.82508138020833	-73.16429036458334	-9.9206424996	0.12203395260000001	0.0287138712	-9.9206424996	0.12203395260000001	0.0287138712	0.13591751501	-0.051312679824	-0.010690141629999999	0.13591751501	-0.051312679824	-0.010690141629999999	-0.7105	-0.01624	-0.96744	-0.7105	-0.01624	-0.96744	-9.9206424996	0.12203395260000001	0.0287138712	0.13591751501	-0.051312679824	-0.010690141629999999	-0.7105	-0.01624	-0.96744	2.82432	7.53152	12.70944	0.9943498642980508	44.575
13089	0	1407670	0	-1371	115	10	462	-155	-2	-1225	-28	-1668	-1371	115	10	462	-155	-2	-1225	-28	-1668	80	288	416	45.29	0.9946706143597336	43.87	0.9943547989143844	4449.5048828125	-7309.857421875	37.59999847412109	12.251250267028809	1	0	0.0	0.0	0.0	0.0	0.078124057293972	0.0	0.0	-0.0130744123034503	0.0717846779999999	0.8255237969999999	9.8416793538	0.4862290918827057	-0.5122841596603394	0.4637311398983001	0.5348828434944153	6	44.82508138020833	-73.16429036458334	-9.8416793538	0.825523797	0.071784678	-9.8416793538	0.825523797	0.071784678	0.141109869516	-0.04734205579	-0.000610865236	0.141109869516	-0.04734205579	-0.000610865236	-0.7105	-0.01624	-0.96744	-0.7105	-0.01624	-0.96744	-9.8416793538	0.825523797	0.071784678	0.141109869516	-0.04734205579	-0.000610865236	-0.7105	-0.01624	-0.96744	2.3536	8.47296	12.23872	0.9945127066370589	44.58
13090	0	1407775	0	-1375	34	46	349	-149	60	-1219	-15	-1710	-1375	34	46	349	-149	60	-1219	-15	-1710	80	192	384	45.29	0.9946804835924008	43.87	0.9942363681223784	4449.5048828125	-7309.857421875	37.59999847412109	12.251250267028809	1	0	0.0	0.0	0.0	0.0	0.016138915442172	0.0	0.0	-0.0685127580536426	0.3302095188	0.2440679052	9.870393225	0.4866944551467895	-0.5112419128417969	0.4655638635158539	0.5338637828826904	6	44.82508138020833	-73.16429036458334	-9.870393225	0.24406790520000002	0.3302095188	-9.870393225	0.24406790520000002	0.3302095188	0.10659598368199999	-0.045509460082	0.01832595708	0.10659598368199999	-0.045509460082	0.01832595708	-0.70702	-0.0087	-0.9918	-0.70702	-0.0087	-0.9918	-9.870393225	0.24406790520000002	0.3302095188	0.10659598368199999	-0.045509460082	0.01832595708	-0.70702	-0.0087	-0.9918	2.3536	5.64864	11.29728	0.9944584258573896	44.58
