	packetType	timestamp_ms	imu1_accel_x	imu1_accel_y	imu1_accel_z	imu1_gyro_x	imu1_gyro_y	imu1_gyro_z	imu1_mag_x	imu1_mag_y	imu1_mag_z	high_g_accel_x	high_g_accel_y	high_g_accel_z	baro1_temp	baro1_pres	baroalt_agl	gps_lat	gps_long	gps_alt	gps_fix_quality	gps_sats_tracked	gps_hdop	battery_voltage_1	battery_voltage_2	pyro_cont	dynamixel_degrees	dynamixel_degrees_1	dynamixel_length	dynamixel_length_1	trigger_status	heading	vtg	pos_x	pos_y	pos_z	vel_x	vel_y	vel_z	acc_x	acc_y	acc_z	q_x	q_y	q_z	q_w	state	gps_lat_mod	gps_long_mod	imu1_accel_x_real	imu1_accel_y_real	imu1_accel_z_real	imu1_gyro_x_real	imu1_gyro_y_real	imu1_gyro_z_real	imu1_mag_x_real	imu1_mag_y_real	imu1_mag_z_real	imu_accel_x_avg	imu_accel_y_avg	imu_accel_z_avg	imu_gyro_x_avg	imu_gyro_y_avg	imu_gyro_z_avg	imu_mag_x_avg	imu_mag_y_avg	imu_mag_z_avg	high_g_accel_x_real	high_g_accel_y_real	high_g_accel_z_real	baro_pres_avg	baro_temp_avg
5635	0	606745	32	-2050	17	13	23	2	-1365	-917	4045	6	5	6	23.93	1.0172908956328646	0.8561366752581542	44.82530975341797	-73.1624755859375	50.09999847412109	1	10	1.100000023841858	11.56804656982422	12.282703399658203	7	443.0	474.0	0.0	0.0	0	0.0	0.0	0.0	0.0	0.3006491197618656	0.0	0.0	0.0027562403254474	0.0814028605818748	0.1532289087772369	9.816226959228516	0.2944349944591522	-0.6389424800872803	0.28992360830307	0.6488489508628845	6	0.7470884958902995	-1.2193745930989583	0.2297109696	-14.715858990000001	0.12203395260000001	0.015882496136	0.028099800855999998	0.002443460944	-0.7917	-0.53186	2.3461	0.2297109696	-14.715858990000001	0.12203395260000001	0.015882496136	0.028099800855999998	0.002443460944	-0.7917	-0.53186	2.3461	0.17652	0.1471	0.17652	1.0172908956328646	23.93
5636	0	606850	24	-2051	18	12	21	0	-1374	-907	4069	8	4	6	23.93	1.0173402417962003	0.4484437373648274	44.82530975341797	-73.1624755859375	50.09999847412109	1	10	1.100000023841858	12.058921813964844	12.264656066894531	7	443.0	474.0	0.0	0.0	0	0.0	0.0	0.0	0.0	0.3072574134271326	0.0	0.0	0.0084756455952687	0.0861912593245506	0.1149216815829277	9.821015357971191	0.2944484651088714	-0.6389902234077454	0.2899461090564728	0.6487858295440674	6	0.7470884958902995	-1.2193745930989583	0.1722832272	-14.7230374578	0.1292124204	0.014660765664	0.025656339912	0.0	-0.79692	-0.52606	2.36002	0.1722832272	-14.7230374578	0.1292124204	0.014660765664	0.025656339912	0.0	-0.79692	-0.52606	2.36002	0.23536	0.11768	0.17652	1.0173402417962003	23.93
5637	0	606955	26	-2051	18	12	21	1	-1333	-904	4048	6	4	7	23.94	1.0173599802615347	0.2853710457673045	44.82530975341797	-73.1624755859375	50.09999847412109	1	10	1.100000023841858	12.022828102111816	12.257437705993652	7	443.0	474.0	0.0	0.0	0	0.0	0.0	0.0	0.0	0.3258866866300264	0.0	0.0	0.0287852469690794	0.0861912593245506	0.1244984865188598	9.821015357971191	0.2944309115409851	-0.6389959454536438	0.2900000214576721	0.64876389503479	6	0.7470884958902995	-1.2193745930989583	0.1866401628	-14.7230374578	0.1292124204	0.014660765664	0.025656339912	0.001221730472	-0.77314	-0.52432	2.34784	0.1866401628	-14.7230374578	0.1292124204	0.014660765664	0.025656339912	0.001221730472	-0.77314	-0.52432	2.34784	0.17652	0.11768	0.20594	1.0173599802615347	23.94
5638	0	607060	29	-2050	19	10	24	0	-1405	-1040	4046	8	3	7	23.93	1.017389587959536	0.0407668119153458	44.82530975341797	-73.1624755859375	50.09999847412109	1	10	1.100000023841858	11.690765380859377	12.289921760559082	7	443.0	474.0	0.0	0.0	0	0.0	0.0	0.0	0.0	0.2572085934347695	0.0	0.0	-0.0435768649733107	0.090979665517807	0.1388636976480484	9.816226959228516	0.2944520711898803	-0.6391024589538574	0.289983719587326	0.6486567258834839	6	0.7470884958902995	-1.2193745930989583	0.2081755662	-14.715858990000001	0.1363908882	0.012217304719999999	0.029321531328	0.0	-0.8149	-0.6032	2.34668	0.2081755662	-14.715858990000001	0.1363908882	0.012217304719999999	0.029321531328	0.0	-0.8149	-0.6032	2.34668	0.23536	0.08826	0.20594	1.017389587959536	23.93
5639	0	607165	26	-2050	21	10	21	2	-1335	-939	4032	7	4	6	23.94	1.0173599802615347	0.2853710457673045	44.82530975341797	-73.1624755859375	50.09999847412109	1	10	1.100000023841858	12.026437759399414	12.243000030517578	7	443.0	474.0	0.0	0.0	0	0.0	0.0	0.0	0.0	0.2896761800030112	0.0	0.0	-0.006007638551011	0.1005564704537391	0.1244984865188598	9.816226959228516	0.2944493591785431	-0.6391139030456543	0.290012389421463	0.6486338376998901	6	0.7470884958902995	-1.2193745930989583	0.1866401628	-14.715858990000001	0.1507478238	0.012217304719999999	0.025656339912	0.002443460944	-0.7743	-0.54462	2.33856	0.1866401628	-14.715858990000001	0.1507478238	0.012217304719999999	0.025656339912	0.002443460944	-0.7743	-0.54462	2.33856	0.20594	0.11768	0.17652	1.0173599802615347	23.94
5640	0	607270	31	-2051	22	11	21	1	-1344	-795	4045	7	4	6	23.94	1.0173501110288674	0.3669070713235651	44.82530975341797	-73.1624755859375	50.09999847412109	1	10	1.100000023841858	12.01200008392334	12.268265724182127	7	443.0	474.0	0.0	0.0	0	0.0	0.0	0.0	0.0	0.1870308555448958	0.0	0.0	-0.1112307722070509	0.1053448766469955	0.1484405100345611	9.821015357971191	0.2944200932979584	-0.6390937566757202	0.2900473177433014	0.6486513614654541	6	0.7470884958902995	-1.2193745930989583	0.2225325018	-14.7230374578	0.15792629160000002	0.013439035192	0.025656339912	0.001221730472	-0.77952	-0.4611	2.3461	0.2225325018	-14.7230374578	0.15792629160000002	0.013439035192	0.025656339912	0.001221730472	-0.77952	-0.4611	2.3461	0.20594	0.11768	0.17652	1.0173501110288674	23.94
5641	0	607375	27	-2047	19	9	24	1	-1331	-756	4003	6	4	6	23.93	1.0173402417962003	0.4484437373648274	44.82530975341797	-73.1624755859375	50.09999847412109	1	10	1.100000023841858	12.113062858581545	12.2357816696167	7	443.0	474.0	0.0	0.0	0	0.0	0.0	0.0	0.0	0.2109045585075962	0.0	0.0	-0.0702276287929276	0.090979665517807	0.1292868852615356	9.801861763000488	0.2944227457046509	-0.6391029953956604	0.2901118993759155	0.6486121416091919	6	0.7470884958902995	-1.2193745930989583	0.1938186306	-14.694323586600001	0.1363908882	0.010995574248	0.029321531328	0.001221730472	-0.77198	-0.43848	2.32174	0.1938186306	-14.694323586600001	0.1363908882	0.010995574248	0.029321531328	0.001221730472	-0.77198	-0.43848	2.32174	0.17652	0.11768	0.17652	1.0173402417962003	23.93
5642	0	607480	26	-2044	15	14	23	1	-1364	-898	4073	7	4	6	23.94	1.0173599802615347	0.2853710457673045	44.82530975341797	-73.1624755859375	50.09999847412109	1	10	1.100000023841858	11.95425033569336	12.253828048706056	7	443.0	474.0	0.0	0.0	0	0.0	0.0	0.0	0.0	0.0935135925295957	0.0	0.0	-0.1854448529576422	0.071826048195362	0.1244984865188598	9.78749656677246	0.2943818867206573	-0.6390569806098938	0.2901585698127746	0.6486551761627197	6	0.7470884958902995	-1.2193745930989583	0.1866401628	-14.6727881832	0.107677017	0.017104226607999998	0.028099800855999998	0.001221730472	-0.79112	-0.52084	2.36234	0.1866401628	-14.6727881832	0.107677017	0.017104226607999998	0.028099800855999998	0.001221730472	-0.79112	-0.52084	2.36234	0.20594	0.11768	0.17652	1.0173599802615347	23.94
5643	0	607585	32	-2056	20	16	23	3	-1335	-849	4080	7	5	5	23.94	1.0174093264248705	-0.1222994750921041	44.82530975341797	-73.1624755859375	50.09999847412109	1	10	1.100000023841858	12.105843544006348	12.228562355041504	7	443.0	474.0	0.0	0.0	0	0.0	0.0	0.0	0.0	0.0710496820672564	0.0	0.0	-0.1871783025862053	0.0957680642604827	0.1532289087772369	9.84495735168457	0.2943377792835235	-0.639031171798706	0.2902188003063202	0.6486736536026001	6	0.7470884958902995	-1.2193745930989583	0.2297109696	-14.7589297968	0.143569356	0.019547687552	0.028099800855999998	0.003665191416	-0.7743	-0.49242	2.3664	0.2297109696	-14.7589297968	0.143569356	0.019547687552	0.028099800855999998	0.003665191416	-0.7743	-0.49242	2.3664	0.20594	0.1471	0.1471	1.0174093264248705	23.94
5644	0	607690	31	-2046	17	11	21	2	-1307	-928	4068	7	4	6	23.93	1.0171823340735258	1.753117509362908	44.82530975341797	-73.1624755859375	50.20000076293945	1	10	1.100000023841858	11.990344047546388	12.29353141784668	7	443.0	474.0	0.0	0.0	0	0.0	0.0	0.0	0.0	0.157547226832444	0.0	0.0	-0.0720544204402129	0.0814028605818748	0.1484405100345611	9.797073364257812	0.314774215221405	-0.6292482614517212	0.3099119067192077	0.6394673585891724	6	0.7470884958902995	-1.2193745930989583	0.2225325018	-14.6871451188	0.12203395260000001	0.013439035192	0.025656339912	0.002443460944	-0.75806	-0.53824	2.35944	0.2225325018	-14.6871451188	0.12203395260000001	0.013439035192	0.025656339912	0.002443460944	-0.75806	-0.53824	2.35944	0.20594	0.11768	0.17652	1.0171823340735258	23.93
5645	0	607795	32	-2048	21	12	23	1	-1363	-931	4025	5	5	6	23.94	1.0174093264248705	-0.1222994750921041	44.82530975341797	-73.1624755859375	50.20000076293945	1	10	1.100000023841858	11.910937309265137	12.282703399658203	7	443.0	474.0	0.0	0.0	0	0.0	0.0	0.0	0.0	0.122534392634334	0.0	0.0	-0.0992004273651706	0.1005564704537391	0.1532289087772369	9.806650161743164	0.3147451877593994	-0.6293090581893921	0.309949666261673	0.6394035220146179	6	0.7470884958902995	-1.2193745930989583	0.2297109696	-14.7015020544	0.1507478238	0.014660765664	0.028099800855999998	0.001221730472	-0.79054	-0.53998	2.3345	0.2297109696	-14.7015020544	0.1507478238	0.014660765664	0.028099800855999998	0.001221730472	-0.79054	-0.53998	2.3345	0.1471	0.1471	0.17652	1.0174093264248705	23.94
5646	0	607900	26	-2050	19	9	22	3	-1349	-924	4060	7	5	6	23.94	1.0174191956575376	-0.2038316579639666	44.82530975341797	-73.1624755859375	50.20000076293945	1	10	1.100000023841858	12.030047416687012	12.196078300476074	7	443.0	474.0	0.0	0.0	0	0.0	0.0	0.0	0.0	0.0452978468089442	0.0	0.0	-0.1691756791415405	0.090979665517807	0.1244984865188598	9.816226959228516	0.3147235512733459	-0.629385232925415	0.3099799156188965	0.6393246054649353	6	0.7470884958902995	-1.2193745930989583	0.1866401628	-14.715858990000001	0.1363908882	0.010995574248	0.026878070384	0.003665191416	-0.78242	-0.53592	2.3548	0.1866401628	-14.715858990000001	0.1363908882	0.010995574248	0.026878070384	0.003665191416	-0.78242	-0.53592	2.3548	0.20594	0.1471	0.17652	1.0174191956575376	23.94
5647	0	608005	14	-2048	15	12	22	-1	-1360	-910	4011	6	4	5	23.94	1.0173599802615347	0.2853710457673045	44.82530975341797	-73.1624755859375	50.20000076293945	1	10	1.100000023841858	12.076969146728516	12.185250282287598	7	443.0	474.0	0.0	0.0	0	0.0	0.0	0.0	0.0	0.0953795371008862	0.0	0.0	-0.094968276850419	0.071826048195362	0.0670376494526863	9.806650161743164	0.3146918416023254	-0.6294154524803162	0.3099795281887054	0.6393106579780579	6	0.7470884958902995	-1.2193745930989583	0.10049854920000001	-14.7015020544	0.107677017	0.014660765664	0.026878070384	-0.001221730472	-0.7888000000000001	-0.5278	2.32638	0.10049854920000001	-14.7015020544	0.107677017	0.014660765664	0.026878070384	-0.001221730472	-0.7888000000000001	-0.5278	2.32638	0.17652	0.11768	0.1471	1.0173599802615347	23.94
5648	0	608110	22	-2054	15	12	22	1	-1342	-883	4103	8	4	5	23.94	1.0173106340981988	0.6930575785163361	44.82530975341797	-73.1624755859375	50.20000076293945	1	10	1.100000023841858	12.109453201293944	12.2863130569458	7	443.0	474.0	0.0	0.0	0	0.0	0.0	0.0	0.0	0.1707958960057102	0.0	0.0	-0.0067778096990273	0.071826048195362	0.1053448766469955	9.83538055419922	0.3146628439426422	-0.629438042640686	0.3099968433380127	0.6392942667007446	6	0.7470884958902995	-1.2193745930989583	0.15792629160000002	-14.7445728612	0.107677017	0.014660765664	0.026878070384	0.001221730472	-0.77836	-0.51214	2.37974	0.15792629160000002	-14.7445728612	0.107677017	0.014660765664	0.026878070384	0.001221730472	-0.77836	-0.51214	2.37974	0.23536	0.11768	0.1471	1.0173106340981988	23.94
5649	0	608215	34	-2052	14	17	23	1	-1442	-909	4051	7	5	6	23.94	1.0173106340981988	0.6930575785163361	44.82530975341797	-73.1624755859375	50.20000076293945	1	10	1.100000023841858	12.113062858581545	12.271875381469728	7	443.0	474.0	0.0	0.0	0	0.0	0.0	0.0	0.0	0.1621823165806703	0.0	0.0	-0.0148460626682465	0.0670376494526863	0.1628057211637497	9.825803756713867	0.3146314918994903	-0.62945556640625	0.3100267648696899	0.6392778158187866	6	0.7470884958902995	-1.2193745930989583	0.24406790520000002	-14.730215925600001	0.10049854920000001	0.020769418023999998	0.028099800855999998	0.001221730472	-0.83636	-0.52722	2.34958	0.24406790520000002	-14.730215925600001	0.10049854920000001	0.020769418023999998	0.028099800855999998	0.001221730472	-0.83636	-0.52722	2.34958	0.20594	0.1471	0.17652	1.0173106340981988	23.94
5650	0	608320	26	-2047	16	12	23	1	-1497	-865	4015	6	6	6	23.95	1.0173698494942018	0.2038356606911412	44.82530975341797	-73.1624755859375	50.20000076293945	1	10	1.100000023841858	12.084187507629396	12.257437705993652	7	443.0	474.0	0.0	0.0	0	0.0	0.0	0.0	0.0	0.2078358880912874	0.0	0.0	0.0329737928453854	0.0766144543886184	0.1244984865188598	9.801861763000488	0.3146077990531921	-0.6294758319854736	0.3100692927837372	0.6392489075660706	6	0.7470884958902995	-1.2193745930989583	0.1866401628	-14.694323586600001	0.1148554848	0.014660765664	0.028099800855999998	0.001221730472	-0.86826	-0.5017	2.3287	0.1866401628	-14.694323586600001	0.1148554848	0.014660765664	0.028099800855999998	0.001221730472	-0.86826	-0.5017	2.3287	0.17652	0.17652	0.17652	1.0173698494942018	23.95
5651	0	608425	27	-2052	20	10	22	3	-1360	-984	4045	7	5	6	23.94	1.0175178879842093	-1.0191182660892268	44.82530975341797	-73.1624755859375	50.20000076293945	1	10	1.100000023841858	12.116671562194824	12.26104736328125	7	443.0	474.0	0.0	0.0	0	0.0	0.0	0.0	0.0	0.189552687050105	0.0	0.0	0.0089905357543787	0.0957680642604827	0.1292868852615356	9.825803756713867	0.3145266771316528	-0.6294550895690918	0.3101700246334076	0.639260470867157	6	0.7470884958902995	-1.2193745930989583	0.1938186306	-14.730215925600001	0.143569356	0.012217304719999999	0.026878070384	0.003665191416	-0.7888000000000001	-0.57072	2.3461	0.1938186306	-14.730215925600001	0.143569356	0.012217304719999999	0.026878070384	0.003665191416	-0.7888000000000001	-0.57072	2.3461	0.20594	0.1471	0.17652	1.0175178879842093	23.94
5652	0	608532	24	-2056	22	11	23	-2	-1348	-856	4053	5	4	6	23.95	1.017429064890205	-0.2853632004293014	44.82530975341797	-73.1624755859375	50.20000076293945	1	10	1.100000023841858	12.102234840393066	12.243000030517578	7	443.0	474.0	0.0	0.0	0	0.0	0.0	0.0	0.0	0.2187745797137857	0.0	0.0	0.037418466023665	0.1053448766469955	0.1149216815829277	9.84495735168457	0.3144872188568115	-0.6295081377029419	0.3101672530174255	0.6392289400100708	6	0.7470884958902995	-1.2193745930989583	0.1722832272	-14.7589297968	0.15792629160000002	0.013439035192	0.028099800855999998	-0.002443460944	-0.78184	-0.49648	2.35074	0.1722832272	-14.7589297968	0.15792629160000002	0.013439035192	0.028099800855999998	-0.002443460944	-0.78184	-0.49648	2.35074	0.1471	0.11768	0.17652	1.017429064890205	23.95
5653	0	608635	26	-2049	18	12	19	1	-1295	-813	4077	7	4	6	23.95	1.0174784110535406	-0.6930113070209999	44.82530975341797	-73.1624755859375	50.20000076293945	1	10	1.100000023841858	12.084187507629396	12.221343994140623	7	443.0	474.0	0.0	0.0	0	0.0	0.0	0.0	0.0	0.2264805965895622	0.0	0.0	0.0411598132689182	0.0861912593245506	0.1244984865188598	9.81143856048584	0.349520206451416	-0.6112261414527893	0.3440410494804382	0.6211876273155212	6	0.7470884958902995	-1.2193745930989583	0.1866401628	-14.7086805222	0.1292124204	0.014660765664	0.023212878968	0.001221730472	-0.7511	-0.47154	2.36466	0.1866401628	-14.7086805222	0.1292124204	0.014660765664	0.023212878968	0.001221730472	-0.7511	-0.47154	2.36466	0.20594	0.11768	0.17652	1.0174784110535406	23.95
5654	0	608740	23	-2049	18	14	20	0	-1370	-874	4077	7	5	6	23.95	1.0173698494942018	0.2038356606911412	44.82530975341797	-73.1624755859375	50.20000076293945	1	10	1.100000023841858	11.918156623840332	12.279093742370604	7	443.0	474.0	0.0	0.0	0	0.0	0.0	0.0	0.0	0.2095473442498062	0.0	0.0	0.0198452496816722	0.0861912593245506	0.1101332753896713	9.81143856048584	0.3494846522808075	-0.6112063527107239	0.3440581858158111	0.6212175488471985	6	0.7470884958902995	-1.2193745930989583	0.1651047594	-14.7086805222	0.1292124204	0.017104226607999998	0.024434609439999998	0.0	-0.7946	-0.50692	2.36466	0.1651047594	-14.7086805222	0.1292124204	0.017104226607999998	0.024434609439999998	0.0	-0.7946	-0.50692	2.36466	0.20594	0.1471	0.17652	1.0173698494942018	23.95
5655	0	608845	34	-2047	15	13	22	2	-1311	-872	4043	7	5	6	23.95	1.0173698494942018	0.2038356606911412	44.82530975341797	-73.1624755859375	50.20000076293945	1	10	1.100000023841858	11.997562408447266	12.268265724182127	7	443.0	474.0	0.0	0.0	0	0.0	0.0	0.0	0.0	0.2694683156133122	0.0	0.0	0.0790902465456031	0.071826048195362	0.1628057211637497	9.801861763000488	0.3494463264942169	-0.6112275123596191	0.3440981209278106	0.6211962699890137	6	0.7470884958902995	-1.2193745930989583	0.24406790520000002	-14.694323586600001	0.107677017	0.015882496136	0.026878070384	0.002443460944	-0.7603800000000001	-0.50576	2.34494	0.24406790520000002	-14.694323586600001	0.107677017	0.015882496136	0.026878070384	0.002443460944	-0.7603800000000001	-0.50576	2.34494	0.20594	0.1471	0.17652	1.0173698494942018	23.95
5656	0	608950	23	-2066	12	12	22	2	-1381	-926	4060	7	5	6	23.95	1.017320503330866	0.611518990946499	44.82530975341797	-73.1624755859375	50.20000076293945	1	10	1.100000023841858	12.01200008392334	12.29353141784668	7	443.0	474.0	0.0	0.0	0	0.0	0.0	0.0	0.0	0.2934522011801238	0.0	0.0	0.0951007008018763	0.0574608407914638	0.1101332753896713	9.892841339111328	0.3493983447551727	-0.6112542152404785	0.3441577553749084	0.6211638450622559	6	0.7470884958902995	-1.2193745930989583	0.1651047594	-14.8307144748	0.0861416136	0.014660765664	0.026878070384	0.002443460944	-0.80098	-0.53708	2.3548	0.1651047594	-14.8307144748	0.0861416136	0.014660765664	0.026878070384	0.002443460944	-0.80098	-0.53708	2.3548	0.20594	0.1471	0.17652	1.017320503330866	23.95
5657	0	609055	23	-2051	12	12	24	0	-1344	-877	4074	8	4	6	23.94	1.0174191956575376	-0.2038316579639666	44.82530975341797	-73.1624755859375	50.09999847412109	1	10	1.100000023841858	12.051703453063965	12.084187507629396	7	443.0	474.0	0.0	0.0	0	0.0	0.0	0.0	0.0	0.3039282941008271	0.0	0.0	0.094518308514568	0.0574608407914638	0.1101332753896713	9.821015357971191	0.3493675291538238	-0.6112774014472961	0.3441702425479889	0.6211515665054321	6	0.7470884958902995	-1.2193745930989583	0.1651047594	-14.7230374578	0.0861416136	0.014660765664	0.029321531328	0.0	-0.77952	-0.50866	2.36292	0.1651047594	-14.7230374578	0.0861416136	0.014660765664	0.029321531328	0.0	-0.77952	-0.50866	2.36292	0.23536	0.11768	0.17652	1.0174191956575376	23.94
5658	0	609160	28	-2048	19	13	23	1	-1321	-911	4108	6	6	5	23.95	1.017379718726869	0.1223009160754565	44.82530975341797	-73.1624755859375	50.09999847412109	1	10	1.100000023841858	12.06253147125244	12.243000030517578	7	443.0	474.0	0.0	0.0	0	0.0	0.0	0.0	0.0	0.3046043973123368	0.0	0.0	0.0850485130304887	0.090979665517807	0.1340752989053726	9.806650161743164	0.349281370639801	-0.6112596392631531	0.3441693186759949	0.6212179064750671	6	0.7470884958902995	-1.2193745930989583	0.20099709840000002	-14.7015020544	0.1363908882	0.015882496136	0.028099800855999998	0.001221730472	-0.76618	-0.52838	2.38264	0.20099709840000002	-14.7015020544	0.1363908882	0.015882496136	0.028099800855999998	0.001221730472	-0.76618	-0.52838	2.38264	0.17652	0.17652	0.1471	1.017379718726869	23.95
5659	0	609265	28	-2052	14	11	22	2	-1362	-1025	4125	6	5	4	23.95	1.017429064890205	-0.2853632004293014	44.82530975341797	-73.1624755859375	50.09999847412109	1	10	1.100000023841858	12.06253147125244	12.29353141784668	7	443.0	474.0	0.0	0.0	0	0.0	0.0	0.0	0.0	0.2804595956310713	0.0	0.0	0.0500865120842731	0.0670376494526863	0.1340752989053726	9.825803756713867	0.349263459444046	-0.6113408207893372	0.3441786468029022	0.6211429238319397	6	0.7470884958902995	-1.2193745930989583	0.20099709840000002	-14.730215925600001	0.10049854920000001	0.013439035192	0.026878070384	0.002443460944	-0.78996	-0.5945	2.3925	0.20099709840000002	-14.730215925600001	0.10049854920000001	0.013439035192	0.026878070384	0.002443460944	-0.78996	-0.5945	2.3925	0.17652	0.1471	0.11768	1.017429064890205	23.95
5660	0	609370	24	-2053	17	13	24	1	-1344	-859	4016	7	4	6	23.96	1.017438934122872	-0.3668941024979175	44.82530975341797	-73.1624755859375	50.09999847412109	1	10	1.100000023841858	12.087797164916992	12.26104736328125	7	443.0	474.0	0.0	0.0	0	0.0	0.0	0.0	0.0	0.2209246170920661	0.0	0.0	-0.0184815824810616	0.0814028605818748	0.1149216815829277	9.830592155456545	0.3491912186145782	-0.6113356351852417	0.3442529439926147	0.6211474537849426	6	0.7470884958902995	-1.2193745930989583	0.1722832272	-14.7373943934	0.12203395260000001	0.015882496136	0.029321531328	0.001221730472	-0.77952	-0.49822	2.32928	0.1722832272	-14.7373943934	0.12203395260000001	0.015882496136	0.029321531328	0.001221730472	-0.77952	-0.49822	2.32928	0.20594	0.11768	0.17652	1.017438934122872	23.96
5661	0	609475	31	-2056	22	12	22	3	-1351	-714	4072	6	4	6	23.94	1.017468541820873	-0.611482966421547	44.82530975341797	-73.1624755859375	50.09999847412109	1	10	1.100000023841858	12.06974983215332	12.253828048706056	7	443.0	474.0	0.0	0.0	0	0.0	0.0	0.0	0.0	0.2331610233556928	0.0	0.0	-0.0056051626340341	0.1053448766469955	0.1484405100345611	9.84495735168457	0.3491511344909668	-0.6114230155944824	0.3442946970462799	0.621060848236084	6	0.7470884958902995	-1.2193745930989583	0.2225325018	-14.7589297968	0.15792629160000002	0.014660765664	0.026878070384	0.003665191416	-0.78358	-0.41412	2.36176	0.2225325018	-14.7589297968	0.15792629160000002	0.014660765664	0.026878070384	0.003665191416	-0.78358	-0.41412	2.36176	0.17652	0.11768	0.17652	1.017468541820873	23.94
5662	0	609580	22	-2034	31	12	23	1	-1359	-884	4093	7	5	5	23.95	1.017429064890205	-0.2853632004293014	44.82530975341797	-73.1624755859375	50.09999847412109	1	10	1.100000023841858	12.109453201293944	12.271875381469728	7	443.0	474.0	0.0	0.0	0	0.0	0.0	0.0	0.0	0.2051870627553664	0.0	0.0	-0.0314126813254653	0.1484405100345611	0.1053448766469955	9.739612579345703	0.3491576910018921	-0.6114903688430786	0.3442890644073486	0.6209940314292908	6	0.7470884958902995	-1.2193745930989583	0.15792629160000002	-14.601003505200001	0.2225325018	0.014660765664	0.028099800855999998	0.001221730472	-0.78822	-0.51272	2.37394	0.15792629160000002	-14.601003505200001	0.2225325018	0.014660765664	0.028099800855999998	0.001221730472	-0.78822	-0.51272	2.37394	0.20594	0.1471	0.1471	1.017429064890205	23.95
5663	0	609685	25	-2055	15	11	23	4	-1349	-844	4079	7	3	7	23.95	1.017379718726869	0.1223009160754565	44.82530975341797	-73.1624755859375	50.09999847412109	1	10	1.100000023841858	12.06974983215332	12.279093742370604	7	443.0	474.0	0.0	0.0	0	0.0	0.0	0.0	0.0	0.1249021226168713	0.0	0.0	-0.1123527659012919	0.071826048195362	0.119710087776184	9.840168952941896	0.4194740056991577	-0.5671254396438599	0.4129144847393036	0.5761181116104126	6	0.7470884958902995	-1.2193745930989583	0.179461695	-14.751751329000001	0.107677017	0.013439035192	0.028099800855999998	0.004886921888	-0.78242	-0.48952	2.36582	0.179461695	-14.751751329000001	0.107677017	0.013439035192	0.028099800855999998	0.004886921888	-0.78242	-0.48952	2.36582	0.20594	0.08826	0.20594	1.017379718726869	23.95
5664	0	609790	27	-2048	17	10	24	2	-1445	-917	4024	8	4	5	23.95	1.0173303725635332	0.5299810439009007	44.82530975341797	-73.1624755859375	50.09999847412109	1	10	1.100000023841858	12.109453201293944	12.268265724182127	7	443.0	474.0	0.0	0.0	0	0.0	0.0	0.0	0.0	0.1573270776756177	0.0	0.0	-0.063837896679421	0.0814028605818748	0.1292868852615356	9.806650161743164	0.4194540381431579	-0.5672091245651245	0.4128821194171905	0.5760733485221863	6	0.7470884958902995	-1.2193745930989583	0.1938186306	-14.7015020544	0.12203395260000001	0.012217304719999999	0.029321531328	0.002443460944	-0.8381	-0.53186	2.33392	0.1938186306	-14.7015020544	0.12203395260000001	0.012217304719999999	0.029321531328	0.002443460944	-0.8381	-0.53186	2.33392	0.23536	0.11768	0.1471	1.0173303725635332	23.95
5665	0	609895	29	-2049	12	12	23	1	-1373	-918	4055	7	5	6	23.96	1.0173402417962003	0.4484437373648274	44.82530975341797	-73.1624755859375	50.09999847412109	1	10	1.100000023841858	12.105843544006348	12.224953651428224	7	443.0	474.0	0.0	0.0	0	0.0	0.0	0.0	0.0	0.1712553282737438	0.0	0.0	-0.0473764666805709	0.0574608407914638	0.1388636976480484	9.81143856048584	0.4193763136863708	-0.5672510862350464	0.4129082560539245	0.5760698318481445	6	0.7470884958902995	-1.2193745930989583	0.2081755662	-14.7086805222	0.0861416136	0.014660765664	0.028099800855999998	0.001221730472	-0.79634	-0.53244	2.3519	0.2081755662	-14.7086805222	0.0861416136	0.014660765664	0.028099800855999998	0.001221730472	-0.79634	-0.53244	2.3519	0.20594	0.1471	0.17652	1.0173402417962003	23.96
5666	0	610000	25	-2050	14	13	23	2	-1392	-861	4069	8	5	7	23.96	1.017448803355539	-0.4484243641796243	44.82530975341797	-73.1624755859375	50.09999847412109	1	10	1.100000023841858	12.095015525817873	12.2863130569458	7	443.0	474.0	0.0	0.0	0	0.0	0.0	0.0	0.0	0.167336199924253	0.0	0.0	-0.0465870846991268	0.0670376494526863	0.119710087776184	9.816226959228516	0.4193387329578399	-0.5673197507858276	0.4129030406475067	0.5760332942008972	6	0.7470884958902995	-1.2193745930989583	0.179461695	-14.715858990000001	0.10049854920000001	0.015882496136	0.028099800855999998	0.002443460944	-0.80736	-0.49938	2.36002	0.179461695	-14.715858990000001	0.10049854920000001	0.015882496136	0.028099800855999998	0.002443460944	-0.80736	-0.49938	2.36002	0.23536	0.1471	0.20594	1.017448803355539	23.96
5667	0	610105	28	-2050	15	12	23	2	-1340	-960	4055	7	4	6	23.96	1.017438934122872	-0.3668941024979175	44.82530975341797	-73.1624755859375	50.09999847412109	1	10	1.100000023841858	12.087797164916992	12.268265724182127	7	443.0	474.0	0.0	0.0	0	0.0	0.0	0.0	0.0	0.1145574554440283	0.0	0.0	-0.0936734559323223	0.071826048195362	0.1340752989053726	9.816226959228516	0.4192597270011902	-0.5673209428787231	0.4129674732685089	0.5760434865951538	6	0.7470884958902995	-1.2193745930989583	0.20099709840000002	-14.715858990000001	0.107677017	0.014660765664	0.028099800855999998	0.002443460944	-0.7772	-0.5568	2.3519	0.20099709840000002	-14.715858990000001	0.107677017	0.014660765664	0.028099800855999998	0.002443460944	-0.7772	-0.5568	2.3519	0.20594	0.11768	0.17652	1.017438934122872	23.96
5668	0	610210	30	-2053	21	13	21	0	-1361	-773	4007	6	3	6	23.97	1.0174093264248705	-0.1222994750921041	44.82530975341797	-73.1624755859375	50.09999847412109	1	10	1.100000023841858	12.022828102111816	12.232172012329102	7	443.0	474.0	0.0	0.0	0	0.0	0.0	0.0	0.0	0.1124390479687554	0.0	0.0	-0.0863986370841958	0.1005564704537391	0.1436520963907241	9.830592155456545	0.4192472696304321	-0.5673570036888123	0.4129277169704437	0.5760456919670105	6	0.7470884958902995	-1.2193745930989583	0.215354034	-14.7373943934	0.1507478238	0.015882496136	0.025656339912	0.0	-0.78938	-0.44834	2.32406	0.215354034	-14.7373943934	0.1507478238	0.015882496136	0.025656339912	0.0	-0.78938	-0.44834	2.32406	0.17652	0.08826	0.17652	1.0174093264248705	23.97
5669	0	610315	30	-2053	20	18	22	2	-1371	-945	3995	6	4	7	23.97	1.0173007648655317	0.7745968066153165	44.82530975341797	-73.1624755859375	50.09999847412109	1	10	1.100000023841858	12.084187507629396	12.188859939575195	7	443.0	474.0	0.0	0.0	0	0.0	0.0	0.0	0.0	0.1251659058732971	0.0	0.0	-0.0627140586315955	0.0957680642604827	0.1436520963907241	9.830592155456545	0.4192000925540924	-0.567334771156311	0.4129781424999237	0.5760656595230103	6	0.7470884958902995	-1.2193745930989583	0.215354034	-14.7373943934	0.143569356	0.021991148496	0.026878070384	0.002443460944	-0.79518	-0.5481	2.3171	0.215354034	-14.7373943934	0.143569356	0.021991148496	0.026878070384	0.002443460944	-0.79518	-0.5481	2.3171	0.17652	0.11768	0.20594	1.0173007648655317	23.97
5670	0	610420	27	-2054	22	12	22	0	-1370	-953	4050	5	5	4	23.96	1.017389587959536	0.0407668119153458	44.82530975341797	-73.1624755859375	50.09999847412109	1	10	1.100000023841858	12.098625183105469	12.224953651428224	7	443.0	474.0	0.0	0.0	0	0.0	0.0	0.0	0.0	0.1269475279793318	0.0	0.0	-0.0511269096334416	0.1053448766469955	0.1292868852615356	9.83538055419922	0.4192063808441162	-0.5674065947532654	0.4129560589790344	0.5760062336921692	6	0.7470884958902995	-1.2193745930989583	0.1938186306	-14.7445728612	0.15792629160000002	0.014660765664	0.026878070384	0.0	-0.7946	-0.55274	2.349	0.1938186306	-14.7445728612	0.15792629160000002	0.014660765664	0.026878070384	0.0	-0.7946	-0.55274	2.349	0.1471	0.1471	0.11768	1.017389587959536	23.96
5671	0	610525	25	-1999	5	11	23	2	-1315	-809	4062	8	3	5	23.96	1.0173501110288674	0.3669070713235651	44.82530975341797	-73.1624755859375	50.09999847412109	1	10	1.100000023841858	11.947031021118164	12.30074977874756	7	443.0	474.0	0.0	0.0	0	0.0	0.0	0.0	0.0	0.2076014688743563	0.0	0.0	0.0378113237094941	0.0239420160651206	0.119710087776184	9.57201862335205	0.4191203415393829	-0.5674756169319153	0.4129723608493805	0.5759891271591187	6	0.7470884958902995	-1.2193745930989583	0.179461695	-14.3497571322	0.035892339	0.013439035192	0.028099800855999998	0.002443460944	-0.7627	-0.46922	2.35596	0.179461695	-14.3497571322	0.035892339	0.013439035192	0.028099800855999998	0.002443460944	-0.7627	-0.46922	2.35596	0.23536	0.08826	0.1471	1.0173501110288674	23.96
5672	0	610630	35	-2046	17	11	23	2	-1337	-921	4090	7	5	7	23.97	1.0173007648655317	0.7542137686687271	44.82530975341797	-73.1624755859375	50.09999847412109	1	10	1.100000023841858	11.268468856811523	12.289921760559082	7	443.0	474.0	0.0	0.0	0	0.0	0.0	0.0	0.0	0.2465853120775998	0.0	0.0	0.0725524986956558	0.0814028605818748	0.1675941199064254	9.797073364257812	0.286027044057846	-0.6421486139297485	0.2811441719532013	0.6532928943634033	6	0.7470884958902995	-1.2193745930989583	0.251246373	-14.6871451188	0.12203395260000001	0.013439035192	0.028099800855999998	0.002443460944	-0.77546	-0.53418	2.3722	0.251246373	-14.6871451188	0.12203395260000001	0.013439035192	0.028099800855999998	0.002443460944	-0.77546	-0.53418	2.3722	0.20594	0.1471	0.20594	1.0173007648655317	23.97
5673	0	610735	22	-2051	17	10	24	1	-1348	-897	4059	7	5	8	23.96	1.0172908956328646	0.8357536749349334	44.82530975341797	-73.1624755859375	50.09999847412109	1	10	1.100000023841858	11.434499740600586	12.289921760559082	7	443.0	474.0	0.0	0.0	0	0.0	0.0	0.0	0.0	0.2685735957314337	0.0	0.0	0.0895347430313284	0.0814028605818748	0.1053448766469955	9.821015357971191	0.2859897911548614	-0.6422262787818909	0.2811225950717926	0.653242290019989	6	0.7470884958902995	-1.2193745930989583	0.15792629160000002	-14.7230374578	0.12203395260000001	0.012217304719999999	0.029321531328	0.001221730472	-0.78184	-0.5202600000000001	2.35422	0.15792629160000002	-14.7230374578	0.12203395260000001	0.012217304719999999	0.029321531328	0.001221730472	-0.78184	-0.5202600000000001	2.35422	0.20594	0.1471	0.23536	1.0172908956328646	23.96
5674	0	610840	29	-2051	14	11	23	2	-1387	-924	4032	7	4	5	23.97	1.0173501110288674	0.3465238452650377	44.82530975341797	-73.1624755859375	50.09999847412109	1	10	1.100000023841858	11.939812660217283	12.275484085083008	7	443.0	474.0	0.0	0.0	0	0.0	0.0	0.0	0.0	0.2674777729732091	0.0	0.0	0.0812280902043186	0.0670376494526863	0.1388636976480484	9.821015357971191	0.2859213352203369	-0.6422309279441833	0.2811640202999115	0.6532497406005859	6	0.7470884958902995	-1.2193745930989583	0.2081755662	-14.7230374578	0.10049854920000001	0.013439035192	0.028099800855999998	0.002443460944	-0.80446	-0.53592	2.33856	0.2081755662	-14.7230374578	0.10049854920000001	0.013439035192	0.028099800855999998	0.002443460944	-0.80446	-0.53592	2.33856	0.20594	0.11768	0.1471	1.0173501110288674	23.97
5675	0	610945	32	-2045	20	15	21	1	-1356	-913	4061	8	4	5	23.97	1.0174093264248705	-0.1426829268712242	44.82530975341797	-73.1624755859375	50.09999847412109	1	10	1.100000023841858	12.06974983215332	12.289921760559082	7	443.0	474.0	0.0	0.0	0	0.0	0.0	0.0	0.0	0.2724982538160759	0.0	0.0	0.0763595450848712	0.0957680642604827	0.1532289087772369	9.792284965515137	0.2858506441116333	-0.6422303915023804	0.2811973690986633	0.6532669067382812	6	0.7470884958902995	-1.2193745930989583	0.2297109696	-14.679966651	0.143569356	0.01832595708	0.025656339912	0.001221730472	-0.78648	-0.52954	2.35538	0.2297109696	-14.679966651	0.143569356	0.01832595708	0.025656339912	0.001221730472	-0.78648	-0.52954	2.35538	0.23536	0.11768	0.1471	1.0174093264248705	23.97
5676	0	611050	37	-2049	16	10	23	3	-1371	-895	4024	7	4	4	23.97	1.017320503330866	0.5911358777580773	44.82530975341797	-73.1624755859375	50.09999847412109	1	10	1.100000023841858	12.03726577758789	12.289921760559082	7	443.0	474.0	0.0	0.0	0	0.0	0.0	0.0	0.0	0.243429300465433	0.0	0.0	0.036375997146819	0.0766144543886184	0.1771709322929382	9.81143856048584	0.2857711911201477	-0.6422522664070129	0.2812291979789734	0.6532665491104126	6	0.7470884958902995	-1.2193745930989583	0.26560330860000003	-14.7086805222	0.1148554848	0.012217304719999999	0.028099800855999998	0.003665191416	-0.79518	-0.5191	2.33392	0.26560330860000003	-14.7086805222	0.1148554848	0.012217304719999999	0.028099800855999998	0.003665191416	-0.79518	-0.5191	2.33392	0.20594	0.11768	0.11768	1.017320503330866	23.97
5677	0	611155	32	-2030	26	14	23	2	-1362	-882	4082	7	5	7	23.97	1.0174586725882062	-0.5503376253556705	44.82530975341797	-73.1624755859375	50.09999847412109	1	10	1.100000023841858	12.01200008392334	12.2863130569458	7	443.0	474.0	0.0	0.0	0	0.0	0.0	0.0	0.0	0.1976919211449876	0.0	0.0	-0.0125041386983207	0.1244984865188598	0.1532289087772369	9.720458984375	0.2857452929019928	-0.6423127055168152	0.2812482714653015	0.6532102227210999	6	0.7470884958902995	-1.2193745930989583	0.2297109696	-14.572289634	0.1866401628	0.017104226607999998	0.028099800855999998	0.002443460944	-0.78996	-0.51156	2.36756	0.2297109696	-14.572289634	0.1866401628	0.017104226607999998	0.028099800855999998	0.002443460944	-0.78996	-0.51156	2.36756	0.20594	0.1471	0.20594	1.0174586725882062	23.97
5678	0	611260	26	-2051	13	12	22	0	-1341	-859	4039	6	5	6	23.97	1.0173007648655317	0.7542137686687271	44.82530975341797	-73.1624755859375	50.09999847412109	1	10	1.100000023841858	12.09140682220459	12.289921760559082	7	443.0	474.0	0.0	0.0	0	0.0	0.0	0.0	0.0	0.1210132024956141	0.0	0.0	-0.086235557236144	0.0622492432594299	0.1244984865188598	9.821015357971191	0.2857085168361664	-0.6423343420028687	0.2812470495700836	0.6532055735588074	6	0.7470884958902995	-1.2193745930989583	0.1866401628	-14.7230374578	0.0933200814	0.014660765664	0.026878070384	0.0	-0.77778	-0.49822	2.34262	0.1866401628	-14.7230374578	0.0933200814	0.014660765664	0.026878070384	0.0	-0.77778	-0.49822	2.34262	0.17652	0.1471	0.17652	1.0173007648655317	23.97
5679	0	611365	29	-2049	22	12	23	2	-1395	-863	4060	7	4	6	23.97	1.0174093264248705	-0.1426829268712242	44.82530975341797	-73.1624755859375	50.0	1	10	1.100000023841858	12.098625183105469	12.279093742370604	7	443.0	474.0	0.0	0.0	0	0.0	0.0	0.0	0.0	0.0282828598529999	0.0	0.0	-0.1704384149290857	0.1053448766469955	0.1388636976480484	9.81143856048584	0.2856721878051758	-0.6422999501228333	0.2812661230564117	0.6532469391822815	6	0.7470884958902995	-1.2193745930989583	0.2081755662	-14.7086805222	0.15792629160000002	0.014660765664	0.028099800855999998	0.002443460944	-0.8091	-0.50054	2.3548	0.2081755662	-14.7086805222	0.15792629160000002	0.014660765664	0.028099800855999998	0.002443460944	-0.8091	-0.50054	2.3548	0.20594	0.11768	0.17652	1.0174093264248705	23.97
5680	0	611470	36	-2032	11	13	23	1	-1407	-861	4062	7	4	5	23.97	1.0174093264248705	-0.1426829268712242	44.82530975341797	-73.1624755859375	50.0	1	10	1.100000023841858	11.950640678405762	12.268265724182127	7	443.0	474.0	0.0	0.0	0	0.0	0.0	0.0	0.0	0.0216320344890857	0.0	0.0	-0.157013206625745	0.0526724383234977	0.1723825186491012	9.730035781860352	0.2856245338916778	-0.6423388123512268	0.2812760174274444	0.6532254219055176	6	0.7470884958902995	-1.2193745930989583	0.2584248408	-14.586646569600001	0.07896314580000001	0.015882496136	0.028099800855999998	0.001221730472	-0.81606	-0.49938	2.35596	0.2584248408	-14.586646569600001	0.07896314580000001	0.015882496136	0.028099800855999998	0.001221730472	-0.81606	-0.49938	2.35596	0.20594	0.11768	0.1471	1.0174093264248705	23.97
5681	0	611575	22	-2049	25	12	22	3	-1360	-980	4091	6	5	6	23.97	1.0174191956575376	-0.2242151473615505	44.82530975341797	-73.1624755859375	50.0	1	10	1.100000023841858	12.102234840393066	12.221343994140623	7	443.0	474.0	0.0	0.0	0	0.0	0.0	0.0	0.0	0.0561427740042085	0.0	0.0	-0.1079938207124115	0.119710087776184	0.1053448766469955	9.81143856048584	0.2855899333953857	-0.6423656344413757	0.2812621295452118	0.6532201170921326	6	0.7470884958902995	-1.2193745930989583	0.15792629160000002	-14.7086805222	0.179461695	0.014660765664	0.026878070384	0.003665191416	-0.7888000000000001	-0.5684	2.37278	0.15792629160000002	-14.7086805222	0.179461695	0.014660765664	0.026878070384	0.003665191416	-0.7888000000000001	-0.5684	2.37278	0.17652	0.1471	0.17652	1.0174191956575376	23.97
5682	0	611680	33	-2054	20	12	21	-1	-1324	-921	4039	7	5	4	23.98	1.0173303725635332	0.5095978930891105	44.82530975341797	-73.1624755859375	50.0	1	10	1.100000023841858	11.69798469543457	12.297141075134276	7	443.0	474.0	0.0	0.0	0	0.0	0.0	0.0	0.0	0.1201024238018467	0.0	0.0	-0.0291159506210996	0.0957680642604827	0.1580173075199127	9.83538055419922	0.3867166340351105	-0.5891086459159851	0.3803359270095825	0.5989540219306946	6	0.7470884958902995	-1.2193745930989583	0.2368894374	-14.7445728612	0.143569356	0.014660765664	0.025656339912	-0.001221730472	-0.76792	-0.53418	2.34262	0.2368894374	-14.7445728612	0.143569356	0.014660765664	0.025656339912	-0.001221730472	-0.76792	-0.53418	2.34262	0.20594	0.1471	0.11768	1.0173303725635332	23.98
5683	0	611785	31	-2044	17	13	23	2	-1349	-884	4053	7	6	5	23.97	1.0174093264248705	-0.1426829268712242	44.82530975341797	-73.1624755859375	50.0	1	10	1.100000023841858	12.109453201293944	12.26104736328125	7	443.0	474.0	0.0	0.0	0	0.0	0.0	0.0	0.0	0.0831398563320495	0.0	0.0	-0.0623380510651091	0.0814028605818748	0.1484405100345611	9.78749656677246	0.386670172214508	-0.5891374945640564	0.3803487718105316	0.5989474058151245	6	0.7470884958902995	-1.2193745930989583	0.2225325018	-14.6727881832	0.12203395260000001	0.015882496136	0.028099800855999998	0.002443460944	-0.78242	-0.51272	2.35074	0.2225325018	-14.6727881832	0.12203395260000001	0.015882496136	0.028099800855999998	0.002443460944	-0.78242	-0.51272	2.35074	0.20594	0.17652	0.1471	1.0174093264248705	23.97
5684	0	611890	23	-2050	21	8	23	2	-1169	-905	4076	7	4	6	23.98	1.017429064890205	-0.3057467274453491	44.82530975341797	-73.1624755859375	50.0	1	10	1.100000023841858	12.001172065734863	12.282703399658203	7	443.0	474.0	0.0	0.0	0	0.0	0.0	0.0	0.0	0.0777993109767988	0.0	0.0	-0.0594774713341544	0.1005564704537391	0.1101332753896713	9.816226959228516	0.3866652250289917	-0.5892001986503601	0.3803384304046631	0.5988954901695251	6	0.7470884958902995	-1.2193745930989583	0.1651047594	-14.715858990000001	0.1507478238	0.009773843776	0.028099800855999998	0.002443460944	-0.67802	-0.5249	2.36408	0.1651047594	-14.715858990000001	0.1507478238	0.009773843776	0.028099800855999998	0.002443460944	-0.67802	-0.5249	2.36408	0.20594	0.11768	0.17652	1.017429064890205	23.98
5685	0	611995	29	-2046	18	13	22	3	-1308	-918	4044	6	5	5	23.97	1.0173106340981988	0.6726745029463782	44.82530975341797	-73.1624755859375	50.0	1	10	1.1200000047683716	12.051703453063965	12.264656066894531	7	443.0	474.0	0.0	0.0	0	0.0	0.0	0.0	0.0	0.0861018877828828	0.0	0.0	-0.0419444845781347	0.0861912593245506	0.1388636976480484	9.797073364257812	0.3865710794925689	-0.5891857147216797	0.3803806006908417	0.5989438891410828	6	0.7470884958902995	-1.2193745930989583	0.2081755662	-14.6871451188	0.1292124204	0.015882496136	0.026878070384	0.003665191416	-0.75864	-0.53244	2.34552	0.2081755662	-14.6871451188	0.1292124204	0.015882496136	0.026878070384	0.003665191416	-0.75864	-0.53244	2.34552	0.17652	0.1471	0.1471	1.0173106340981988	23.97
5686	0	612100	32	-2053	14	12	23	1	-1356	-935	4045	8	4	5	23.97	1.017261287934863	1.080377237099693	44.82530975341797	-73.1624755859375	50.0	1	10	1.1200000047683716	12.084187507629396	12.250218391418455	7	443.0	474.0	0.0	0.0	0	0.0	0.0	0.0	0.0	0.1686049761210228	0.0	0.0	0.0489602053653644	0.0670376494526863	0.1532289087772369	9.830592155456545	0.3865053057670593	-0.5891526937484741	0.380422443151474	0.598992109298706	6	0.7470884958902995	-1.2193745930989583	0.2297109696	-14.7373943934	0.10049854920000001	0.014660765664	0.028099800855999998	0.001221730472	-0.78648	-0.5423	2.3461	0.2297109696	-14.7373943934	0.10049854920000001	0.014660765664	0.028099800855999998	0.001221730472	-0.78648	-0.5423	2.3461	0.23536	0.11768	0.1471	1.017261287934863	23.97
5687	0	612205	22	-2049	13	17	22	2	-1270	-890	4080	6	5	7	23.97	1.0173599802615347	0.2649877820903133	44.82530975341797	-73.1624755859375	50.0	1	10	1.1200000047683716	12.001172065734863	12.2863130569458	7	443.0	474.0	0.0	0.0	0	0.0	0.0	0.0	0.0	0.2774259826166461	0.0	0.0	0.1563770191330635	0.0622492432594299	0.1053448766469955	9.81143856048584	0.3864765465259552	-0.5891566276550293	0.380446046590805	0.598991870880127	6	0.7470884958902995	-1.2193745930989583	0.15792629160000002	-14.7086805222	0.0933200814	0.020769418023999998	0.026878070384	0.002443460944	-0.7366	-0.5162	2.3664	0.15792629160000002	-14.7086805222	0.0933200814	0.020769418023999998	0.026878070384	0.002443460944	-0.7366	-0.5162	2.3664	0.17652	0.1471	0.20594	1.0173599802615347	23.97
5688	0	612310	26	-2049	18	13	22	2	-1315	-902	3985	7	3	7	23.98	1.017379718726869	0.1019175771566328	44.82530975341797	-73.1624755859375	50.0	1	10	1.1200000047683716	12.01200008392334	12.2863130569458	7	443.0	474.0	0.0	0.0	0	0.0	0.0	0.0	0.0	0.270503756777727	0.0	0.0	0.1302578633351689	0.0861912593245506	0.1244984865188598	9.81143856048584	0.3864362239837646	-0.5891744494438171	0.3804334104061126	0.599008321762085	6	0.7470884958902995	-1.2193745930989583	0.1866401628	-14.7086805222	0.1292124204	0.015882496136	0.026878070384	0.002443460944	-0.7627	-0.52316	2.3113	0.1866401628	-14.7086805222	0.1292124204	0.015882496136	0.026878070384	0.002443460944	-0.7627	-0.52316	2.3113	0.20594	0.08826	0.20594	1.017379718726869	23.98
5689	0	612415	31	-2054	23	14	22	2	-1344	-970	4054	7	6	6	23.98	1.0173303725635332	0.5095978930891105	44.82530975341797	-73.1624755859375	50.0	1	10	1.1200000047683716	11.968688011169434	12.268265724182127	7	443.0	474.0	0.0	0.0	0	0.0	0.0	0.0	0.0	0.3243098483241013	0.0	0.0	0.1724635231945011	0.1101332753896713	0.1484405100345611	9.83538055419922	0.3863992691040039	-0.5891972184181213	0.3804556131362915	0.5989956259727478	6	0.7470884958902995	-1.2193745930989583	0.2225325018	-14.7445728612	0.1651047594	0.017104226607999998	0.026878070384	0.002443460944	-0.77952	-0.5626	2.35132	0.2225325018	-14.7445728612	0.1651047594	0.017104226607999998	0.026878070384	0.002443460944	-0.77952	-0.5626	2.35132	0.20594	0.17652	0.17652	1.0173303725635332	23.98
5690	0	612520	37	-2050	21	12	22	1	-1284	-864	4045	8	4	5	23.99	1.0175474956822108	-1.2840757406752714	44.82530975341797	-73.1624755859375	50.0	1	10	1.1200000047683716	12.098625183105469	12.282703399658203	7	443.0	474.0	0.0	0.0	0	0.0	0.0	0.0	0.0	0.2022877758348457	0.0	0.0	0.0254463155486635	0.1005564704537391	0.1771709322929382	9.816226959228516	0.3864119052886963	-0.5892350673675537	0.3804464936256408	0.5989561080932617	6	0.7470884958902995	-1.2193745930989583	0.26560330860000003	-14.715858990000001	0.1507478238	0.014660765664	0.026878070384	0.001221730472	-0.74472	-0.50112	2.3461	0.26560330860000003	-14.715858990000001	0.1507478238	0.014660765664	0.026878070384	0.001221730472	-0.74472	-0.50112	2.3461	0.23536	0.11768	0.1471	1.0175474956822108	23.99
5691	0	612625	29	-2047	21	13	23	3	-1290	-874	4033	7	5	5	23.97	1.0173698494942018	0.1834523593907814	44.82530975341797	-73.1624755859375	50.0	1	10	1.1200000047683716	12.06614112854004	12.228562355041504	7	443.0	474.0	0.0	0.0	0	0.0	0.0	0.0	0.0	0.172935571455528	0.0	0.0	-0.0046328807574724	0.1005564704537391	0.1388636976480484	9.801861763000488	0.3863960206508636	-0.5892912149429321	0.3804186284542084	0.5989288091659546	6	0.7470884958902995	-1.2193745930989583	0.2081755662	-14.694323586600001	0.1507478238	0.015882496136	0.028099800855999998	0.003665191416	-0.7482	-0.50692	2.33914	0.2081755662	-14.694323586600001	0.1507478238	0.015882496136	0.028099800855999998	0.003665191416	-0.7482	-0.50692	2.33914	0.20594	0.1471	0.1471	1.0173698494942018	23.97
5692	0	612730	28	-2051	16	13	23	2	-1270	-807	4052	6	4	5	23.98	1.0172218110041944	1.4065509549386406	44.82530975341797	-73.1624755859375	50.0	1	10	1.1200000047683716	12.03726577758789	12.282703399658203	7	443.0	474.0	0.0	0.0	0	0.0	0.0	0.0	0.0	0.2523751519856329	0.0	0.0	0.0785445867652213	0.0766144543886184	0.1340752989053726	9.821015357971191	0.324287086725235	-0.6242450475692749	0.318701684474945	0.6352836489677429	6	0.7470884958902995	-1.2193745930989583	0.20099709840000002	-14.7230374578	0.1148554848	0.015882496136	0.028099800855999998	0.002443460944	-0.7366	-0.46806	2.35016	0.20099709840000002	-14.7230374578	0.1148554848	0.015882496136	0.028099800855999998	0.002443460944	-0.7366	-0.46806	2.35016	0.17652	0.11768	0.1471	1.0172218110041944	23.98
5693	0	612835	25	-2052	22	12	23	1	-1356	-951	4056	6	5	5	23.99	1.017448803355539	-0.4688079664325999	44.82530975341797	-73.1624755859375	50.0	1	10	1.1200000047683716	12.076969146728516	12.232172012329102	7	443.0	474.0	0.0	0.0	0	0.0	0.0	0.0	0.0	0.2141525977993213	0.0	0.0	0.0313829829192335	0.1053448766469955	0.119710087776184	9.825803756713867	0.3242867588996887	-0.6242555379867554	0.3187131881713867	0.6352676749229431	6	0.7470884958902995	-1.2193745930989583	0.179461695	-14.730215925600001	0.15792629160000002	0.014660765664	0.028099800855999998	0.001221730472	-0.78648	-0.55158	2.35248	0.179461695	-14.730215925600001	0.15792629160000002	0.014660765664	0.028099800855999998	0.001221730472	-0.78648	-0.55158	2.35248	0.17652	0.1471	0.1471	1.017448803355539	23.99
5694	0	612940	25	-2048	27	17	22	2	-1343	-884	4048	7	5	7	23.99	1.017389587959536	0.0203834353780582	44.82530975341797	-73.1624755859375	50.0	1	10	1.1200000047683716	12.06253147125244	12.282703399658203	7	443.0	474.0	0.0	0.0	0	0.0	0.0	0.0	0.0	0.1543388916903842	0.0	0.0	-0.0324245254080654	0.1292868852615356	0.119710087776184	9.806650161743164	0.324222981929779	-0.624190092086792	0.3187487423419952	0.6353468298912048	6	0.7470884958902995	-1.2193745930989583	0.179461695	-14.7015020544	0.1938186306	0.020769418023999998	0.026878070384	0.002443460944	-0.77894	-0.51272	2.34784	0.179461695	-14.7015020544	0.1938186306	0.020769418023999998	0.026878070384	0.002443460944	-0.77894	-0.51272	2.34784	0.20594	0.1471	0.20594	1.017389587959536	23.99
5695	0	613047	26	-2052	18	16	22	1	-1271	-902	4030	7	4	5	23.98	1.017379718726869	0.1019175771566328	44.82530975341797	-73.1624755859375	49.900001525878906	1	10	1.1200000047683716	12.055312156677246	12.250218391418455	7	443.0	474.0	0.0	0.0	0	0.0	0.0	0.0	0.0	0.1177842631846024	0.0	0.0	-0.0638780814542417	0.0861912593245506	0.1244984865188598	9.825803756713867	0.3241974115371704	-0.6241880059242249	0.3187757432460785	0.6353483200073242	6	0.7470884958902995	-1.2193745930989583	0.1866401628	-14.730215925600001	0.1292124204	0.019547687552	0.026878070384	0.001221730472	-0.7371800000000001	-0.52316	2.3374	0.1866401628	-14.730215925600001	0.1292124204	0.019547687552	0.026878070384	0.001221730472	-0.7371800000000001	-0.52316	2.3374	0.20594	0.11768	0.1471	1.017379718726869	23.98
5696	0	613150	32	-2045	22	12	23	2	-1375	-893	4034	6	4	6	23.98	1.0172810264001977	0.917294221754806	44.82530975341797	-73.1624755859375	49.900001525878906	1	10	1.1200000047683716	12.06614112854004	12.289921760559082	7	443.0	474.0	0.0	0.0	0	0.0	0.0	0.0	0.0	0.2670026351247148	0.0	0.0	0.0953587061199426	0.1053448766469955	0.1532289087772369	9.792284965515137	0.3241440951824188	-0.6241428852081299	0.3188311457633972	0.6353920698165894	6	0.7470884958902995	-1.2193745930989583	0.2297109696	-14.679966651	0.15792629160000002	0.014660765664	0.028099800855999998	0.002443460944	-0.7975	-0.51794	2.33972	0.2297109696	-14.679966651	0.15792629160000002	0.014660765664	0.028099800855999998	0.002443460944	-0.7975	-0.51794	2.33972	0.17652	0.11768	0.17652	1.0172810264001977	23.98
5697	0	613255	25	-2048	18	12	21	1	-1334	-904	4035	8	4	7	23.99	1.0173402417962003	0.4280605489296686	44.82530975341797	-73.1624755859375	49.900001525878906	1	10	1.1200000047683716	11.84957790374756	12.2863130569458	7	443.0	474.0	0.0	0.0	0	0.0	0.0	0.0	0.0	0.2471445023638897	0.0	0.0	0.0659615213169468	0.0861912593245506	0.119710087776184	9.806650161743164	0.3241259753704071	-0.6240924000740051	0.3188910782337188	0.6354207992553711	6	0.7470884958902995	-1.2193745930989583	0.179461695	-14.7015020544	0.1292124204	0.014660765664	0.025656339912	0.001221730472	-0.77372	-0.52432	2.3403	0.179461695	-14.7015020544	0.1292124204	0.014660765664	0.025656339912	0.001221730472	-0.77372	-0.52432	2.3403	0.23536	0.11768	0.20594	1.0173402417962003	23.99
5698	0	613360	30	-2051	22	12	23	2	-1386	-919	4038	7	5	7	23.97	1.0173698494942018	0.1834523593907814	44.82530975341797	-73.1624755859375	49.900001525878906	1	10	1.1200000047683716	12.116671562194824	12.23939037322998	7	443.0	474.0	0.0	0.0	0	0.0	0.0	0.0	0.0	0.2223232661362705	0.0	0.0	0.0333898898320608	0.1053448766469955	0.1436520963907241	9.821015357971191	0.3240780532360077	-0.6241335868835449	0.3189004957675934	0.6354000568389893	6	0.7470884958902995	-1.2193745930989583	0.215354034	-14.7230374578	0.15792629160000002	0.014660765664	0.028099800855999998	0.002443460944	-0.80388	-0.53302	2.34204	0.215354034	-14.7230374578	0.15792629160000002	0.014660765664	0.028099800855999998	0.002443460944	-0.80388	-0.53302	2.34204	0.20594	0.1471	0.20594	1.0173698494942018	23.97
5699	0	613465	33	-2056	19	14	22	1	-1314	-878	4031	7	4	6	23.99	1.0173994571922034	-0.0611500659645607	44.82530975341797	-73.1624755859375	49.900001525878906	1	10	1.1200000047683716	12.095015525817873	12.282703399658203	7	443.0	474.0	0.0	0.0	0	0.0	0.0	0.0	0.0	0.2488814955383989	0.0	0.0	0.0592621141878134	0.090979665517807	0.1580173075199127	9.84495735168457	0.3240445256233215	-0.6240527033805847	0.3189558684825897	0.6354688405990601	6	0.7470884958902995	-1.2193745930989583	0.2368894374	-14.7589297968	0.1363908882	0.017104226607999998	0.026878070384	0.001221730472	-0.76212	-0.50924	2.33798	0.2368894374	-14.7589297968	0.1363908882	0.017104226607999998	0.026878070384	0.001221730472	-0.76212	-0.50924	2.33798	0.20594	0.11768	0.17652	1.0173994571922034	23.99
5700	0	613570	25	-2042	21	13	22	3	-1350	-898	4008	8	4	6	23.99	1.017389587959536	0.0203834353780582	44.82530975341797	-73.1624755859375	49.900001525878906	1	10	1.1200000047683716	12.06614112854004	12.243000030517578	7	443.0	474.0	0.0	0.0	0	0.0	0.0	0.0	0.0	0.2522606228862883	0.0	0.0	0.0597403251059738	0.1005564704537391	0.119710087776184	9.77791976928711	0.3239935040473938	-0.6240252256393433	0.31897833943367	0.6355105638504028	6	0.7470884958902995	-1.2193745930989583	0.179461695	-14.658431247600001	0.1507478238	0.015882496136	0.026878070384	0.003665191416	-0.783	-0.52084	2.32464	0.179461695	-14.658431247600001	0.1507478238	0.015882496136	0.026878070384	0.003665191416	-0.783	-0.52084	2.32464	0.23536	0.11768	0.17652	1.017389587959536	23.99
5701	0	613675	28	-2047	17	13	22	2	-1318	-945	4016	7	5	6	23.99	1.017448803355539	-0.4688079664325999	44.82530975341797	-73.1624755859375	49.900001525878906	1	10	1.1200000047683716	11.676328659057615	12.289921760559082	7	443.0	474.0	0.0	0.0	0	0.0	0.0	0.0	0.0	0.2236370110477764	0.0	0.0	0.0240521584000904	0.0814028605818748	0.1340752989053726	9.801861763000488	0.3337844908237457	-0.6196488738059998	0.328355610370636	0.6299252510070801	6	0.7470884958902995	-1.2193745930989583	0.20099709840000002	-14.694323586600001	0.12203395260000001	0.015882496136	0.026878070384	0.002443460944	-0.76444	-0.5481	2.32928	0.20099709840000002	-14.694323586600001	0.12203395260000001	0.015882496136	0.026878070384	0.002443460944	-0.76444	-0.5481	2.32928	0.20594	0.1471	0.17652	1.017448803355539	23.99
5702	0	613780	31	-2053	21	18	23	0	-1494	-1029	4004	7	5	5	23.99	1.0173501110288674	0.3465238452650377	44.82530975341797	-73.1624755859375	49.900001525878906	1	10	1.1200000047683716	11.943422317504885	12.279093742370604	7	443.0	474.0	0.0	0.0	0	0.0	0.0	0.0	0.0	0.2384347327926194	0.0	0.0	0.0353792243591294	0.1005564704537391	0.1484405100345611	9.830592155456545	0.3337148427963257	-0.6196909546852112	0.3283560872077942	0.6299206018447876	6	0.7470884958902995	-1.2193745930989583	0.2225325018	-14.7373943934	0.1507478238	0.021991148496	0.028099800855999998	0.0	-0.86652	-0.59682	2.32232	0.2225325018	-14.7373943934	0.1507478238	0.021991148496	0.028099800855999998	0.0	-0.86652	-0.59682	2.32232	0.20594	0.1471	0.1471	1.0173501110288674	23.99
5703	0	613885	26	-2045	15	12	22	2	-1108	-886	4046	8	4	6	23.99	1.0173402417962003	0.4280605489296686	44.82530975341797	-73.1624755859375	49.900001525878906	1	10	1.1200000047683716	11.813484191894531	12.30074977874756	7	443.0	474.0	0.0	0.0	0	0.0	0.0	0.0	0.0	0.2555529337263952	0.0	0.0	0.0523601367196595	0.071826048195362	0.1244984865188598	9.792284965515137	0.33368980884552	-0.6196965575218201	0.3283714354038238	0.629920244216919	6	0.7470884958902995	-1.2193745930989583	0.1866401628	-14.679966651	0.107677017	0.014660765664	0.026878070384	0.002443460944	-0.64264	-0.51388	2.34668	0.1866401628	-14.679966651	0.107677017	0.014660765664	0.026878070384	0.002443460944	-0.64264	-0.51388	2.34668	0.23536	0.11768	0.17652	1.0173402417962003	23.99
5704	0	613990	25	-2049	16	13	22	2	-1405	-903	4024	6	5	6	23.99	1.017251418702196	1.16191970564923	44.82530975341797	-73.1624755859375	49.900001525878906	1	10	1.1200000047683716	12.105843544006348	12.282703399658203	7	443.0	474.0	0.0	0.0	0	0.0	0.0	0.0	0.0	0.3215577473330326	0.0	0.0	0.1155943265854598	0.0766144543886184	0.119710087776184	9.81143856048584	0.333713561296463	-0.6197469234466553	0.3283474147319793	0.6298707723617554	6	0.7470884958902995	-1.2193745930989583	0.179461695	-14.7086805222	0.1148554848	0.015882496136	0.026878070384	0.002443460944	-0.8149	-0.52374	2.33392	0.179461695	-14.7086805222	0.1148554848	0.015882496136	0.026878070384	0.002443460944	-0.8149	-0.52374	2.33392	0.17652	0.1471	0.17652	1.017251418702196	23.99
5705	0	614095	33	-2053	16	19	22	1	-1376	-878	4003	7	5	7	23.99	1.0172908956328646	0.8357536749349334	44.82530975341797	-73.1624755859375	49.900001525878906	1	10	1.1200000047683716	12.105843544006348	12.257437705993652	7	443.0	474.0	0.0	0.0	0	0.0	0.0	0.0	0.0	0.351148875182634	0.0	0.0	0.1317586458887764	0.0766144543886184	0.1580173075199127	9.830592155456545	0.3336629569530487	-0.6197402477264404	0.3283585608005523	0.6298982501029968	6	0.7470884958902995	-1.2193745930989583	0.2368894374	-14.7373943934	0.1148554848	0.023212878968	0.026878070384	0.001221730472	-0.79808	-0.50924	2.32174	0.2368894374	-14.7373943934	0.1148554848	0.023212878968	0.026878070384	0.001221730472	-0.79808	-0.50924	2.32174	0.20594	0.1471	0.20594	1.0172908956328646	23.99
5706	0	614200	29	-2051	22	12	22	1	-1395	-899	3984	8	4	5	23.99	1.0172415494695288	1.243462814796575	44.82530975341797	-73.1624755859375	49.900001525878906	1	10	1.1200000047683716	11.773781776428224	12.29353141784668	7	443.0	474.0	0.0	0.0	0	0.0	0.0	0.0	0.0	0.392716523711123	0.0	0.0	0.1621001040105477	0.1053448766469955	0.1388636976480484	9.821015357971191	0.3336323201656341	-0.6197230219841003	0.3283695578575134	0.6299256682395935	6	0.7470884958902995	-1.2193745930989583	0.2081755662	-14.7230374578	0.15792629160000002	0.014660765664	0.026878070384	0.001221730472	-0.8091	-0.52142	2.31072	0.2081755662	-14.7230374578	0.15792629160000002	0.014660765664	0.026878070384	0.001221730472	-0.8091	-0.52142	2.31072	0.23536	0.11768	0.1471	1.0172415494695288	23.99
5707	0	614305	28	-2048	23	13	23	3	-1344	-867	4019	7	4	6	23.99	1.0173599802615347	0.2649877820903133	44.82530975341797	-73.1624755859375	49.900001525878906	1	10	1.1200000047683716	12.095015525817873	12.253828048706056	7	443.0	474.0	0.0	0.0	0	0.0	0.0	0.0	0.0	0.4466369940943687	0.0	0.0	0.1998967279895085	0.1101332753896713	0.1340752989053726	9.806650161743164	0.3336246311664581	-0.6197004914283752	0.3284176588058471	0.629926860332489	6	0.7470884958902995	-1.2193745930989583	0.20099709840000002	-14.7015020544	0.1651047594	0.015882496136	0.028099800855999998	0.003665191416	-0.77952	-0.50286	2.33102	0.20099709840000002	-14.7015020544	0.1651047594	0.015882496136	0.028099800855999998	0.003665191416	-0.77952	-0.50286	2.33102	0.20594	0.11768	0.17652	1.0173599802615347	23.99
5708	0	614410	27	-2054	20	10	22	2	-1328	-919	4004	7	5	5	23.99	1.0174093264248705	-0.1426829268712242	44.82530975341797	-73.1624755859375	49.900001525878906	1	10	1.1200000047683716	12.09140682220459	12.250218391418455	7	443.0	474.0	0.0	0.0	0	0.0	0.0	0.0	0.0	0.3321538798105554	0.0	0.0	0.0606087145698161	0.0957680642604827	0.1292868852615356	9.83538055419922	0.3335466086864471	-0.619702160358429	0.328446626663208	0.6299514770507812	6	0.7470884958902995	-1.2193745930989583	0.1938186306	-14.7445728612	0.143569356	0.012217304719999999	0.026878070384	0.002443460944	-0.77024	-0.53302	2.32232	0.1938186306	-14.7445728612	0.143569356	0.012217304719999999	0.026878070384	0.002443460944	-0.77024	-0.53302	2.32232	0.20594	0.1471	0.1471	1.0174093264248705	23.99
5709	0	614515	35	-2057	28	12	24	2	-1272	-675	4017	7	6	6	24.0	1.017429064890205	-0.3057467274453491	44.82530975341797	-73.1624755859375	49.900001525878906	1	10	1.1200000047683716	11.708812713623049	12.271875381469728	7	443.0	474.0	0.0	0.0	0	0.0	0.0	0.0	0.0	0.3683636828240415	0.0	0.0	0.0892998462301245	0.1340752989053726	0.1675941199064254	9.849745750427246	0.3335105776786804	-0.6197968125343323	0.3283928036689758	0.6299055218696594	6	0.7470884958902995	-1.2193745930989583	0.251246373	-14.7661082646	0.20099709840000002	0.014660765664	0.029321531328	0.002443460944	-0.73776	-0.3915	2.32986	0.251246373	-14.7661082646	0.20099709840000002	0.014660765664	0.029321531328	0.002443460944	-0.73776	-0.3915	2.32986	0.20594	0.17652	0.17652	1.017429064890205	24.0
5710	0	614620	29	-2050	19	15	24	2	-1308	-920	4032	7	4	6	23.99	1.0172415494695288	1.243462814796575	44.82530975341797	-73.1624755859375	49.900001525878906	1	10	1.1200000047683716	12.102234840393066	12.268265724182127	7	443.0	474.0	0.0	0.0	0	0.0	0.0	0.0	0.0	0.4144017128051497	0.0	0.0	0.1287266977110017	0.090979665517807	0.1388636976480484	9.816226959228516	0.3335161507129669	-0.61981201171875	0.3284173011779785	0.6298747062683105	6	0.7470884958902995	-1.2193745930989583	0.2081755662	-14.715858990000001	0.1363908882	0.01832595708	0.029321531328	0.002443460944	-0.75864	-0.5336	2.33856	0.2081755662	-14.715858990000001	0.1363908882	0.01832595708	0.029321531328	0.002443460944	-0.75864	-0.5336	2.33856	0.20594	0.11768	0.17652	1.0172415494695288	23.99
5711	0	614725	26	-2054	17	11	23	2	-1385	-943	4040	6	6	5	23.99	1.0173106340981988	0.6726745029463782	44.82530975341797	-73.1624755859375	49.900001525878906	1	10	1.1200000047683716	12.109453201293944	12.257437705993652	7	443.0	474.0	0.0	0.0	0	0.0	0.0	0.0	0.0	0.4444507098506937	0.0	0.0	0.1477920606600911	0.0814028605818748	0.1244984865188598	9.83538055419922	0.3225118815898895	-0.6249769330024719	0.316720575094223	0.6364573836326599	6	0.7470884958902995	-1.2193745930989583	0.1866401628	-14.7445728612	0.12203395260000001	0.013439035192	0.028099800855999998	0.002443460944	-0.8033	-0.54694	2.3432	0.1866401628	-14.7445728612	0.12203395260000001	0.013439035192	0.028099800855999998	0.002443460944	-0.8033	-0.54694	2.3432	0.17652	0.17652	0.1471	1.0173106340981988	23.99
5712	0	614830	28	-2048	12	13	23	2	-1339	-858	4072	7	4	5	24.0	1.017468541820873	-0.6318666439114504	44.82530975341797	-73.1624755859375	49.900001525878906	1	10	1.1200000047683716	11.943422317504885	12.279093742370604	7	443.0	474.0	0.0	0.0	0	0.0	0.0	0.0	0.0	0.4454573903603199	0.0	0.0	0.1327370925765994	0.0574608407914638	0.1340752989053726	9.806650161743164	0.3224776983261108	-0.6250362396240234	0.3166985213756561	0.6364275217056274	6	0.7470884958902995	-1.2193745930989583	0.20099709840000002	-14.7015020544	0.0861416136	0.015882496136	0.028099800855999998	0.002443460944	-0.77662	-0.49764	2.36176	0.20099709840000002	-14.7015020544	0.0861416136	0.015882496136	0.028099800855999998	0.002443460944	-0.77662	-0.49764	2.36176	0.20594	0.11768	0.1471	1.017468541820873	24.0
5713	0	614935	27	-2048	15	12	24	2	-1304	-874	4008	7	4	6	24.0	1.0173106340981988	0.6726745029463782	44.82530975341797	-73.1624755859375	49.900001525878906	1	10	1.1200000047683716	11.903718948364258	12.275484085083008	7	443.0	474.0	0.0	0.0	0	0.0	0.0	0.0	0.0	0.4179933463374061	0.0	0.0	0.0910470537894074	0.071826048195362	0.1292868852615356	9.806650161743164	0.3224290311336517	-0.6251034140586853	0.3167420029640198	0.6363645792007446	6	0.7470884958902995	-1.2193745930989583	0.1938186306	-14.7015020544	0.107677017	0.014660765664	0.029321531328	0.002443460944	-0.75632	-0.50692	2.32464	0.1938186306	-14.7015020544	0.107677017	0.014660765664	0.029321531328	0.002443460944	-0.75632	-0.50692	2.32464	0.20594	0.11768	0.17652	1.0173106340981988	24.0
5714	0	615040	24	-2049	18	13	22	1	-1446	-982	4032	7	4	6	23.99	1.0174586725882062	-0.5503376253556705	44.82530975341797	-73.1624755859375	49.900001525878906	1	10	1.1200000047683716	11.914546966552734	12.297141075134276	7	443.0	474.0	0.0	0.0	0	0.0	0.0	0.0	0.0	0.4047698975317361	0.0	0.0	0.0647220634042345	0.0861912593245506	0.1149216815829277	9.81143856048584	0.32243812084198	-0.6251222491264343	0.3167875707149505	0.6363186836242676	6	0.7470884958902995	-1.2193745930989583	0.1722832272	-14.7086805222	0.1292124204	0.015882496136	0.026878070384	0.001221730472	-0.83868	-0.56956	2.33856	0.1722832272	-14.7086805222	0.1292124204	0.015882496136	0.026878070384	0.001221730472	-0.83868	-0.56956	2.33856	0.20594	0.11768	0.17652	1.0174586725882062	23.99
5715	0	615145	32	-2112	26	13	20	2	-1206	-876	4028	7	5	6	23.99	1.0174093264248705	-0.1426829268712242	44.82530975341797	-73.1624755859375	49.900001525878906	1	10	1.1200000047683716	12.087797164916992	12.275484085083008	7	443.0	474.0	0.0	0.0	0	0.0	0.0	0.0	0.0	0.3947778110554463	0.0	0.0	0.0446269542089896	0.1244984865188598	0.1532289087772369	10.113107681274414	0.3223965764045715	-0.6251283884048462	0.3168237209320068	0.6363157629966736	6	0.7470884958902995	-1.2193745930989583	0.2297109696	-15.1609239936	0.1866401628	0.015882496136	0.024434609439999998	0.002443460944	-0.69948	-0.50808	2.33624	0.2297109696	-15.1609239936	0.1866401628	0.015882496136	0.024434609439999998	0.002443460944	-0.69948	-0.50808	2.33624	0.20594	0.1471	0.17652	1.0174093264248705	23.99
5716	0	615250	29	-2051	24	12	23	1	-1384	-973	4059	6	4	7	23.99	1.0174586725882062	-0.5503376253556705	44.82530975341797	-73.1624755859375	49.900001525878906	1	10	1.1200000047683716	12.105843544006348	12.268265724182127	7	443.0	474.0	0.0	0.0	0	0.0	0.0	0.0	0.0	0.2872879446701572	0.0	0.0	-0.0682382341290239	0.1149216815829277	0.1388636976480484	9.821015357971191	0.3223724663257599	-0.6251826882362366	0.3168116509914398	0.6362807154655457	6	0.7470884958902995	-1.2193745930989583	0.2081755662	-14.7230374578	0.1722832272	0.014660765664	0.028099800855999998	0.001221730472	-0.80272	-0.56434	2.35422	0.2081755662	-14.7230374578	0.1722832272	0.014660765664	0.028099800855999998	0.001221730472	-0.80272	-0.56434	2.35422	0.17652	0.11768	0.20594	1.0174586725882062	23.99
5717	0	615355	26	-2046	18	16	22	1	-1316	-913	4049	6	4	6	24.0	1.0173106340981988	0.6726745029463782	44.82530975341797	-73.1624755859375	49.900001525878906	1	10	1.1200000047683716	12.080577850341797	12.228562355041504	7	443.0	474.0	0.0	0.0	0	0.0	0.0	0.0	0.0	0.3318540687936396	0.0	0.0	-0.0138943562598971	0.0861912593245506	0.1244984865188598	9.797073364257812	0.3223437070846557	-0.625188946723938	0.3168753981590271	0.6362572908401489	6	0.7470884958902995	-1.2193745930989583	0.1866401628	-14.6871451188	0.1292124204	0.019547687552	0.026878070384	0.001221730472	-0.76328	-0.52954	2.34842	0.1866401628	-14.6871451188	0.1292124204	0.019547687552	0.026878070384	0.001221730472	-0.76328	-0.52954	2.34842	0.17652	0.11768	0.17652	1.0173106340981988	24.0
5718	0	615460	26	-2040	23	11	20	-1	-1378	-903	4054	6	5	4	24.01	1.0173303725635332	0.5095978930891105	44.82530975341797	-73.1624755859375	49.900001525878906	1	10	1.1200000047683716	12.001172065734863	12.289921760559082	7	443.0	474.0	0.0	0.0	0	0.0	0.0	0.0	0.0	0.2930193861134681	0.0	0.0	-0.0503752773481652	0.1101332753896713	0.1244984865188598	9.768342971801758	0.3222970962524414	-0.6252356767654419	0.3168862462043762	0.6362296342849731	6	0.7470884958902995	-1.2193745930989583	0.1866401628	-14.644074312	0.1651047594	0.013439035192	0.024434609439999998	-0.001221730472	-0.79924	-0.52374	2.35132	0.1866401628	-14.644074312	0.1651047594	0.013439035192	0.024434609439999998	-0.001221730472	-0.79924	-0.52374	2.35132	0.17652	0.1471	0.11768	1.0173303725635332	24.01
5719	0	615565	33	-2053	22	11	22	1	-1345	-960	4082	7	3	5	24.01	1.0172218110041944	1.4065509549386406	44.82530975341797	-73.1624755859375	49.900001525878906	1	10	1.1200000047683716	12.080577850341797	12.275484085083008	7	443.0	474.0	0.0	0.0	0	0.0	0.0	0.0	0.0	0.3018335915213446	0.0	0.0	-0.0322759240797081	0.1053448766469955	0.1580173075199127	9.830592155456545	0.3222856223583221	-0.6252772808074951	0.3168815970420837	0.6361969113349915	6	0.7470884958902995	-1.2193745930989583	0.2368894374	-14.7373943934	0.15792629160000002	0.013439035192	0.026878070384	0.001221730472	-0.7801	-0.5568	2.36756	0.2368894374	-14.7373943934	0.15792629160000002	0.013439035192	0.026878070384	0.001221730472	-0.7801	-0.5568	2.36756	0.20594	0.08826	0.1471	1.0172218110041944	24.01
5720	0	615670	25	-2047	12	12	23	1	-1362	-951	4038	5	5	6	24.01	1.017429064890205	-0.3057467274453491	44.82530975341797	-73.1624755859375	49.900001525878906	1	10	1.1200000047683716	12.06974983215332	12.282703399658203	7	443.0	474.0	0.0	0.0	0	0.0	0.0	0.0	0.0	0.2681863089016258	0.0	0.0	-0.0644952009692057	0.0574608407914638	0.119710087776184	9.801861763000488	0.3158188164234161	-0.6295525431632996	0.3118019104003906	0.6377317309379578	6	0.7470884958902995	-1.2193745930989583	0.179461695	-14.694323586600001	0.0861416136	0.014660765664	0.028099800855999998	0.001221730472	-0.78996	-0.55158	2.34204	0.179461695	-14.694323586600001	0.0861416136	0.014660765664	0.028099800855999998	0.001221730472	-0.78996	-0.55158	2.34204	0.1471	0.1471	0.17652	1.017429064890205	24.01
5721	0	615775	20	-2047	8	13	21	3	-1317	-916	4045	6	4	6	24.01	1.0174882802862075	-0.7949227599898023	44.82530975341797	-73.1624755859375	49.900001525878906	1	10	1.100000023841858	12.06253147125244	12.2863130569458	7	443.0	474.0	0.0	0.0	0	0.0	0.0	0.0	0.0	0.1984107697560855	0.0	0.0	-0.1284276489234673	0.0383072271943092	0.0957680642604827	9.801861763000488	0.3157681822776794	-0.6295433044433594	0.3118878006935119	0.6377238631248474	6	0.7470884958902995	-1.2193745930989583	0.143569356	-14.694323586600001	0.0574277424	0.015882496136	0.025656339912	0.003665191416	-0.76386	-0.53128	2.3461	0.143569356	-14.694323586600001	0.0574277424	0.015882496136	0.025656339912	0.003665191416	-0.76386	-0.53128	2.3461	0.17652	0.11768	0.17652	1.0174882802862075	24.01
5722	0	615880	28	-2051	17	12	22	3	-1358	-978	4019	8	4	6	24.0	1.0173698494942018	0.1834523593907814	44.82530975341797	-73.1624755859375	49.900001525878906	1	10	1.100000023841858	12.022828102111816	12.264656066894531	7	443.0	474.0	0.0	0.0	0	0.0	0.0	0.0	0.0	0.1980777058161578	0.0	0.0	-0.1152333096780916	0.0814028605818748	0.1340752989053726	9.821015357971191	0.3156568109989166	-0.6295259594917297	0.3119436502456665	0.6377688646316528	6	0.7470884958902995	-1.2193745930989583	0.20099709840000002	-14.7230374578	0.12203395260000001	0.014660765664	0.026878070384	0.003665191416	-0.78764	-0.56724	2.33102	0.20099709840000002	-14.7230374578	0.12203395260000001	0.014660765664	0.026878070384	0.003665191416	-0.78764	-0.56724	2.33102	0.23536	0.11768	0.17652	1.0173698494942018	24.0
5723	0	615985	30	-2049	21	11	24	1	-1349	-917	3966	7	4	6	24.0	1.017320503330866	0.5911358777580773	44.82530975341797	-73.1624755859375	49.900001525878906	1	10	1.100000023841858	12.109453201293944	12.282703399658203	7	443.0	474.0	0.0	0.0	0	0.0	0.0	0.0	0.0	0.2834337522643845	0.0	0.0	-0.0163595428305417	0.1005564704537391	0.1436520963907241	9.81143856048584	0.3156481683254242	-0.6295775771141052	0.3119259476661682	0.6377307772636414	6	0.7470884958902995	-1.2193745930989583	0.215354034	-14.7086805222	0.1507478238	0.013439035192	0.029321531328	0.001221730472	-0.78242	-0.53186	2.30028	0.215354034	-14.7086805222	0.1507478238	0.013439035192	0.029321531328	0.001221730472	-0.78242	-0.53186	2.30028	0.20594	0.11768	0.17652	1.017320503330866	24.0
5724	0	616090	23	-2056	22	19	23	3	-1490	-700	3997	7	5	6	24.01	1.0173402417962003	0.4280605489296686	44.82530975341797	-73.1624755859375	49.900001525878906	1	10	1.100000023841858	12.080577850341797	12.268265724182127	7	443.0	474.0	0.0	0.0	0	0.0	0.0	0.0	0.0	0.3270457534663404	0.0	0.0	0.0300824188943978	0.1053448766469955	0.1101332753896713	9.84495735168457	0.3155670464038849	-0.6295451521873474	0.3119815289974212	0.6377757787704468	6	0.7470884958902995	-1.2193745930989583	0.1651047594	-14.7589297968	0.15792629160000002	0.023212878968	0.028099800855999998	0.003665191416	-0.8642	-0.406	2.31826	0.1651047594	-14.7589297968	0.15792629160000002	0.023212878968	0.028099800855999998	0.003665191416	-0.8642	-0.406	2.31826	0.20594	0.1471	0.17652	1.0173402417962003	24.01
5725	0	616195	30	-2056	15	12	19	1	-1264	-820	4033	7	4	6	24.01	1.017379718726869	0.1019175771566328	44.82530975341797	-73.1624755859375	49.900001525878906	1	10	1.100000023841858	12.109453201293944	12.228562355041504	7	443.0	474.0	0.0	0.0	0	0.0	0.0	0.0	0.0	0.2530721186677962	0.0	0.0	-0.0482799138354251	0.071826048195362	0.1436520963907241	9.84495735168457	0.3155640661716461	-0.6295055150985718	0.3119987845420837	0.6378078460693359	6	0.7470884958902995	-1.2193745930989583	0.215354034	-14.7589297968	0.107677017	0.014660765664	0.023212878968	0.001221730472	-0.73312	-0.4756	2.33914	0.215354034	-14.7589297968	0.107677017	0.014660765664	0.023212878968	0.001221730472	-0.73312	-0.4756	2.33914	0.20594	0.11768	0.17652	1.017379718726869	24.01
5726	0	616300	36	-2054	19	13	23	1	-1286	-890	4028	7	5	6	24.01	1.0173303725635332	0.5095978930891105	44.82530975341797	-73.1624755859375	49.900001525878906	1	10	1.100000023841858	12.095015525817873	12.271875381469728	7	443.0	474.0	0.0	0.0	0	0.0	0.0	0.0	0.0	0.199556083499971	0.0	0.0	-0.0957460344580479	0.090979665517807	0.1723825186491012	9.83538055419922	0.315538227558136	-0.6294962167739868	0.3120087683200836	0.6378250122070312	6	0.7470884958902995	-1.2193745930989583	0.2584248408	-14.7445728612	0.1363908882	0.015882496136	0.028099800855999998	0.001221730472	-0.74588	-0.5162	2.33624	0.2584248408	-14.7445728612	0.1363908882	0.015882496136	0.028099800855999998	0.001221730472	-0.74588	-0.5162	2.33624	0.20594	0.1471	0.17652	1.0173303725635332	24.01
5727	0	616405	28	-2050	21	13	26	3	-1412	-923	4094	8	4	5	24.01	1.017389587959536	0.0203834353780582	44.82530975341797	-73.1624755859375	49.900001525878906	1	10	1.100000023841858	12.098625183105469	12.289921760559082	7	443.0	474.0	0.0	0.0	0	0.0	0.0	0.0	0.0	0.2326329699560887	0.0	0.0	-0.0527530020662337	0.1005564704537391	0.1340752989053726	9.816226959228516	0.3154797852039337	-0.6294587850570679	0.3120515942573547	0.6378698348999023	6	0.7470884958902995	-1.2193745930989583	0.20099709840000002	-14.715858990000001	0.1507478238	0.015882496136	0.031764992272	0.003665191416	-0.81896	-0.53534	2.37452	0.20099709840000002	-14.715858990000001	0.1507478238	0.015882496136	0.031764992272	0.003665191416	-0.81896	-0.53534	2.37452	0.23536	0.11768	0.1471	1.017389587959536	24.01
5728	0	616510	21	-2049	20	12	21	3	-1383	-914	4072	6	5	6	24.01	1.017429064890205	-0.3057467274453491	44.82530975341797	-73.1624755859375	49.900001525878906	1	10	1.100000023841858	12.01200008392334	12.257437705993652	7	443.0	474.0	0.0	0.0	0	0.0	0.0	0.0	0.0	0.2136019380123685	0.0	0.0	-0.0665008247701745	0.0957680642604827	0.1005564704537391	9.81143856048584	0.3154187202453613	-0.6294544339179993	0.3121072351932525	0.6378772258758545	6	0.7470884958902995	-1.2193745930989583	0.1507478238	-14.7086805222	0.143569356	0.014660765664	0.025656339912	0.003665191416	-0.80214	-0.53012	2.36176	0.1507478238	-14.7086805222	0.143569356	0.014660765664	0.025656339912	0.003665191416	-0.80214	-0.53012	2.36176	0.17652	0.1471	0.17652	1.017429064890205	24.01
5729	0	616615	35	-2053	18	22	22	2	-1357	-892	4036	6	6	7	24.01	1.0173402417962003	0.4280605489296686	44.82530975341797	-73.1624755859375	49.900001525878906	1	10	1.100000023841858	12.09140682220459	12.23939037322998	7	443.0	474.0	0.0	0.0	0	0.0	0.0	0.0	0.0	0.1416790918776922	0.0	0.0	-0.1343589652963672	0.0861912593245506	0.1675941199064254	9.830592155456545	0.3153598308563232	-0.6294295787811279	0.3120894730091095	0.637939453125	6	0.7470884958902995	-1.2193745930989583	0.251246373	-14.7373943934	0.1292124204	0.026878070384	0.026878070384	0.002443460944	-0.78706	-0.51736	2.34088	0.251246373	-14.7373943934	0.1292124204	0.026878070384	0.026878070384	0.002443460944	-0.78706	-0.51736	2.34088	0.17652	0.17652	0.20594	1.0173402417962003	24.01
5730	0	616720	28	-2060	2	11	24	2	-1327	-909	4028	6	3	4	24.01	1.0173402417962003	0.4280605489296686	44.82530975341797	-73.1624755859375	50.0	1	10	1.100000023841858	12.03726577758789	12.279093742370604	7	443.0	474.0	0.0	0.0	0	0.0	0.0	0.0	0.0	0.2814223711429195	0.0	0.0	0.024994250148101	0.0095768067985773	0.1340752989053726	9.864110946655272	0.3034401535987854	-0.635013997554779	0.2991120219230652	0.6443705558776855	6	0.7470884958902995	-1.2193745930989583	0.20099709840000002	-14.787643668000001	0.0143569356	0.013439035192	0.029321531328	0.002443460944	-0.76966	-0.52722	2.33624	0.20099709840000002	-14.787643668000001	0.0143569356	0.013439035192	0.029321531328	0.002443460944	-0.76966	-0.52722	2.33624	0.17652	0.08826	0.11768	1.0173402417962003	24.01
5731	0	616825	24	-2052	16	11	23	3	-1303	-921	3984	7	5	6	24.02	1.0173501110288674	0.3465238452650377	44.82530975341797	-73.1624755859375	50.0	1	10	1.100000023841858	11.701593399047852	12.2863130569458	7	443.0	474.0	0.0	0.0	0	0.0	0.0	0.0	0.0	0.2916602355718988	0.0	0.0	0.037820902018685	0.0766144543886184	0.1149216815829277	9.825803756713867	0.3034168481826782	-0.634948194026947	0.2992025315761566	0.6444043517112732	6	0.7470884958902995	-1.2193745930989583	0.1722832272	-14.730215925600001	0.1148554848	0.013439035192	0.028099800855999998	0.003665191416	-0.75574	-0.53418	2.31072	0.1722832272	-14.730215925600001	0.1148554848	0.013439035192	0.028099800855999998	0.003665191416	-0.75574	-0.53418	2.31072	0.20594	0.1471	0.17652	1.0173501110288674	24.02
5732	0	616930	30	-2053	16	17	20	2	-1331	-860	4072	8	4	5	24.01	1.017389587959536	0.0203834353780582	44.82530975341797	-73.1624755859375	50.0	1	10	1.100000023841858	12.06974983215332	12.087797164916992	7	443.0	474.0	0.0	0.0	0	0.0	0.0	0.0	0.0	0.316236145702218	0.0	0.0	0.0567220668074964	0.0766144543886184	0.1436520963907241	9.830592155456545	0.3033497631549835	-0.6349090933799744	0.2992552518844604	0.6444500088691711	6	0.7470884958902995	-1.2193745930989583	0.215354034	-14.7373943934	0.1148554848	0.020769418023999998	0.024434609439999998	0.002443460944	-0.77198	-0.4988	2.36176	0.215354034	-14.7373943934	0.1148554848	0.020769418023999998	0.024434609439999998	0.002443460944	-0.77198	-0.4988	2.36176	0.23536	0.11768	0.1471	1.017389587959536	24.01
5733	0	617035	22	-2049	14	13	24	2	-1203	-865	4018	7	5	4	24.01	1.0173402417962003	0.4280605489296686	44.82530975341797	-73.1624755859375	49.900001525878906	1	10	1.100000023841858	12.06974983215332	12.26104736328125	7	443.0	474.0	0.0	0.0	0	0.0	0.0	0.0	0.0	0.3195249013790316	0.0	0.0	0.0566823257405547	0.0670376494526863	0.1053448766469955	9.81143856048584	0.3033258318901062	-0.6348559856414795	0.2993050813674927	0.6444904804229736	6	0.7470884958902995	-1.2193745930989583	0.15792629160000002	-14.7086805222	0.10049854920000001	0.015882496136	0.029321531328	0.002443460944	-0.69774	-0.5017	2.33044	0.15792629160000002	-14.7086805222	0.10049854920000001	0.015882496136	0.029321531328	0.002443460944	-0.69774	-0.5017	2.33044	0.20594	0.1471	0.11768	1.0173402417962003	24.01
5734	0	617140	22	-2046	18	12	22	1	-1360	-840	4017	7	5	6	24.02	1.0172908956328646	0.8357536749349334	44.82530975341797	-73.1624755859375	49.900001525878906	1	10	1.100000023841858	12.105843544006348	12.246609687805176	7	443.0	474.0	0.0	0.0	0	0.0	0.0	0.0	0.0	0.2753069081188624	0.0	0.0	0.0073841786347246	0.0861912593245506	0.1053448766469955	9.797073364257812	0.3032500147819519	-0.6347709894180298	0.2994076609611511	0.6445621848106384	6	0.7470884958902995	-1.2193745930989583	0.15792629160000002	-14.6871451188	0.1292124204	0.014660765664	0.026878070384	0.001221730472	-0.7888000000000001	-0.4872	2.32986	0.15792629160000002	-14.6871451188	0.1292124204	0.014660765664	0.026878070384	0.001221730472	-0.7888000000000001	-0.4872	2.32986	0.20594	0.1471	0.17652	1.0172908956328646	24.02
5735	0	617245	28	-2052	27	20	23	1	-1090	-782	4076	6	5	6	24.02	1.0173501110288674	0.3465238452650377	44.82530975341797	-73.1624755859375	49.900001525878906	1	10	1.100000023841858	11.636625289916992	12.282703399658203	7	443.0	474.0	0.0	0.0	0	0.0	0.0	0.0	0.0	0.305403172649853	0.0	0.0	0.0382006987603629	0.1292868852615356	0.1340752989053726	9.825803756713867	0.3031588196754455	-0.6346932053565979	0.2995052337646484	0.6446362733840942	6	0.7470884958902995	-1.2193745930989583	0.20099709840000002	-14.730215925600001	0.1938186306	0.024434609439999998	0.028099800855999998	0.001221730472	-0.6322	-0.45356	2.36408	0.20099709840000002	-14.730215925600001	0.1938186306	0.024434609439999998	0.028099800855999998	0.001221730472	-0.6322	-0.45356	2.36408	0.17652	0.1471	0.17652	1.0173501110288674	24.02
5736	0	617350	36	-2055	18	13	21	1	-1301	-904	4022	6	4	5	24.02	1.0173007648655317	0.7542137686687271	44.82530975341797	-73.1624755859375	49.79999923706055	1	10	1.100000023841858	12.06974983215332	12.246609687805176	7	443.0	474.0	0.0	0.0	0	0.0	0.0	0.0	0.0	0.3728131455013556	0.0	0.0	0.104008548399515	0.0861912593245506	0.1723825186491012	9.840168952941896	0.3031720519065857	-0.6346665024757385	0.2995380461215973	0.644641101360321	6	0.7470884958902995	-1.2193745930989583	0.2584248408	-14.751751329000001	0.1292124204	0.015882496136	0.025656339912	0.001221730472	-0.75458	-0.52432	2.33276	0.2584248408	-14.751751329000001	0.1292124204	0.015882496136	0.025656339912	0.001221730472	-0.75458	-0.52432	2.33276	0.17652	0.11768	0.1471	1.0173007648655317	24.02
5737	0	617455	31	-2057	21	13	23	1	-1362	-905	4040	5	5	6	24.02	1.0173007648655317	0.7542137686687271	44.82530975341797	-73.1624755859375	49.79999923706055	1	10	1.100000023841858	12.06974983215332	12.221343994140623	7	443.0	474.0	0.0	0.0	0	0.0	0.0	0.0	0.0	0.5274002966375104	0.0	0.0	0.2511055460398158	0.1005564704537391	0.1484405100345611	9.849745750427246	0.3031690120697021	-0.6345911026000977	0.2996079623699188	0.6446841955184937	6	0.7470884958902995	-1.2193745930989583	0.2225325018	-14.7661082646	0.1507478238	0.015882496136	0.028099800855999998	0.001221730472	-0.78996	-0.5249	2.3432	0.2225325018	-14.7661082646	0.1507478238	0.015882496136	0.028099800855999998	0.001221730472	-0.78996	-0.5249	2.3432	0.1471	0.1471	0.17652	1.0173007648655317	24.02
5738	0	617562	24	-2056	20	11	25	1	-1348	-898	3986	6	6	5	24.02	1.0172415494695288	1.243462814796575	44.82530975341797	-73.1624755859375	49.79999923706055	1	10	1.100000023841858	11.864015579223633	12.29353141784668	7	443.0	474.0	0.0	0.0	0	0.0	0.0	0.0	0.0	0.5392323986036941	0.0	0.0	0.2389674990517945	0.0957680642604827	0.1149216815829277	9.84495735168457	0.3031147718429565	-0.634539783000946	0.2996680438518524	0.6447324156761169	6	0.7470884958902995	-1.2193745930989583	0.1722832272	-14.7589297968	0.143569356	0.013439035192	0.0305432618	0.001221730472	-0.78184	-0.52084	2.31188	0.1722832272	-14.7589297968	0.143569356	0.013439035192	0.0305432618	0.001221730472	-0.78184	-0.52084	2.31188	0.17652	0.17652	0.1471	1.0172415494695288	24.02
5739	0	617665	27	-2048	38	13	22	2	-1329	-889	4041	6	4	4	24.02	1.0174093264248705	-0.1426829268712242	44.82530975341797	-73.1624755859375	49.79999923706055	1	10	1.100000023841858	11.67271900177002	12.297141075134276	7	443.0	474.0	0.0	0.0	0	0.0	0.0	0.0	0.0	0.5484297935684744	0.0	0.0	0.2203749234252182	0.181959331035614	0.1292868852615356	9.806650161743164	0.2928773164749145	-0.6392275094985962	0.2879912555217743	0.6501324772834778	6	0.7470884958902995	-1.2193745930989583	0.1938186306	-14.7015020544	0.2727817764	0.015882496136	0.026878070384	0.002443460944	-0.77082	-0.51562	2.34378	0.1938186306	-14.7015020544	0.2727817764	0.015882496136	0.026878070384	0.002443460944	-0.77082	-0.51562	2.34378	0.17652	0.11768	0.11768	1.0174093264248705	24.02
5740	0	617772	27	-2052	16	11	21	-1	-1298	-954	4000	6	4	6	24.02	1.0173994571922034	-0.0611500659645607	44.82530975341797	-73.16248321533203	49.79999923706055	1	10	1.100000023841858	11.990344047546388	12.159984588623049	7	443.0	474.0	0.0	0.0	0	0.0	0.0	0.0	0.0	0.5210523952544046	0.0	0.0	0.1692811919229686	0.0766144543886184	0.1292868852615356	9.825803756713867	0.2928787767887115	-0.6391957998275757	0.2880156934261322	0.6501520872116089	6	0.7470884958902995	-1.2193747202555338	0.1938186306	-14.730215925600001	0.1148554848	0.013439035192	0.025656339912	-0.001221730472	-0.75284	-0.55332	2.32	0.1938186306	-14.730215925600001	0.1148554848	0.013439035192	0.025656339912	-0.001221730472	-0.75284	-0.55332	2.32	0.17652	0.11768	0.17652	1.0173994571922034	24.02
5741	0	617875	25	-2048	25	15	23	0	-1310	-1087	4090	6	5	8	24.02	1.0172908956328646	0.8357536749349334	44.82530975341797	-73.16248321533203	49.79999923706055	1	10	1.100000023841858	12.080577850341797	12.271875381469728	7	443.0	474.0	0.0	0.0	0	0.0	0.0	0.0	0.0	0.4405649971390295	0.0	0.0	0.065101857055366	0.119710087776184	0.119710087776184	9.806650161743164	0.2928948104381561	-0.6391138434410095	0.2880356013774872	0.6502166390419006	6	0.7470884958902995	-1.2193747202555338	0.179461695	-14.7015020544	0.179461695	0.01832595708	0.028099800855999998	0.0	-0.7598	-0.63046	2.3722	0.179461695	-14.7015020544	0.179461695	0.01832595708	0.028099800855999998	0.0	-0.7598	-0.63046	2.3722	0.17652	0.1471	0.23536	1.0172908956328646	24.02
5742	0	617980	30	-2050	20	13	22	1	-1265	-1017	4104	7	5	6	24.02	1.0173007648655317	0.7542137686687271	44.82530975341797	-73.16248321533203	49.79999923706055	1	10	1.100000023841858	12.06974983215332	12.282703399658203	7	443.0	474.0	0.0	0.0	0	0.0	0.0	0.0	0.0	0.4308051412641581	0.0	0.0	0.0514270827088947	0.0957680642604827	0.1436520963907241	9.816226959228516	0.2929060161113739	-0.6390902996063232	0.2880501449108124	0.6502283215522766	6	0.7470884958902995	-1.2193747202555338	0.215354034	-14.715858990000001	0.143569356	0.015882496136	0.026878070384	0.001221730472	-0.7337	-0.58986	2.38032	0.215354034	-14.715858990000001	0.143569356	0.015882496136	0.026878070384	0.001221730472	-0.7337	-0.58986	2.38032	0.20594	0.1471	0.17652	1.0173007648655317	24.02
5743	0	618085	30	-2052	17	13	22	3	-1278	-907	4088	5	5	7	24.02	1.0173599802615347	0.2649877820903133	44.82530975341797	-73.1624755859375	49.79999923706055	1	10	1.100000023841858	11.517516136169434	12.297141075134276	7	443.0	474.0	0.0	0.0	0	0.0	0.0	0.0	0.0	0.4034707823120434	0.0	0.0	0.0183560589814077	0.0814028605818748	0.1436520963907241	9.825803756713867	0.2928068339824676	-0.6390669941902161	0.2881459891796112	0.6502533555030823	6	0.7470884958902995	-1.2193745930989583	0.215354034	-14.730215925600001	0.12203395260000001	0.015882496136	0.026878070384	0.003665191416	-0.74124	-0.52606	2.37104	0.215354034	-14.730215925600001	0.12203395260000001	0.015882496136	0.026878070384	0.003665191416	-0.74124	-0.52606	2.37104	0.1471	0.1471	0.20594	1.0173599802615347	24.02
5744	0	618190	25	-2051	26	8	23	2	-1356	-933	4058	7	5	6	24.02	1.0173106340981988	0.6726745029463782	44.82530975341797	-73.1624755859375	49.79999923706055	1	10	1.100000023841858	12.040875434875488	12.228562355041504	7	443.0	474.0	0.0	0.0	0	0.0	0.0	0.0	0.0	0.4565812753624105	0.0	0.0	0.0723788420240007	0.1244984865188598	0.119710087776184	9.821015357971191	0.2927788496017456	-0.6390239000320435	0.2882108092308044	0.6502795815467834	6	0.7470884958902995	-1.2193745930989583	0.179461695	-14.7230374578	0.1866401628	0.009773843776	0.028099800855999998	0.002443460944	-0.78648	-0.54114	2.35364	0.179461695	-14.7230374578	0.1866401628	0.009773843776	0.028099800855999998	0.002443460944	-0.78648	-0.54114	2.35364	0.20594	0.1471	0.17652	1.0173106340981988	24.02
5745	0	618295	24	-2048	21	15	23	1	-1334	-920	4111	6	5	6	24.02	1.0173007648655317	0.7542137686687271	44.82530975341797	-73.1624755859375	49.79999923706055	1	10	1.100000023841858	12.095015525817873	12.264656066894531	7	443.0	474.0	0.0	0.0	0	0.0	0.0	0.0	0.0	0.4858951860739549	0.0	0.0	0.094725077127507	0.1005564704537391	0.1149216815829277	9.806650161743164	0.2927385568618774	-0.6389675140380859	0.2882570326328277	0.6503326892852783	6	0.7470884958902995	-1.2193745930989583	0.1722832272	-14.7015020544	0.1507478238	0.01832595708	0.028099800855999998	0.001221730472	-0.77372	-0.5336	2.38438	0.1722832272	-14.7015020544	0.1507478238	0.01832595708	0.028099800855999998	0.001221730472	-0.77372	-0.5336	2.38438	0.17652	0.1471	0.17652	1.0173007648655317	24.02
5746	0	618400	35	-2059	22	12	23	2	-1322	-874	4111	6	5	6	24.02	1.0173599802615347	0.2649877820903133	44.82530975341797	-73.16248321533203	49.79999923706055	1	10	1.100000023841858	11.968688011169434	12.2863130569458	7	443.0	474.0	0.0	0.0	0	0.0	0.0	0.0	0.0	0.5299960385421291	0.0	0.0	0.1301027040583653	0.1053448766469955	0.1675941199064254	9.859322547912598	0.2927091717720032	-0.6389496922492981	0.2882817387580871	0.650352418422699	6	0.7470884958902995	-1.2193747202555338	0.251246373	-14.7804652002	0.15792629160000002	0.014660765664	0.028099800855999998	0.002443460944	-0.76676	-0.50692	2.38438	0.251246373	-14.7804652002	0.15792629160000002	0.014660765664	0.028099800855999998	0.002443460944	-0.76676	-0.50692	2.38438	0.17652	0.1471	0.17652	1.0173599802615347	24.02
5747	0	618505	33	-2046	22	13	23	2	-1323	-865	4009	7	5	6	24.03	1.0174191956575376	-0.2242151473615505	44.82530975341797	-73.16248321533203	49.79999923706055	1	10	1.100000023841858	12.113062858581545	12.268265724182127	7	443.0	474.0	0.0	0.0	0	0.0	0.0	0.0	0.0	0.4107653938311065	0.0	0.0	-0.0121573100350721	0.1053448766469955	0.1580173075199127	9.797073364257812	0.2926832139492035	-0.6389117240905762	0.2883133590221405	0.6503875255584717	6	0.7470884958902995	-1.2193747202555338	0.2368894374	-14.6871451188	0.15792629160000002	0.015882496136	0.028099800855999998	0.002443460944	-0.76734	-0.5017	2.32522	0.2368894374	-14.6871451188	0.15792629160000002	0.015882496136	0.028099800855999998	0.002443460944	-0.76734	-0.5017	2.32522	0.20594	0.1471	0.17652	1.0174191956575376	24.03
5748	0	618610	24	-2085	28	14	23	1	-1361	-922	4061	8	4	6	24.03	1.017379718726869	0.1019175771566328	44.82530975341797	-73.16248321533203	49.79999923706055	1	10	1.100000023841858	11.990344047546388	12.289921760559082	7	443.0	474.0	0.0	0.0	0	0.0	0.0	0.0	0.0	0.3839206382415759	0.0	0.0	-0.0390262585565103	0.1340752989053726	0.1149216815829277	9.983820915222168	0.2926412522792816	-0.6388373970985413	0.2883818745613098	0.6504489779472351	6	0.7470884958902995	-1.2193747202555338	0.1722832272	-14.967105363	0.20099709840000002	0.017104226607999998	0.028099800855999998	0.001221730472	-0.78938	-0.53476	2.35538	0.1722832272	-14.967105363	0.20099709840000002	0.017104226607999998	0.028099800855999998	0.001221730472	-0.78938	-0.53476	2.35538	0.23536	0.11768	0.17652	1.017379718726869	24.03
5749	0	618715	30	-2053	12	13	21	3	-1334	-920	4068	6	4	5	24.03	1.01727115716753	0.9988354091381546	44.82530975341797	-73.16248321533203	49.79999923706055	1	10	1.100000023841858	12.105843544006348	12.282703399658203	7	443.0	474.0	0.0	0.0	0	0.0	0.0	0.0	0.0	0.3645916565037449	0.0	0.0	-0.0484616674020121	0.0574608407914638	0.1436520963907241	9.830592155456545	0.2936297059059143	-0.6390234231948853	0.2889325618743896	0.6495757699012756	6	0.7470884958902995	-1.2193747202555338	0.215354034	-14.7373943934	0.0861416136	0.015882496136	0.025656339912	0.003665191416	-0.77372	-0.5336	2.35944	0.215354034	-14.7373943934	0.0861416136	0.015882496136	0.025656339912	0.003665191416	-0.77372	-0.5336	2.35944	0.17652	0.11768	0.1471	1.01727115716753	24.03
5750	0	618820	26	-2053	18	8	23	1	-1355	-905	4080	6	5	4	24.03	1.0172119417715273	1.4880959859529794	44.82530975341797	-73.16248321533203	49.79999923706055	1	10	1.100000023841858	12.098625183105469	12.170812606811523	7	443.0	474.0	0.0	0.0	0	0.0	0.0	0.0	0.0	0.4083041285511866	0.0	0.0	0.0017010360438848	0.0861912593245506	0.1244984865188598	9.830592155456545	0.2936007678508758	-0.6390286087989807	0.2889744639396667	0.6495651602745056	6	0.7470884958902995	-1.2193747202555338	0.1866401628	-14.7373943934	0.1292124204	0.009773843776	0.028099800855999998	0.001221730472	-0.7859	-0.5249	2.3664	0.1866401628	-14.7373943934	0.1292124204	0.009773843776	0.028099800855999998	0.001221730472	-0.7859	-0.5249	2.3664	0.17652	0.1471	0.11768	1.0172119417715273	24.03
5751	0	618925	22	-2041	21	13	24	2	-1343	-945	4014	7	5	4	24.03	1.017320503330866	0.5911358777580773	44.82530975341797	-73.16248321533203	49.79999923706055	1	10	1.100000023841858	11.80987548828125	12.282703399658203	7	443.0	474.0	0.0	0.0	0	0.0	0.0	0.0	0.0	0.3779449080160225	0.0	0.0	-0.0277257568026883	0.1005564704537391	0.1053448766469955	9.773131370544434	0.293547123670578	-0.6389511823654175	0.2890101969242096	0.6496495604515076	6	0.7470884958902995	-1.2193747202555338	0.15792629160000002	-14.6512527798	0.1507478238	0.015882496136	0.029321531328	0.002443460944	-0.77894	-0.5481	2.32812	0.15792629160000002	-14.6512527798	0.1507478238	0.015882496136	0.029321531328	0.002443460944	-0.77894	-0.5481	2.32812	0.20594	0.1471	0.11768	1.017320503330866	24.03
5752	0	619030	26	-2049	14	13	22	2	-1336	-1132	4031	7	4	5	24.03	1.0173698494942018	0.1834523593907814	44.82530975341797	-73.16248321533203	49.79999923706055	1	10	1.100000023841858	12.116671562194824	12.30074977874756	7	443.0	474.0	0.0	0.0	0	0.0	0.0	0.0	0.0	0.3773771297327094	0.0	0.0	-0.0242993973631228	0.0670376494526863	0.1244984865188598	9.81143856048584	0.2935091257095337	-0.6389228701591492	0.2890301048755646	0.6496857404708862	6	0.7470884958902995	-1.2193747202555338	0.1866401628	-14.7086805222	0.10049854920000001	0.015882496136	0.026878070384	0.002443460944	-0.77488	-0.65656	2.33798	0.1866401628	-14.7086805222	0.10049854920000001	0.015882496136	0.026878070384	0.002443460944	-0.77488	-0.65656	2.33798	0.20594	0.11768	0.1471	1.0173698494942018	24.03
5753	0	619135	29	-2043	16	13	23	5	-1338	-921	3972	7	4	4	24.03	1.017320503330866	0.5911358777580773	44.82530975341797	-73.16248321533203	49.79999923706055	1	10	1.100000023841858	12.105843544006348	12.282703399658203	7	443.0	474.0	0.0	0.0	0	0.0	0.0	0.0	0.0	0.4326440224430214	0.0	0.0	0.0369606926991261	0.0766144543886184	0.1388636976480484	9.782708168029783	0.2934345006942749	-0.6388804316520691	0.2891287803649902	0.6497172713279724	6	0.7470884958902995	-1.2193747202555338	0.2081755662	-14.6656097154	0.1148554848	0.015882496136	0.028099800855999998	0.0061086523599999994	-0.77604	-0.53418	2.30376	0.2081755662	-14.6656097154	0.1148554848	0.015882496136	0.028099800855999998	0.0061086523599999994	-0.77604	-0.53418	2.30376	0.20594	0.11768	0.11768	1.017320503330866	24.03
5754	0	619240	18	-2042	17	12	23	1	-1318	-886	4044	7	4	7	24.04	1.0172810264001977	0.917294221754806	44.82530975341797	-73.16248321533203	49.79999923706055	1	10	1.100000023841858	11.766562461853027	12.279093742370604	7	443.0	474.0	0.0	0.0	0	0.0	0.0	0.0	0.0	0.4301152584761074	0.0	0.0	0.0335861040992262	0.0814028605818748	0.0861912593245506	9.77791976928711	0.2934313118457794	-0.6388741135597229	0.2891756296157837	0.6497041583061218	6	0.7470884958902995	-1.2193747202555338	0.1292124204	-14.658431247600001	0.12203395260000001	0.014660765664	0.028099800855999998	0.001221730472	-0.76444	-0.51388	2.34552	0.1292124204	-14.658431247600001	0.12203395260000001	0.014660765664	0.028099800855999998	0.001221730472	-0.76444	-0.51388	2.34552	0.20594	0.11768	0.20594	1.0172810264001977	24.04
5755	0	619345	25	-2051	17	7	23	1	-1576	-750	4042	7	4	6	24.03	1.017379718726869	0.1019175771566328	44.82530975341797	-73.16248321533203	49.79999923706055	1	10	1.3899999856948853	12.105843544006348	12.192468643188477	7	443.0	474.0	0.0	0.0	0	0.0	0.0	0.0	0.0	0.3911319430765732	0.0	0.0	-0.0098826288923376	0.0814028605818748	0.119710087776184	9.821015357971191	0.2934142351150512	-0.638892412185669	0.2891950011253357	0.6496851444244385	6	0.7470884958902995	-1.2193747202555338	0.179461695	-14.7230374578	0.12203395260000001	0.008552113303999999	0.028099800855999998	0.001221730472	-0.91408	-0.435	2.34436	0.179461695	-14.7230374578	0.12203395260000001	0.008552113303999999	0.028099800855999998	0.001221730472	-0.91408	-0.435	2.34436	0.20594	0.11768	0.17652	1.017379718726869	24.03
5756	0	619450	28	-2051	16	13	22	2	-1364	-926	4017	5	5	5	24.03	1.0173303725635332	0.5095978930891105	44.82530975341797	-73.16248321533203	49.79999923706055	1	10	1.3899999856948853	12.105843544006348	12.268265724182127	7	443.0	474.0	0.0	0.0	0	0.0	0.0	0.0	0.0	0.4380789409522488	0.0	0.0	0.0393130030123567	0.0766144543886184	0.1340752989053726	9.821015357971191	0.2933812141418457	-0.6388059258460999	0.2892408967018127	0.6497647166252136	6	0.7470884958902995	-1.2193747202555338	0.20099709840000002	-14.7230374578	0.1148554848	0.015882496136	0.026878070384	0.002443460944	-0.79112	-0.53708	2.32986	0.20099709840000002	-14.7230374578	0.1148554848	0.015882496136	0.026878070384	0.002443460944	-0.79112	-0.53708	2.32986	0.1471	0.1471	0.1471	1.0173303725635332	24.03
5757	0	619555	30	-2048	20	11	25	2	-1355	-956	4026	7	4	6	24.03	1.017429064890205	-0.3057467274453491	44.82530975341797	-73.16248321533203	49.79999923706055	1	10	1.3899999856948853	12.095015525817873	12.253828048706056	7	443.0	474.0	0.0	0.0	0	0.0	0.0	0.0	0.0	0.3963624477572541	0.0	0.0	-0.0083348242134833	0.0957680642604827	0.1436520963907241	9.806650161743164	0.2933560013771057	-0.6387223601341248	0.2893203794956207	0.6498229503631592	6	0.7470884958902995	-1.2193747202555338	0.215354034	-14.7015020544	0.143569356	0.013439035192	0.0305432618	0.002443460944	-0.7859	-0.55448	2.33508	0.215354034	-14.7015020544	0.143569356	0.013439035192	0.0305432618	0.002443460944	-0.7859	-0.55448	2.33508	0.20594	0.11768	0.17652	1.017429064890205	24.03
5758	0	619660	28	-2051	21	11	21	1	-1394	-984	4104	7	5	5	24.04	1.0173303725635332	0.5095978930891105	44.82530975341797	-73.16248321533203	49.79999923706055	1	10	1.3899999856948853	12.120281219482422	12.217734336853027	7	443.0	474.0	0.0	0.0	0	0.0	0.0	0.0	0.0	0.3511660176585026	0.0	0.0	-0.0524968619901557	0.1005564704537391	0.1340752989053726	9.821015357971191	0.2933277487754822	-0.6386460661888123	0.2893821001052856	0.6498830914497375	6	0.7470884958902995	-1.2193747202555338	0.20099709840000002	-14.7230374578	0.1507478238	0.013439035192	0.025656339912	0.001221730472	-0.80852	-0.57072	2.38032	0.20099709840000002	-14.7230374578	0.1507478238	0.013439035192	0.025656339912	0.001221730472	-0.80852	-0.57072	2.38032	0.20594	0.1471	0.1471	1.0173303725635332	24.04
5759	0	619765	27	-2045	13	13	23	4	-1345	-858	4088	6	4	6	24.04	1.017389587959536	0.0203834353780582	44.82530975341797	-73.16248321533203	49.79999923706055	1	10	1.100000023841858	11.87484359741211	12.289921760559082	7	443.0	474.0	0.0	0.0	0	0.0	0.0	0.0	0.0	0.3032561153667772	0.0	0.0	-0.0979954269642444	0.0622492432594299	0.1292868852615356	9.792284965515137	0.3188479244709015	-0.6270087957382202	0.3135747611522674	0.6378612518310547	6	0.7470884958902995	-1.2193747202555338	0.1938186306	-14.679966651	0.0933200814	0.015882496136	0.028099800855999998	0.004886921888	-0.7801	-0.49764	2.37104	0.1938186306	-14.679966651	0.0933200814	0.015882496136	0.028099800855999998	0.004886921888	-0.7801	-0.49764	2.37104	0.17652	0.11768	0.17652	1.017389587959536	24.04
5760	0	619870	28	-2052	19	10	23	1	-1364	-923	4036	6	5	7	24.03	1.0172218110041944	1.4065509549386406	44.82530975341797	-73.16248321533203	49.79999923706055	1	10	1.100000023841858	12.113062858581545	12.279093742370604	7	443.0	474.0	0.0	0.0	0	0.0	0.0	0.0	0.0	0.334797067360751	0.0	0.0	-0.0535473816125185	0.090979665517807	0.1340752989053726	9.825803756713867	0.3187885880470276	-0.6270086765289307	0.3135628402233124	0.6378967761993408	6	0.7470884958902995	-1.2193747202555338	0.20099709840000002	-14.730215925600001	0.1363908882	0.012217304719999999	0.028099800855999998	0.001221730472	-0.79112	-0.53534	2.34088	0.20099709840000002	-14.730215925600001	0.1363908882	0.012217304719999999	0.028099800855999998	0.001221730472	-0.79112	-0.53534	2.34088	0.17652	0.1471	0.20594	1.0172218110041944	24.03
5761	0	619975	26	-2048	19	11	23	0	-1250	-993	4015	7	5	5	24.04	1.017389587959536	0.0203834353780582	44.82530975341797	-73.16248321533203	49.79999923706055	1	10	1.100000023841858	12.040875434875488	12.275484085083008	7	443.0	474.0	0.0	0.0	0	0.0	0.0	0.0	0.0	0.3796851202160116	0.0	0.0	0.0013307873129822	0.090979665517807	0.1244984865188598	9.806650161743164	0.318792849779129	-0.6269326210021973	0.3135983943939209	0.6379519104957581	6	0.7470884958902995	-1.2193747202555338	0.1866401628	-14.7015020544	0.1363908882	0.013439035192	0.028099800855999998	0.0	-0.725	-0.57594	2.3287	0.1866401628	-14.7015020544	0.1363908882	0.013439035192	0.028099800855999998	0.0	-0.725	-0.57594	2.3287	0.20594	0.1471	0.1471	1.017389587959536	24.04
5762	0	620080	30	-2040	10	16	15	-2	-1327	-1079	4015	6	4	6	24.04	1.0172810264001977	0.917294221754806	44.82530975341797	-73.16248321533203	49.70000076293945	1	10	1.100000023841858	12.073359489440918	12.275484085083008	7	443.0	474.0	0.0	0.0	0	0.0	0.0	0.0	0.0	0.420340629724159	0.0	0.0	0.0486772425141083	0.0478840321302413	0.1436520963907241	9.768342971801758	0.318865567445755	-0.6268163323402405	0.3136762976646423	0.6379916071891785	6	0.7470884958902995	-1.2193747202555338	0.215354034	-14.644074312	0.071784678	0.019547687552	0.01832595708	-0.002443460944	-0.76966	-0.62582	2.3287	0.215354034	-14.644074312	0.071784678	0.019547687552	0.01832595708	-0.002443460944	-0.76966	-0.62582	2.3287	0.17652	0.11768	0.17652	1.0172810264001977	24.04
5763	0	620185	37	-2048	13	12	22	2	-1234	-893	4118	6	5	6	24.04	1.0173303725635332	0.5095978930891105	44.82530975341797	-73.16248321533203	49.70000076293945	1	10	1.100000023841858	12.080577850341797	12.253828048706056	7	443.0	474.0	0.0	0.0	0	0.0	0.0	0.0	0.0	0.4763991060810189	0.0	0.0	0.098013702979854	0.0622492432594299	0.1771709322929382	9.806650161743164	0.3188320696353912	-0.6267656087875366	0.3137297928333282	0.6380318403244019	6	0.7470884958902995	-1.2193747202555338	0.26560330860000003	-14.7015020544	0.0933200814	0.014660765664	0.026878070384	0.002443460944	-0.71572	-0.51794	2.38844	0.26560330860000003	-14.7015020544	0.0933200814	0.014660765664	0.026878070384	0.002443460944	-0.71572	-0.51794	2.38844	0.17652	0.1471	0.17652	1.0173303725635332	24.04
5764	0	620290	30	-2048	23	13	23	0	-1317	-908	3998	7	5	6	24.05	1.0173501110288674	0.3465238452650377	44.82530975341797	-73.16248321533203	49.70000076293945	1	10	1.100000023841858	12.102234840393066	12.275484085083008	7	443.0	474.0	0.0	0.0	0	0.0	0.0	0.0	0.0	0.4319928794333188	0.0	0.0	0.0439801791681416	0.1101332753896713	0.1436520963907241	9.806650161743164	0.318796306848526	-0.6267226934432983	0.3138161599636078	0.6380494236946106	6	0.7470884958902995	-1.2193747202555338	0.215354034	-14.7015020544	0.1651047594	0.015882496136	0.028099800855999998	0.0	-0.76386	-0.52664	2.3188400000000002	0.215354034	-14.7015020544	0.1651047594	0.015882496136	0.028099800855999998	0.0	-0.76386	-0.52664	2.3188400000000002	0.20594	0.1471	0.17652	1.0173501110288674	24.05
5765	0	620395	25	-2047	24	11	21	1	-1364	-898	4025	7	4	6	24.04	1.017389587959536	0.0203834353780582	44.82530975341797	-73.16248321533203	49.70000076293945	1	10	1.1100000143051147	12.06974983215332	12.2863130569458	7	443.0	474.0	0.0	0.0	0	0.0	0.0	0.0	0.0	0.3919655041985642	0.0	0.0	-0.0030341768608053	0.1149216815829277	0.119710087776184	9.801861763000488	0.3188133239746094	-0.6266595125198364	0.313869297504425	0.638076901435852	6	0.7470884958902995	-1.2193747202555338	0.179461695	-14.694323586600001	0.1722832272	0.013439035192	0.025656339912	0.001221730472	-0.79112	-0.52084	2.3345	0.179461695	-14.694323586600001	0.1722832272	0.013439035192	0.025656339912	0.001221730472	-0.79112	-0.52084	2.3345	0.20594	0.11768	0.17652	1.017389587959536	24.04
5766	0	620500	33	-2052	22	14	22	3	-1354	-906	4066	7	4	6	24.04	1.017448803355539	-0.4688079664325999	44.82530975341797	-73.16248321533203	49.70000076293945	1	10	1.1100000143051147	11.802656173706056	12.289921760559082	7	443.0	474.0	0.0	0.0	0	0.0	0.0	0.0	0.0	0.3912008685992513	0.0	0.0	-0.0046531146772763	0.1053448766469955	0.1580173075199127	9.825803756713867	0.3187646269798279	-0.6266290545463562	0.3139179050922394	0.638107180595398	6	0.7470884958902995	-1.2193747202555338	0.2368894374	-14.730215925600001	0.15792629160000002	0.017104226607999998	0.026878070384	0.003665191416	-0.78532	-0.5254800000000001	2.35828	0.2368894374	-14.730215925600001	0.15792629160000002	0.017104226607999998	0.026878070384	0.003665191416	-0.78532	-0.5254800000000001	2.35828	0.20594	0.11768	0.17652	1.017448803355539	24.04
5767	0	620605	34	-2048	18	12	23	1	-1378	-938	4047	6	5	7	24.04	1.0173402417962003	0.4280605489296686	44.82530975341797	-73.16248321533203	49.70000076293945	1	10	1.1100000143051147	12.113062858581545	12.275484085083008	7	443.0	474.0	0.0	0.0	0	0.0	0.0	0.0	0.0	0.4508230242322466	0.0	0.0	0.0599885013099473	0.0861912593245506	0.1628057211637497	9.806650161743164	0.31876340508461	-0.6265808343887329	0.3139181137084961	0.6381549835205078	6	0.7470884958902995	-1.2193747202555338	0.24406790520000002	-14.7015020544	0.1292124204	0.014660765664	0.028099800855999998	0.001221730472	-0.79924	-0.54404	2.34726	0.24406790520000002	-14.7015020544	0.1292124204	0.014660765664	0.028099800855999998	0.001221730472	-0.79924	-0.54404	2.34726	0.17652	0.1471	0.20594	1.0173402417962003	24.04
5768	0	620710	27	-2055	25	13	23	2	-1262	-897	4038	7	4	5	24.05	1.0174093264248705	-0.2446010683342432	44.82530975341797	-73.16248321533203	49.79999923706055	1	10	1.1100000143051147	11.961468696594238	12.289921760559082	7	443.0	474.0	0.0	0.0	0	0.0	0.0	0.0	0.0	0.4240300505400654	0.0	0.0	0.0250845324472454	0.119710087776184	0.1292868852615356	9.840168952941896	0.3060014247894287	-0.6332235932350159	0.3008878231048584	0.6440944671630859	6	0.7470884958902995	-1.2193747202555338	0.1938186306	-14.751751329000001	0.179461695	0.015882496136	0.028099800855999998	0.002443460944	-0.73196	-0.5202600000000001	2.34204	0.1938186306	-14.751751329000001	0.179461695	0.015882496136	0.028099800855999998	0.002443460944	-0.73196	-0.5202600000000001	2.34204	0.20594	0.11768	0.1471	1.0174093264248705	24.05
5769	0	620815	29	-2053	16	14	23	4	-1354	-925	4071	6	5	6	24.05	1.0173994571922034	-0.163068019325451	44.82530975341797	-73.16248321533203	49.79999923706055	1	10	1.1100000143051147	12.080577850341797	12.2863130569458	7	443.0	474.0	0.0	0.0	0	0.0	0.0	0.0	0.0	0.3402561669354783	0.0	0.0	-0.0639791808611592	0.0766144543886184	0.1388636976480484	9.830592155456545	0.3059569299221039	-0.633154571056366	0.3009628355503082	0.6441483497619629	6	0.7470884958902995	-1.2193747202555338	0.2081755662	-14.7373943934	0.1148554848	0.017104226607999998	0.028099800855999998	0.004886921888	-0.78532	-0.5365	2.36118	0.2081755662	-14.7373943934	0.1148554848	0.017104226607999998	0.028099800855999998	0.004886921888	-0.78532	-0.5365	2.36118	0.17652	0.1471	0.17652	1.0173994571922034	24.05
5770	0	620920	32	-2048	15	11	26	1	-1348	-890	4067	7	4	6	24.05	1.0173994571922034	-0.163068019325451	44.82530975341797	-73.16248321533203	49.79999923706055	1	10	1.1100000143051147	11.838749885559082	12.282703399658203	7	443.0	474.0	0.0	0.0	0	0.0	0.0	0.0	0.0	0.3513623268712125	0.0	0.0	-0.0476565873348489	0.071826048195362	0.1532289087772369	9.806650161743164	0.3059341609477997	-0.6331189274787903	0.300985038280487	0.6441838145256042	6	0.7470884958902995	-1.2193747202555338	0.2297109696	-14.7015020544	0.107677017	0.013439035192	0.031764992272	0.001221730472	-0.78184	-0.5162	2.35886	0.2297109696	-14.7015020544	0.107677017	0.013439035192	0.031764992272	0.001221730472	-0.78184	-0.5162	2.35886	0.20594	0.11768	0.17652	1.0173994571922034	24.05
5771	0	621025	27	-2057	18	11	23	0	-1367	-961	4064	5	4	6	24.05	1.0172415494695288	1.1415478712315972	44.82530975341797	-73.16248321533203	49.79999923706055	1	10	1.1100000143051147	12.073359489440918	12.232172012329102	7	443.0	474.0	0.0	0.0	0	0.0	0.0	0.0	0.0	0.4154966934440911	0.0	0.0	0.0279960619167554	0.0861912593245506	0.1292868852615356	9.849745750427246	0.3059319257736206	-0.633073627948761	0.3010274767875671	0.6442095041275024	6	0.7470884958902995	-1.2193747202555338	0.1938186306	-14.7661082646	0.1292124204	0.013439035192	0.028099800855999998	0.0	-0.79286	-0.55738	2.35712	0.1938186306	-14.7661082646	0.1292124204	0.013439035192	0.028099800855999998	0.0	-0.79286	-0.55738	2.35712	0.1471	0.11768	0.17652	1.0172415494695288	24.05
5772	0	621130	25	-2050	14	11	23	2	-1403	-908	4072	6	4	7	24.05	1.0175080187515422	-1.0598963371225345	44.82530975341797	-73.16248321533203	49.79999923706055	1	10	1.1100000143051147	11.651062965393066	12.29353141784668	7	443.0	474.0	0.0	0.0	0	0.0	0.0	0.0	0.0	0.3411582906081928	0.0	0.0	-0.0548724745440093	0.0670376494526863	0.119710087776184	9.816226959228516	0.3059462606906891	-0.6330771446228027	0.3010530769824981	0.644187331199646	6	0.7470884958902995	-1.2193747202555338	0.179461695	-14.715858990000001	0.10049854920000001	0.013439035192	0.028099800855999998	0.002443460944	-0.81374	-0.52664	2.36176	0.179461695	-14.715858990000001	0.10049854920000001	0.013439035192	0.028099800855999998	0.002443460944	-0.81374	-0.52664	2.36176	0.17652	0.11768	0.20594	1.0175080187515422	24.05
5773	0	621235	31	-2052	20	12	22	1	-1238	-886	4119	7	4	6	24.05	1.0174586725882062	-0.6522567072900963	44.82530975341797	-73.16248321533203	49.79999923706055	1	10	1.1100000143051147	12.051703453063965	12.275484085083008	7	443.0	474.0	0.0	0.0	0	0.0	0.0	0.0	0.0	0.2930352002791181	0.0	0.0	-0.0999918410383853	0.0957680642604827	0.1484405100345611	9.825803756713867	0.3058972954750061	-0.6329723596572876	0.3011120855808258	0.6442859172821045	6	0.7470884958902995	-1.2193747202555338	0.2225325018	-14.730215925600001	0.143569356	0.014660765664	0.026878070384	0.001221730472	-0.71804	-0.51388	2.38902	0.2225325018	-14.730215925600001	0.143569356	0.014660765664	0.026878070384	0.001221730472	-0.71804	-0.51388	2.38902	0.20594	0.11768	0.17652	1.0174586725882062	24.05
5774	0	621340	26	-2049	22	13	21	2	-1506	-868	4123	7	4	6	24.05	1.0173698494942018	0.0815349703411819	44.82530975341797	-73.16248321533203	49.79999923706055	1	10	1.1100000143051147	11.914546966552734	12.2863130569458	7	443.0	474.0	0.0	0.0	0	0.0	0.0	0.0	0.0	0.2977095199392069	0.0	0.0	-0.0846072374396824	0.1053448766469955	0.1244984865188598	9.81143856048584	0.3058908581733703	-0.6328915357589722	0.3011691272258758	0.6443418264389038	6	0.7470884958902995	-1.2193747202555338	0.1866401628	-14.7086805222	0.15792629160000002	0.015882496136	0.025656339912	0.002443460944	-0.87348	-0.50344	2.39134	0.1866401628	-14.7086805222	0.15792629160000002	0.015882496136	0.025656339912	0.002443460944	-0.87348	-0.50344	2.39134	0.20594	0.11768	0.17652	1.0173698494942018	24.05
5775	0	621445	24	-2048	22	11	23	0	-1138	-813	4123	6	5	6	24.05	1.0173698494942018	0.0815349703411819	44.82530975341797	-73.16248321533203	49.79999923706055	1	10	1.1100000143051147	12.109453201293944	12.289921760559082	7	443.0	474.0	0.0	0.0	0	0.0	0.0	0.0	0.0	0.2380817138645407	0.0	0.0	-0.1350236045542688	0.1053448766469955	0.1149216815829277	9.806650161743164	0.3059312105178833	-0.6328574419021606	0.3011991381645202	0.6443420648574829	6	0.7470884958902995	-1.2193747202555338	0.1722832272	-14.7015020544	0.15792629160000002	0.013439035192	0.028099800855999998	0.0	-0.66004	-0.47154	2.39134	0.1722832272	-14.7015020544	0.15792629160000002	0.013439035192	0.028099800855999998	0.0	-0.66004	-0.47154	2.39134	0.17652	0.1471	0.17652	1.0173698494942018	24.05
5776	0	621550	27	-2053	14	14	18	3	-1367	-894	4088	7	5	5	24.05	1.0174586725882062	-0.6522567072900963	44.82530975341797	-73.16248321533203	49.79999923706055	1	10	1.1100000143051147	12.04448413848877	12.246609687805176	7	443.0	474.0	0.0	0.0	0	0.0	0.0	0.0	0.0	0.1827262926710061	0.0	0.0	-0.1773774055283864	0.0670376494526863	0.1292868852615356	9.830592155456545	0.3058738708496094	-0.6326940059661865	0.3013181090354919	0.6444741487503052	6	0.7470884958902995	-1.2193747202555338	0.1938186306	-14.7373943934	0.10049854920000001	0.017104226607999998	0.021991148496	0.003665191416	-0.79286	-0.51852	2.37104	0.1938186306	-14.7373943934	0.10049854920000001	0.017104226607999998	0.021991148496	0.003665191416	-0.79286	-0.51852	2.37104	0.20594	0.1471	0.1471	1.0174586725882062	24.05
5777	0	621655	38	-2086	3	14	19	0	-1370	-919	4058	6	6	5	24.05	1.0173501110288674	0.2446068324246004	44.82530975341797	-73.16248321533203	49.79999923706055	1	10	1.1100000143051147	11.97951602935791	12.29353141784668	7	443.0	474.0	0.0	0.0	0	0.0	0.0	0.0	0.0	0.0812675820940148	0.0	0.0	-0.2625597062471743	0.0143652101978659	0.181959331035614	9.988609313964844	0.3058849275112152	-0.6326108574867249	0.301357239484787	0.6445321440696716	6	0.7470884958902995	-1.2193747202555338	0.2727817764	-14.974283830800001	0.0215354034	0.017104226607999998	0.023212878968	0.0	-0.7946	-0.53302	2.35364	0.2727817764	-14.974283830800001	0.0215354034	0.017104226607999998	0.023212878968	0.0	-0.7946	-0.53302	2.35364	0.17652	0.17652	0.1471	1.0173501110288674	24.05
5778	0	621760	22	-2051	22	12	23	2	-1360	-889	4039	8	4	6	24.05	1.0173106340981988	0.5707582425487882	44.82530975341797	-73.16248321533203	49.79999923706055	1	10	1.1200000047683716	12.051703453063965	12.232172012329102	7	443.0	474.0	0.0	0.0	0	0.0	0.0	0.0	0.0	0.0386348088439193	0.0	0.0	-0.2745006542826845	0.1053448766469955	0.1053448766469955	9.821015357971191	0.3709677457809448	-0.5986834764480591	0.3647915124893188	0.6090060472488403	6	0.7470884958902995	-1.2193747202555338	0.15792629160000002	-14.7230374578	0.15792629160000002	0.014660765664	0.028099800855999998	0.002443460944	-0.7888000000000001	-0.51562	2.34262	0.15792629160000002	-14.7230374578	0.15792629160000002	0.014660765664	0.028099800855999998	0.002443460944	-0.7888000000000001	-0.51562	2.34262	0.23536	0.11768	0.17652	1.0173106340981988	24.05
5779	0	621865	22	-2049	16	12	22	2	-1338	-911	4050	6	4	6	24.05	1.0173599802615347	0.1630705811428426	44.82530975341797	-73.16248321533203	49.79999923706055	1	10	1.1200000047683716	12.09140682220459	12.29353141784668	7	443.0	474.0	0.0	0.0	0	0.0	0.0	0.0	0.0	0.0240759274908552	0.0	0.0	-0.2582665141171211	0.0766144543886184	0.1053448766469955	9.81143856048584	0.3709129393100738	-0.5986723303794861	0.3648101091384887	0.6090390682220459	6	0.7470884958902995	-1.2193747202555338	0.15792629160000002	-14.7086805222	0.1148554848	0.014660765664	0.026878070384	0.002443460944	-0.77604	-0.52838	2.349	0.15792629160000002	-14.7086805222	0.1148554848	0.014660765664	0.026878070384	0.002443460944	-0.77604	-0.52838	2.349	0.17652	0.11768	0.17652	1.0173599802615347	24.05
5780	0	621970	31	-2050	15	12	22	2	-1375	-957	4099	7	6	5	24.05	1.0173599802615347	0.1630705811428426	44.82530975341797	-73.16248321533203	49.79999923706055	1	10	1.1200000047683716	12.113062858581545	12.268265724182127	7	443.0	474.0	0.0	0.0	0	0.0	0.0	0.0	0.0	0.0313446860603057	0.0	0.0	-0.2222775753893541	0.071826048195362	0.1484405100345611	9.816226959228516	0.3708318471908569	-0.5985842347145081	0.3648556470870971	0.6091477870941162	6	0.7470884958902995	-1.2193747202555338	0.2225325018	-14.715858990000001	0.107677017	0.014660765664	0.026878070384	0.002443460944	-0.7975	-0.55506	2.37742	0.2225325018	-14.715858990000001	0.107677017	0.014660765664	0.026878070384	0.002443460944	-0.7975	-0.55506	2.37742	0.20594	0.17652	0.1471	1.0173599802615347	24.05
5781	0	622077	33	-2051	16	13	23	0	-1372	-924	4043	7	4	4	24.05	1.0174586725882062	-0.6522567072900963	44.82530975341797	-73.1624755859375	49.900001525878906	1	10	1.1200000047683716	12.109453201293944	12.275484085083008	7	443.0	474.0	0.0	0.0	0	0.0	0.0	0.0	0.0	0.0513708239245498	0.0	0.0	-0.1785069472752632	0.0766144543886184	0.1580173075199127	9.821015357971191	0.370830237865448	-0.5985409021377563	0.3648787140846252	0.6091775894165039	6	0.7470884958902995	-1.2193745930989583	0.2368894374	-14.7230374578	0.1148554848	0.015882496136	0.028099800855999998	0.0	-0.79576	-0.53592	2.34494	0.2368894374	-14.7230374578	0.1148554848	0.015882496136	0.028099800855999998	0.0	-0.79576	-0.53592	2.34494	0.20594	0.11768	0.11768	1.0174586725882062	24.05
5782	0	622180	25	-2053	21	11	23	1	-1399	-893	4090	6	4	5	24.05	1.0174191956575376	-0.3261334769168891	44.82530975341797	-73.1624755859375	49.900001525878906	1	10	1.1200000047683716	12.095015525817873	12.268265724182127	7	443.0	474.0	0.0	0.0	0	0.0	0.0	0.0	0.0	0.0264442322210131	0.0	0.0	-0.183306797771894	0.1005564704537391	0.119710087776184	9.830592155456545	0.3708769083023071	-0.5985013246536255	0.3648914694786072	0.6091803908348083	6	0.7470884958902995	-1.2193745930989583	0.179461695	-14.7373943934	0.1507478238	0.013439035192	0.028099800855999998	0.001221730472	-0.81142	-0.51794	2.3722	0.179461695	-14.7373943934	0.1507478238	0.013439035192	0.028099800855999998	0.001221730472	-0.81142	-0.51794	2.3722	0.17652	0.11768	0.1471	1.0174191956575376	24.05
5783	0	622285	30	-2073	-11	12	23	4	-1372	-833	4094	7	5	6	24.06	1.0172810264001977	0.8153785257028393	44.82530975341797	-73.1624755859375	49.900001525878906	1	10	1.1200000047683716	12.095015525817873	12.279093742370604	7	443.0	474.0	0.0	0.0	0	0.0	0.0	0.0	0.0	0.1011741821474939	0.0	0.0	-0.0861618136319396	-0.0526724383234977	0.1436520963907241	9.92636013031006	0.3708541691303253	-0.5984445214271545	0.3649457395076751	0.6092175841331482	6	0.7470884958902995	-1.2193745930989583	0.215354034	-14.880963749400001	-0.07896314580000001	0.014660765664	0.028099800855999998	0.004886921888	-0.79576	-0.48314	2.37452	0.215354034	-14.880963749400001	-0.07896314580000001	0.014660765664	0.028099800855999998	0.004886921888	-0.79576	-0.48314	2.37452	0.20594	0.1471	0.17652	1.0172810264001977	24.06
5784	0	622390	33	-2053	21	10	25	1	-1398	-833	4076	7	3	7	24.06	1.0173303725635332	0.4076812564676444	44.82530975341797	-73.16248321533203	49.900001525878906	1	10	1.1200000047683716	12.113062858581545	12.2357816696167	7	443.0	474.0	0.0	0.0	0	0.0	0.0	0.0	0.0	0.1074597797144559	0.0	0.0	-0.0681522543204761	0.1005564704537391	0.1580173075199127	9.830592155456545	0.3707315623760223	-0.5983420014381409	0.3650237023830414	0.6093461513519287	6	0.7470884958902995	-1.2193747202555338	0.2368894374	-14.7373943934	0.1507478238	0.012217304719999999	0.0305432618	0.001221730472	-0.81084	-0.48314	2.36408	0.2368894374	-14.7373943934	0.1507478238	0.012217304719999999	0.0305432618	0.001221730472	-0.81084	-0.48314	2.36408	0.20594	0.08826	0.20594	1.0173303725635332	24.06
5785	0	622495	22	-2049	22	11	23	1	-1371	-947	4052	6	4	5	24.06	1.017429064890205	-0.4076652450930072	44.82530975341797	-73.16248321533203	49.900001525878906	1	10	1.1200000047683716	12.105843544006348	12.282703399658203	7	443.0	474.0	0.0	0.0	0	0.0	0.0	0.0	0.0	0.1057393498666479	0.0	0.0	-0.0665213645365528	0.1053448766469955	0.1053448766469955	9.81143856048584	0.3706827163696289	-0.5983076095581055	0.3650655746459961	0.6093845367431641	6	0.7470884958902995	-1.2193747202555338	0.15792629160000002	-14.7086805222	0.15792629160000002	0.013439035192	0.028099800855999998	0.001221730472	-0.79518	-0.54926	2.35016	0.15792629160000002	-14.7086805222	0.15792629160000002	0.013439035192	0.028099800855999998	0.001221730472	-0.79518	-0.54926	2.35016	0.17652	0.11768	0.1471	1.017429064890205	24.06
5786	0	622600	22	-2056	11	10	23	2	-1392	-1140	4057	6	5	6	24.06	1.017379718726869	-0.0	44.82530975341797	-73.16248321533203	49.900001525878906	1	10	1.1200000047683716	12.084187507629396	12.228562355041504	7	443.0	474.0	0.0	0.0	0	0.0	0.0	0.0	0.0	0.1238485642958465	0.0	0.0	-0.0395217140201275	0.0526724383234977	0.1053448766469955	9.84495735168457	0.3706917762756347	-0.5982710123062134	0.3650874495506286	0.6094018220901489	6	0.7470884958902995	-1.2193747202555338	0.15792629160000002	-14.7589297968	0.07896314580000001	0.012217304719999999	0.028099800855999998	0.002443460944	-0.80736	-0.6612	2.35306	0.15792629160000002	-14.7589297968	0.07896314580000001	0.012217304719999999	0.028099800855999998	0.002443460944	-0.80736	-0.6612	2.35306	0.17652	0.1471	0.17652	1.017379718726869	24.06
5787	0	622705	27	-2049	16	12	21	0	-1603	-879	4077	8	4	5	24.07	1.017389587959536	-0.0815343298807033	44.82530975341797	-73.16248321533203	49.79999923706055	1	10	1.1200000047683716	11.817093849182127	12.297141075134276	7	443.0	474.0	0.0	0.0	0	0.0	0.0	0.0	0.0	0.1092126197716283	0.0	0.0	-0.050348819759915	0.0766144543886184	0.1292868852615356	9.81143856048584	0.3681578040122986	-0.6000515818595886	0.3613031804561615	0.6114392876625061	6	0.7470884958902995	-1.2193747202555338	0.1938186306	-14.7086805222	0.1148554848	0.014660765664	0.025656339912	0.0	-0.92974	-0.50982	2.36466	0.1938186306	-14.7086805222	0.1148554848	0.014660765664	0.025656339912	0.0	-0.92974	-0.50982	2.36466	0.23536	0.11768	0.1471	1.017389587959536	24.07
5788	0	622810	26	-2055	15	7	24	1	-1372	-954	4030	6	4	7	24.06	1.0172810264001977	0.8153785257028393	44.82530975341797	-73.16248321533203	49.79999923706055	1	10	1.1200000047683716	11.975906372070312	12.297141075134276	7	443.0	474.0	0.0	0.0	0	0.0	0.0	0.0	0.0	0.1497141697615687	0.0	0.0	-0.0014723218868702	0.071826048195362	0.1244984865188598	9.840168952941896	0.3681465983390808	-0.6000803112983704	0.3612941801548004	0.6114231944084167	6	0.7470884958902995	-1.2193747202555338	0.1866401628	-14.751751329000001	0.107677017	0.008552113303999999	0.029321531328	0.001221730472	-0.79576	-0.55332	2.3374	0.1866401628	-14.751751329000001	0.107677017	0.008552113303999999	0.029321531328	0.001221730472	-0.79576	-0.55332	2.3374	0.17652	0.11768	0.20594	1.0172810264001977	24.06
5789	0	622915	20	-2048	21	14	22	3	-1334	-896	4071	7	4	5	24.06	1.0173303725635332	0.4076812564676444	44.82530975341797	-73.16248321533203	49.79999923706055	1	10	1.1200000047683716	12.09140682220459	12.243000030517578	7	443.0	474.0	0.0	0.0	0	0.0	0.0	0.0	0.0	0.2004674603008344	0.0	0.0	0.0520494718033902	0.1005564704537391	0.0957680642604827	9.806650161743164	0.3680824041366577	-0.5999962687492371	0.3614367246627807	0.6114600300788879	6	0.7470884958902995	-1.2193747202555338	0.143569356	-14.7015020544	0.1507478238	0.017104226607999998	0.026878070384	0.003665191416	-0.77372	-0.51968	2.36118	0.143569356	-14.7015020544	0.1507478238	0.017104226607999998	0.026878070384	0.003665191416	-0.77372	-0.51968	2.36118	0.20594	0.11768	0.1471	1.0173303725635332	24.06
5790	0	623020	22	-2053	20	12	22	1	-1389	-878	4061	5	6	5	24.07	1.0172810264001977	0.8153785257028393	44.82530975341797	-73.16248321533203	49.79999923706055	1	10	1.1200000047683716	12.06614112854004	12.246609687805176	7	443.0	474.0	0.0	0.0	0	0.0	0.0	0.0	0.0	0.2498921653201272	0.0	0.0	0.0970256482459304	0.0957680642604827	0.1053448766469955	9.830592155456545	0.3680316209793091	-0.5999691486358643	0.3614484667778015	0.6115102767944336	6	0.7470884958902995	-1.2193747202555338	0.15792629160000002	-14.7373943934	0.143569356	0.014660765664	0.026878070384	0.001221730472	-0.80562	-0.50924	2.35538	0.15792629160000002	-14.7373943934	0.143569356	0.014660765664	0.026878070384	0.001221730472	-0.80562	-0.50924	2.35538	0.1471	0.17652	0.1471	1.0172810264001977	24.07
