	timestamp_s	timestamp_ms	imu1_accel_x	imu1_accel_y	imu1_accel_z	imu1_gyro_x	imu1_gyro_y	imu1_gyro_z	imu1_mag_x	imu1_mag_y	imu1_mag_z	imu2_accel_x	imu2_accel_y	imu2_accel_z	imu2_gyro_x	imu2_gyro_y	imu2_gyro_z	imu2_mag_x	imu2_mag_y	imu2_mag_z	high_g_accel_x	high_g_accel_y	high_g_accel_z	baro1_temp	baro1_pres	baro2_temp	baro2_pres	gps_lat	gps_long	gps_alt	battery_voltage	pyro_cont	heading	vtg	pos_x	pos_y	pos_z	vel_x	vel_y	vel_z	q_x	q_y	q_z	q_w	state	gps_lat_mod	gps_long_mod	imu1_accel_x_real	imu1_accel_y_real	imu1_accel_z_real	imu2_accel_x_real	imu2_accel_y_real	imu2_accel_z_real	imu1_gyro_x_real	imu1_gyro_y_real	imu1_gyro_z_real	imu2_gyro_x_real	imu2_gyro_y_real	imu2_gyro_z_real	imu1_mag_x_real	imu1_mag_y_real	imu1_mag_z_real	imu2_mag_x_real	imu2_mag_y_real	imu2_mag_z_real	imu_accel_x_avg	imu_accel_y_avg	imu_accel_z_avg	imu_gyro_x_avg	imu_gyro_y_avg	imu_gyro_z_avg	imu_mag_x_avg	imu_mag_y_avg	imu_mag_z_avg	high_g_accel_x_real	high_g_accel_y_real	high_g_accel_z_real	baro_pres_avg	baro_temp_avg
162950	17176699	0	-9	-1373	-121	-6	-46	54	1285	1795	424	4	-1361	-65	73	84	23	788	1769	770	368	128	176	28.85	0.9875548976067112	32.53	0.9981051073279052	4449.50830078125	-7309.8232421875	36.59999847412109	3.962557792663574	0	0.0	0.0	0.0	0.0	-0.2005030372650536	0.0	0.0	-0.3183686576671516	0.0	0.0	0.0	0.0	12	44.825138346354166	-73.163720703125	-0.0646062102	-9.8560362894	-0.8685946038000001	0.0287138712	-9.7698946758	-0.466600407	-0.001832595708	-0.014049900427999999	0.016493361372	0.022296581114	0.025656339912	0.0070249502139999994	0.7453	1.0411	0.24592	0.45704	1.02602	0.4466	-0.017946169499999998	-9.8129654826	-0.6675975054000001	0.010231992703	0.005803219742000001	0.011759155793	0.60117	1.03356	0.34626	10.82656	3.76576	5.17792	0.9928300024673082	30.69
162951	17176804	0	-16	-1380	-96	-3	-33	54	1321	1812	421	4	-1365	-49	67	101	31	788	1769	770	416	160	176	28.87	0.9875746360720454	32.53	0.998213668887244	4449.50830078125	-7309.8232421875	36.59999847412109	3.96283483505249	0	0.0	0.0	0.0	0.0	-0.3127993774242693	0.0	0.0	-0.3950113254442947	0.0	0.0	0.0	0.0	12	44.825138346354166	-73.163720703125	-0.1148554848	-9.906285564000001	-0.6891329088	0.0287138712	-9.798608547	-0.35174492220000003	-0.000916297854	-0.010079276394	0.016493361372	0.020463985405999998	0.030848694418	0.009468411158	0.76618	1.0509600000000001	0.24418	0.45704	1.02602	0.4466	-0.0430708068	-9.8524470555	-0.5204389155	0.009773843776	0.010384709012	0.012980886264999998	0.61161	1.03849	0.34539	12.23872	4.7072	5.17792	0.9928941524796447	30.700000000000003
162952	17176910	0	-13	-1369	-111	2	-22	62	1321	1812	421	6	-1362	-56	71	116	32	862	1797	767	384	32	272	28.86	0.9873575129533678	32.52	0.9982037996545768	4449.50830078125	-7309.8232421875	36.59999847412109	3.9581265449523926	0	0.0	0.0	0.0	0.0	-0.4109665601890488	0.0	0.0	-0.4489077595530343	0.0	0.0	0.0	0.0	12	44.825138346354166	-73.163720703125	-0.0933200814	-9.8273224182	-0.7968099258	0.0430708068	-9.777073143600001	-0.40199419680000004	0.000610865236	-0.006719517596	0.018936822316	0.021685715878	0.035430183688	0.009773843776	0.76618	1.0509600000000001	0.24418	0.49996	1.04226	0.44486	-0.025124637300000002	-9.8021977809	-0.5994020613	0.011148290557	0.014355333046	0.014355333046	0.63307	1.04661	0.34452	11.29728	0.94144	8.00224	0.9927806563039723	30.69
162953	17177015	0	-12	-1374	-110	9	-29	56	1288	1820	422	4	-1361	-47	92	114	32	862	1797	767	320	80	320	28.87	0.9874858129780408	32.53	0.9980064150012335	4449.50830078125	-7309.8232421875	36.59999847412109	3.970312356948853	0	0.0	0.0	0.0	0.0	-0.4575128156568275	0.0	0.0	-0.4468628818420799	0.0	0.0	0.0	0.0	12	44.825138346354166	-73.163720703125	-0.0861416136	-9.8632147572	-0.789631458	0.0287138712	-9.7698946758	-0.3373879866	0.002748893562	-0.008857545922	0.017104226607999998	0.028099800855999998	0.034819318451999995	0.009773843776	0.74704	1.0556	0.24476	0.49996	1.04226	0.44486	-0.028713871199999998	-9.8165547165	-0.5635097223000001	0.015424347209	0.012980886264999998	0.013439035191999998	0.6235	1.04893	0.34481	9.4144	2.3536	9.4144	0.9927461139896372	30.700000000000003
162954	17177120	0	-15	-1376	-112	15	-8	48	1288	1820	422	6	-1359	-64	110	130	21	834	1767	746	320	80	256	28.86	0.9874068591167036	32.52	0.998095238095238	4449.50830078125	-7309.8232421875	36.59999847412109	3.961450099945069	0	0.0	0.0	0.0	0.0	-0.3449923017745852	0.0	0.0	-0.2786949312678821	0.0	0.0	0.0	0.0	12	44.825138346354166	-73.163720703125	-0.107677017	-9.8775716928	-0.8039883936000001	0.0430708068	-9.755537740200001	-0.4594219392	0.00458148927	-0.002443460944	0.014660765664	0.033597587979999996	0.03970624034	0.006414084978	0.74704	1.0556	0.24476	0.48372	1.02486	0.43268	-0.0323031051	-9.8165547165	-0.6317051664000001	0.019089538625	0.018631389698	0.010537425321	0.61538	1.0402300000000002	0.33872	9.4144	2.3536	7.53152	0.9927510486059707	30.69
162955	17177226	0	-19	-1377	-113	24	-3	58	1293	1793	461	4	-1364	-60	95	136	18	834	1767	746	400	48	176	28.87	0.9874759437453738	32.52	0.998095238095238	4449.50830078125	-7309.8232421875	36.59999847412109	3.96283483505249	0	0.0	0.0	0.0	0.0	-0.1972041226921577	0.0	0.0	-0.0925938348748589	0.0	0.0	0.0	0.0	12	44.825138346354166	-73.163720703125	-0.1363908882	-9.884750160600001	-0.8111668614	0.0287138712	-9.7914300792	-0.430708068	0.007330382832	-0.000916297854	0.017715091844	0.029016098709999997	0.041538836047999995	0.005497787124	0.74994	1.03994	0.26738	0.48372	1.02486	0.43268	-0.0538385085	-9.8380901199	-0.6209374647	0.018173240771	0.020311269096999998	0.011606439484	0.61683	1.0324	0.35003	11.768	1.41216	5.17792	0.9927855909203059	30.695
162956	17177331	0	-9	-1376	-124	12	-11	57	1284	1801	415	7	-1368	-67	85	115	28	847	1764	771	352	16	320	28.86	0.9875154206760424	32.54	0.9981840611892424	4449.50830078125	-7309.8232421875	36.59999847412109	3.9680967330932617	0	0.0	0.0	0.0	0.0	-0.1851809172784373	0.0	0.0	-0.0691138175861931	0.0	0.0	0.0	0.0	12	44.825138346354166	-73.163720703125	-0.0646062102	-9.8775716928	-0.8901300072	0.050249274600000005	-9.8201439504	-0.4809573426	0.003665191416	-0.003359758798	0.017409659225999997	0.02596177253	0.035124751069999995	0.008552113303999999	0.74472	1.04458	0.2407	0.49126000000000003	1.02312	0.44718	-0.007178467799999998	-9.8488578216	-0.6855436749	0.014813481973	0.015882496136	0.012980886264999998	0.61799	1.0338500000000002	0.34394	10.35584	0.47072	9.4144	0.9928497409326424	30.7
162957	17177437	0	-8	-1378	-115	-2	-34	56	1284	1801	415	4	-1359	-58	74	110	24	847	1764	771	352	64	208	28.86	0.987673328398717	32.52	0.9980458919319024	4449.50830078125	-7309.8232421875	36.59999847412109	3.962557792663574	0	0.0	0.0	0.0	0.0	-0.1770885059160275	0.0	0.0	-0.0543496663206952	0.0	0.0	0.0	0.0	12	44.825138346354166	-73.163720703125	-0.0574277424	-9.8919286284	-0.825523797	0.0287138712	-9.755537740200001	-0.4163511324	-0.000610865236	-0.010384709011999999	0.017104226607999998	0.022602013732	0.033597587979999996	0.007330382832	0.74472	1.04458	0.2407	0.49126000000000003	1.02312	0.44718	-0.0143569356	-9.8237331843	-0.6209374647	0.010995574248	0.011606439484	0.012217304719999999	0.61799	1.0338500000000002	0.34394	10.35584	1.88288	6.11936	0.9928596101653098	30.69
162958	17177542	0	-13	-1373	-125	4	-16	61	1296	1820	415	5	-1363	-66	73	115	34	832	1796	729	400	-16	160	28.86	0.9874660745127066	32.53	0.9980064150012335	4449.50830078125	-7309.8232421875	36.59999847412109	3.9592344760894775	0	0.0	0.0	0.0	0.0	-0.1532083890652624	0.0	0.0	-0.0176497923925653	0.0	0.0	0.0	0.0	12	44.825138346354166	-73.163720703125	-0.0933200814	-9.8560362894	-0.897308475	0.035892339	-9.7842516114	-0.4737788748	0.001221730472	-0.004886921888	0.018631389698	0.022296581114	0.035124751069999995	0.010384709011999999	0.75168	1.0556	0.2407	0.48256	1.04168	0.42282000000000003	-0.0287138712	-9.8201439504	-0.6855436749	0.011759155793	0.015118914590999998	0.014508049355	0.61712	1.04864	0.33176	11.768	-0.47072	4.7072	0.9927362447569701	30.695
162959	17177647	0	-12	-1378	-104	-15	-35	49	1296	1820	415	10	-1367	-52	78	92	26	832	1796	729	432	-16	192	28.87	0.9875746360720454	32.53	0.9983222304465827	4449.50830078125	-7309.8232421875	36.59999847412109	3.961450099945069	0	0.0	0.0	0.0	0.0	-0.2362522467552412	0.0	0.0	-0.1031128502263142	0.0	0.0	0.0	0.0	12	44.825138346354166	-73.163720703125	-0.0861416136	-9.8919286284	-0.7465606512	0.071784678	-9.812965482600001	-0.3732803256	-0.00458148927	-0.010690141629999999	0.014966198282	0.023823744204	0.028099800855999998	0.007941248068	0.75168	1.0556	0.2407	0.48256	1.04168	0.42282000000000003	-0.007178467799999998	-9.8524470555	-0.5599204884	0.009621127467	0.008704829612999999	0.011453723175	0.61712	1.04864	0.33176	12.70944	-0.47072	5.64864	0.9929484332593141	30.700000000000003
162960	17177753	0	-13	-1373	-120	2	-15	53	1287	1786	448	6	-1363	-59	85	130	26	831	1793	750	336	48	240	28.87	0.9875351591413768	32.53	0.9983222304465827	4449.50830078125	-7309.8232421875	36.59999847412109	3.970312356948853	0	0.0	0.0	0.0	0.0	-0.348376360438361	0.0	0.0	-0.2034642652447962	0.0	0.0	0.0	0.0	12	44.825138346354166	-73.163720703125	-0.0933200814	-9.8560362894	-0.861416136	0.0430708068	-9.7842516114	-0.4235296002	0.000610865236	-0.00458148927	0.016187928754	0.02596177253	0.03970624034	0.007941248068	0.74646	1.03588	0.25984	0.48198	1.03994	0.435	-0.025124637300000002	-9.8201439504	-0.6424728681	0.013286318883	0.017562375534999997	0.012064588410999999	0.61422	1.03791	0.34742	9.88512	1.41216	7.0608	0.9929286947939797	30.700000000000003
162961	17177858	0	-21	-1378	-100	1	-26	44	1287	1786	448	4	-1371	-51	86	114	24	831	1793	750	320	128	240	28.87	0.9874759437453738	32.52	0.9984702689365902	4449.50830078125	-7309.8232421875	36.59999847412109	3.961726903915405	0	0.0	0.0	0.0	0.0	-0.473942064246622	0.0	0.0	-0.3105016421646643	0.0	0.0	0.0	0.0	12	44.825138346354166	-73.163720703125	-0.1507478238	-9.8919286284	-0.71784678	0.0287138712	-9.8416793538	-0.36610185780000004	0.000305432618	-0.007941248068	0.013439035192	0.026267205148	0.034819318451999995	0.007330382832	0.74646	1.03588	0.25984	0.48198	1.03994	0.435	-0.061016976300000005	-9.8668039911	-0.5419743189	0.013286318883	0.013439035191999998	0.010384709012	0.61422	1.03791	0.34742	9.4144	3.76576	7.0608	0.992973106340982	30.695
162962	17177964	0	-14	-1370	-121	9	-16	55	1276	1810	456	3	-1364	-57	95	129	31	811	1795	774	416	64	176	28.87	0.9874858129780408	32.53	0.998272884283247	4449.50830078125	-7309.8232421875	36.59999847412109	3.974743366241455	0	0.0	0.0	0.0	0.0	-0.4900667060956738	0.0	0.0	-0.2878042983032476	0.0	0.0	0.0	0.0	12	44.825138346354166	-73.163720703125	-0.10049854920000001	-9.834500886	-0.8685946038000001	0.0215354034	-9.7914300792	-0.4091726646	0.002748893562	-0.004886921888	0.016798793989999998	0.029016098709999997	0.039400807722	0.009468411158	0.74008	1.0498	0.26448	0.47038	1.0411	0.44892	-0.039481572900000005	-9.8129654826	-0.6388836342	0.015882496136	0.017256942916999998	0.013133602573999998	0.6052299999999999	1.04545	0.3567	12.23872	1.88288	5.17792	0.992879348630644	30.700000000000003
162963	17178069	0	-18	-1371	-113	9	-18	53	1276	1810	456	2	-1363	-58	92	126	31	811	1795	774	368	64	224	28.87	0.9875746360720454	32.53	0.9980656303972366	4449.50830078125	-7309.8232421875	36.59999847412109	3.960342168807984	0	0.0	0.0	0.0	0.0	-0.3839736939780996	0.0	0.0	-0.1442953810280217	0.0	0.0	0.0	0.0	12	44.825138346354166	-73.163720703125	-0.1292124204	-9.8416793538	-0.8111668614	0.0143569356	-9.7842516114	-0.4163511324	0.002748893562	-0.005497787124	0.016187928754	0.028099800855999998	0.038484509868	0.009468411158	0.74008	1.0498	0.26448	0.47038	1.0411	0.44892	-0.0574277424	-9.8129654826	-0.6137589969	0.015424347209	0.016493361372	0.012828169955999998	0.6052299999999999	1.04545	0.3567	10.82656	1.88288	6.59008	0.992820133234641	30.700000000000003
162964	17178174	0	-17	-1374	-127	5	-10	62	1295	1811	452	4	-1366	-66	88	122	30	834	1768	731	384	80	176	28.87	0.9876535899333828	32.53	0.9981149765605724	4449.50830078125	-7309.8232421875	36.59999847412109	3.964773416519165	0	0.0	0.0	0.0	0.0	-0.3671588209649319	0.0	0.0	-0.1103153668621323	0.0	0.0	0.0	0.0	12	44.825138346354166	-73.163720703125	-0.12203395260000001	-9.8632147572	-0.9116654106000001	0.0287138712	-9.8057870148	-0.4737788748	0.0015271630899999999	-0.0030543261799999997	0.018936822316	0.026878070384	0.037262779396	0.00916297854	0.7511	1.05038	0.26216	0.48372	1.02544	0.42398	-0.0466600407	-9.834500886	-0.6927221427000001	0.014202616736999999	0.017104226608	0.014049900428	0.61741	1.03791	0.34307	11.29728	2.3536	5.17792	0.9928842832469775	30.700000000000003
162965	17178280	0	-9	-1375	-117	7	-31	51	1295	1811	452	3	-1363	-60	70	96	26	820	1785	738	384	112	224	28.87	0.9875845053047124	32.52	0.9982037996545768	4449.50830078125	-7309.8232421875	36.59999847412109	3.957849740982056	0	0.0	0.0	0.0	0.0	-0.3117832517838972	0.0	0.0	-0.0408578030264105	0.0	0.0	0.0	0.0	12	44.825138346354166	-73.163720703125	-0.0646062102	-9.870393225	-0.8398807326000001	0.0215354034	-9.7842516114	-0.430708068	0.0021380283259999997	-0.009468411158	0.015577063518	0.021380283259999997	0.029321531328	0.007941248068	0.7511	1.05038	0.26216	0.4756	1.0353	0.42804	-0.0215354034	-9.827322418200001	-0.6352944003000001	0.011759155793	0.009926560085000001	0.011759155793	0.6133500000000001	1.04284	0.34509999999999996	11.29728	3.29504	6.59008	0.9928941524796446	30.695
162966	17178385	0	-4	-1373	-111	-9	-9	58	1301	1817	440	10	-1357	-63	73	130	36	820	1785	738	416	32	320	28.87	0.9874759437453738	32.53	0.9980162842339008	4449.50830078125	-7309.8232421875	36.59999847412109	3.961450099945069	0	0.0	0.0	0.0	0.0	-0.1758998065788779	0.0	0.0	0.1059935934381008	0.0	0.0	0.0	0.0	12	44.825138346354166	-73.163720703125	-0.0287138712	-9.8560362894	-0.7968099258	0.071784678	-9.7411808046	-0.45224347140000004	-0.002748893562	-0.002748893562	0.017715091844	0.022296581114	0.03970624034	0.010995574248	0.75458	1.05386	0.2552	0.4756	1.0353	0.42804	0.0215354034	-9.798608547	-0.6245266986	0.009773843776	0.018478673389	0.014355333046	0.61509	1.04458	0.34162	12.23872	0.94144	9.4144	0.9927461139896373	30.700000000000003
162967	17178490	0	-7	-1379	-107	-3	-53	54	1301	1817	440	7	-1362	-54	82	92	21	853	1823	757	384	16	320	28.87	0.9875845053047124	32.53	0.998213668887244	4449.50830078125	-7309.8232421875	36.59999847412109	3.9589574337005615	0	0.0	0.0	0.0	0.0	-0.119436701390636	0.0	0.0	0.1522259284624263	0.0	0.0	0.0	0.0	12	44.825138346354166	-73.163720703125	-0.050249274600000005	-9.8991070962	-0.7680960546000001	0.050249274600000005	-9.777073143600001	-0.3876372612	-0.000916297854	-0.016187928754	0.016493361372	0.025045474675999997	0.028099800855999998	0.006414084978	0.75458	1.05386	0.2552	0.49474	1.05734	0.43906	0.0	-9.8380901199	-0.5778666579	0.012064588410999999	0.005955936051	0.011453723175	0.62466	1.0556	0.34713	11.29728	0.47072	9.4144	0.9928990870959782	30.700000000000003
162968	17178596	0	-14	-1370	-108	4	-10	58	1312	1807	434	5	-1363	-51	86	135	21	853	1823	757	368	80	160	28.86	0.9875647668393782	32.53	0.9982235381199112	4449.50830078125	-7309.8232421875	36.59999847412109	3.9705891609191895	0	0.0	0.0	0.0	0.0	-0.1806344516671539	0.0	0.0	0.0742725848790912	0.0	0.0	0.0	0.0	12	44.825138346354166	-73.163720703125	-0.10049854920000001	-9.834500886	-0.7752745224	0.035892339	-9.7842516114	-0.36610185780000004	0.001221730472	-0.0030543261799999997	0.017715091844	0.026267205148	0.041233403429999996	0.006414084978	0.76096	1.04806	0.25172	0.49474	1.05734	0.43906	-0.03230310510000001	-9.809376248700001	-0.5706881901	0.01374446781	0.019089538625	0.012064588411	0.62785	1.0527	0.34539	10.82656	2.3536	4.7072	0.9928941524796446	30.695
162969	17178701	0	-11	-1381	-112	1	-34	44	1312	1807	434	5	-1363	-58	90	111	25	852	1810	749	352	64	288	28.86	0.9875647668393782	32.53	0.9981149765605724	4449.50830078125	-7309.8232421875	36.59999847412109	3.962557792663574	0	0.0	0.0	0.0	0.0	-0.0544783869726735	0.0	0.0	0.1965159088929879	0.0	0.0	0.0	0.0	12	44.825138346354166	-73.163720703125	-0.07896314580000001	-9.9134640318	-0.8039883936000001	0.035892339	-9.7842516114	-0.4163511324	0.000305432618	-0.010384709011999999	0.013439035192	0.02748893562	0.033903020597999996	0.00763581545	0.76096	1.04806	0.25172	0.49416	1.0498	0.43442000000000003	-0.021535403400000003	-9.8488578216	-0.610169763	0.013897184118999999	0.011759155793	0.010537425321	0.62756	1.04893	0.34307	10.35584	1.88288	8.47296	0.9928398716999753	30.695
162970	17178807	0	-13	-1375	-114	6	-1	59	1299	1813	427	3	-1366	-55	90	138	22	852	1810	749	416	-16	256	28.87	0.9875252899087096	32.53	0.9980656303972366	4449.50830078125	-7309.8232421875	36.59999847412109	3.964219570159912	0	0.0	0.0	0.0	0.0	-0.0956938181272861	0.0	0.0	0.1353422121113803	0.0	0.0	0.0	0.0	12	44.825138346354166	-73.163720703125	-0.0933200814	-9.870393225	-0.8183453292	0.0215354034	-9.8057870148	-0.394815729	0.001832595708	-0.000305432618	0.018020524462	0.02748893562	0.042149701283999995	0.006719517596	0.75342	1.05154	0.24766	0.49416	1.0498	0.43442000000000003	-0.035892339	-9.8380901199	-0.6065805291	0.014660765664	0.020922134332999998	0.012370021029	0.62379	1.05067	0.34104	12.23872	-0.47072	7.53152	0.9927954601529732	30.700000000000003
162971	17178912	0	-6	-1373	-115	10	-19	60	1299	1813	427	9	-1359	-59	83	120	24	850	1801	743	384	64	256	28.87	0.9875351591413768	32.54	0.9982432765852456	4449.50830078125	-7309.8232421875	36.59999847412109	3.970312356948853	0	0.0	0.0	0.0	0.0	-0.0933995809527362	0.0	0.0	0.1210247443276626	0.0	0.0	0.0	0.0	12	44.825138346354166	-73.163720703125	-0.0430708068	-9.8560362894	-0.825523797	0.0646062102	-9.755537740200001	-0.4235296002	0.0030543261799999997	-0.005803219742	0.01832595708	0.025350907293999997	0.03665191416	0.007330382832	0.75342	1.05154	0.24766	0.493	1.04458	0.43094	0.0107677017	-9.8057870148	-0.6245266986	0.014202616736999999	0.015424347209	0.012828169956	0.62321	1.04806	0.3393	11.29728	1.88288	7.53152	0.9928892178633112	30.705
162972	17179017	0	-20	-1376	-106	5	-11	49	1297	1807	444	2	-1360	-51	92	123	23	850	1801	743	352	80	336	28.86	0.9874167283493708	32.53	0.9982235381199112	4449.50830078125	-7309.8232421875	36.59999847412109	3.961450099945069	0	0.0	0.0	0.0	0.0	-0.1451467318013219	0.0	0.0	0.0588436961945436	0.0	0.0	0.0	0.0	12	44.825138346354166	-73.163720703125	-0.143569356	-9.8775716928	-0.7609175868	0.0143569356	-9.762716208	-0.36610185780000004	0.0015271630899999999	-0.003359758798	0.014966198282	0.028099800855999998	0.037568212014	0.0070249502139999994	0.75226	1.04806	0.25752	0.493	1.04458	0.43094	-0.0646062102	-9.8201439504	-0.5635097223000001	0.014813481972999998	0.017104226608	0.010995574248	0.62263	1.0463200000000001	0.34423000000000004	10.35584	2.3536	9.88512	0.9928201332346409	30.695
162973	17179123	0	-9	-1374	-124	-7	-35	51	1297	1807	444	5	-1366	-62	85	115	20	845	1820	747	368	96	160	28.87	0.987683197631384	32.54	0.9983518381445844	4449.50830078125	-7309.8232421875	36.59999847412109	3.955357074737549	0	0.0	0.0	0.0	0.0	-0.1812740454690767	0.0	0.0	0.0150437435126187	0.0	0.0	0.0	0.0	12	44.825138346354166	-73.163720703125	-0.0646062102	-9.8632147572	-0.8901300072	0.035892339	-9.8057870148	-0.4450650036	-0.0021380283259999997	-0.010690141629999999	0.015577063518	0.02596177253	0.035124751069999995	0.0061086523599999994	0.75226	1.04806	0.25752	0.4901	1.0556	0.43326	-0.014356935599999999	-9.834500886	-0.6675975054000001	0.011911872102	0.012217304719999999	0.010842857939	0.6211800000000001	1.05183	0.34539	10.82656	2.82432	4.7072	0.9930175178879842	30.705
162974	17179228	0	-10	-1373	-102	2	-27	53	1307	1790	430	4	-1362	-54	83	109	28	845	1820	747	288	16	192	28.87	0.9875746360720454	32.54	0.9983024919812484	4449.50830078125	-7309.8232421875	36.59999847412109	3.962557792663574	0	0.0	0.0	0.0	0.0	-0.2181171432595229	0.0	0.0	-0.025196004229322	0.0	0.0	0.0	0.0	12	44.825138346354166	-73.163720703125	-0.071784678	-9.8560362894	-0.7322037156000001	0.0287138712	-9.777073143600001	-0.3876372612	0.000610865236	-0.008246680686	0.016187928754	0.025350907293999997	0.033292155361999996	0.008552113303999999	0.75806	1.0382	0.2494	0.4901	1.0556	0.43326	-0.0215354034	-9.8165547165	-0.5599204884000001	0.012980886264999998	0.012522737337999999	0.012370021028999999	0.62408	1.0469	0.34133	8.47296	0.47072	5.64864	0.9929385640266469	30.705
162975	17179334	0	1	-1371	-117	10	-6	53	1269	1810	432	4	-1356	-64	84	127	30	860	1831	771	368	80	192	28.86	0.987614113002714	32.54	0.9982432765852456	4449.50830078125	-7309.8232421875	36.59999847412109	3.962557792663574	0	0.0	0.0	0.0	0.0	-0.2793264283303348	0.0	0.0	-0.0829932018516846	0.0	0.0	0.0	0.0	12	44.825138346354166	-73.163720703125	0.0071784678	-9.8416793538	-0.8398807326000001	0.0287138712	-9.7340023368	-0.4594219392	0.0030543261799999997	-0.001832595708	0.016187928754	0.025656339912	0.038789942486	0.00916297854	0.73602	1.0498	0.25056	0.4988	1.06198	0.44718	0.0179461695	-9.7878408453	-0.6496513359	0.014355333046	0.018478673389	0.012675453646999998	0.61741	1.05589	0.34887	10.82656	2.3536	5.64864	0.9929286947939797	30.7
162976	17179439	0	-19	-1378	-111	0	-34	50	1269	1810	432	1	-1364	-56	83	103	31	860	1831	771	400	32	256	28.87	0.9874759437453738	32.54	0.9981347150259068	4449.50830078125	-7309.8232421875	36.59999847412109	3.96671199798584	0	0.0	0.0	0.0	0.0	-0.2522389248582266	0.0	0.0	-0.0450879616144631	0.0	0.0	0.0	0.0	12	44.825138346354166	-73.163720703125	-0.1363908882	-9.8919286284	-0.7968099258	0.0071784678	-9.7914300792	-0.40199419680000004	0.0	-0.010384709011999999	0.0152716309	0.025350907293999997	0.031459559654	0.009468411158	0.73602	1.0498	0.25056	0.4988	1.06198	0.44718	-0.0646062102	-9.8416793538	-0.5994020613	0.012675453646999998	0.010537425321	0.012370021028999999	0.61741	1.05589	0.34887	11.768	0.94144	7.53152	0.9928053293856403	30.705
162977	17179544	0	-7	-1373	-119	2	-8	61	1298	1824	428	4	-1364	-61	89	130	23	873	1803	765	336	16	256	28.85	0.9872884283246978	32.54	0.9983024919812484	4449.50830078125	-7309.8232421875	36.59999847412109	3.957018852233887	0	0.0	0.0	0.0	0.0	-0.1021559730276305	0.0	0.0	0.113880048200093	0.0	0.0	0.0	0.0	12	44.825138346354166	-73.163720703125	-0.050249274600000005	-9.8560362894	-0.8542376682	0.0287138712	-9.7914300792	-0.43788653580000003	0.000610865236	-0.002443460944	0.018631389698	0.027183503002	0.03970624034	0.0070249502139999994	0.75284	1.05792	0.24824	0.50634	1.0457400000000001	0.4437	-0.010767701700000002	-9.8237331843	-0.646062102	0.013897184118999999	0.018631389698	0.012828169956	0.62959	1.05183	0.34597	9.88512	0.47072	7.53152	0.9927954601529732	30.695
162978	17179650	0	-14	-1371	-106	14	-33	52	1298	1824	428	6	-1366	-52	83	94	32	873	1803	765	336	-96	224	28.87	0.9874364668147052	32.54	0.99840118430792	4449.50830078125	-7309.8232421875	36.5	3.961726903915405	0	0.0	0.0	0.0	0.0	-0.1726611601991209	0.0	0.0	0.0291627498235936	0.0	0.0	0.0	0.0	12	44.825138346354166	-73.163720703125	-0.10049854920000001	-9.8416793538	-0.7609175868	0.0430708068	-9.8057870148	-0.3732803256	0.004276056651999999	-0.010079276394	0.015882496136	0.025350907293999997	0.028710666091999997	0.009773843776	0.75284	1.05792	0.24824	0.50634	1.0457400000000001	0.4437	-0.028713871200000005	-9.8237331843	-0.5670989562	0.014813481972999998	0.009315694848999998	0.012828169955999998	0.62959	1.05183	0.34597	9.88512	-2.82432	6.59008	0.9929188255613126	30.705
162979	17179755	0	-18	-1375	-116	6	5	48	1288	1805	422	5	-1364	-60	91	143	25	830	1802	756	400	96	224	28.86	0.987614113002714	32.53	0.9980656303972366	4449.50830078125	-7309.8232421875	36.5	3.970312356948853	0	0.0	0.0	0.0	0.0	-0.2350958622534832	0.0	0.0	-0.0378822756168274	0.0	0.0	0.0	0.0	12	44.825138346354166	-73.163720703125	-0.1292124204	-9.870393225	-0.8327022648	0.035892339	-9.7914300792	-0.430708068	0.001832595708	0.0015271630899999999	0.014660765664	0.027794368237999998	0.043676864374	0.00763581545	0.74704	1.0469	0.24476	0.4814	1.04516	0.43848	-0.0466600407	-9.8309116521	-0.6317051664	0.014813481973	0.022602013732	0.011148290557	0.61422	1.04603	0.34162	11.768	2.82432	6.59008	0.9928398716999753	30.695
162980	17179861	0	-14	-1373	-115	11	-26	51	1288	1805	422	4	-1363	-62	101	117	27	832	1793	752	336	-16	352	28.86	0.987614113002714	32.53	0.9985393535652602	4449.50830078125	-7309.8232421875	36.5	3.961450099945069	0	0.0	0.0	0.0	0.0	-0.3931344683361889	0.0	0.0	-0.1997628398430874	0.0	0.0	0.0	0.0	12	44.825138346354166	-73.163720703125	-0.10049854920000001	-9.8560362894	-0.825523797	0.0287138712	-9.7842516114	-0.4450650036	0.003359758798	-0.007941248068	0.015577063518	0.030848694418	0.035735616306	0.008246680686	0.74704	1.0469	0.24476	0.48256	1.03994	0.43616	-0.035892339	-9.8201439504	-0.6352944003000001	0.017104226607999998	0.013897184119	0.011911872102	0.6148	1.04342	0.34046	9.88512	-0.47072	10.35584	0.9930767332839872	30.695
162981	17179966	0	-10	-1371	-108	16	-21	49	1298	1823	428	5	-1365	-58	90	129	29	832	1793	752	416	48	176	28.86	0.9875647668393782	32.54	0.9981840611892424	4449.50830078125	-7309.8232421875	36.5	3.9581265449523926	0	0.0	0.0	0.0	0.0	-0.5533050319841853	0.0	0.0	-0.3415923331722718	0.0	0.0	0.0	0.0	12	44.825138346354166	-73.163720703125	-0.071784678	-9.8416793538	-0.7752745224	0.035892339	-9.798608547	-0.4163511324	0.004886921888	-0.006414084978	0.014966198282	0.02748893562	0.039400807722	0.008857545922	0.75284	1.05734	0.24824	0.48256	1.03994	0.43616	-0.0179461695	-9.8201439504	-0.5958128274000001	0.016187928754	0.016493361372	0.011911872102	0.6176999999999999	1.04864	0.3422	12.23872	1.41216	5.17792	0.9928744140143103	30.7
162982	17180071	0	-16	-1374	-118	19	-13	56	1298	1823	428	6	-1366	-67	99	137	25	854	1776	738	368	64	192	28.87	0.9877424130273872	32.53	0.998272884283247	4449.50830078125	-7309.8232421875	36.5	3.9586806297302246	0	0.0	0.0	0.0	0.0	-0.7281806665354333	0.0	0.0	-0.4834830499812886	0.0	0.0	0.0	0.0	12	44.825138346354166	-73.163720703125	-0.1148554848	-9.8632147572	-0.8470592004	0.0430708068	-9.8057870148	-0.4809573426	0.005803219742	-0.003970624034	0.017104226607999998	0.030237829182	0.041844268665999995	0.00763581545	0.75284	1.05734	0.24824	0.49532	1.03008	0.42804	-0.035892339	-9.834500886	-0.6640082715	0.018020524462	0.018936822315999996	0.012370021028999999	0.62408	1.04371	0.33814	10.82656	1.88288	5.64864	0.9930076486553171	30.700000000000003
162983	17180177	0	-9	-1378	-112	9	-27	60	1281	1794	437	4	-1364	-57	91	107	27	854	1776	738	352	-16	304	28.86	0.9876634591660498	32.54	0.998282753515914	4449.50830078125	-7309.8232421875	36.5	3.957018852233887	0	0.0	0.0	0.0	0.0	-0.8506061189750642	0.0	0.0	-0.5529572365943928	0.0	0.0	0.0	0.0	12	44.825138346354166	-73.163720703125	-0.0646062102	-9.8919286284	-0.8039883936000001	0.0287138712	-9.7914300792	-0.4091726646	0.002748893562	-0.008246680686	0.01832595708	0.027794368237999998	0.032681290126	0.008246680686	0.74298	1.0405200000000001	0.25346	0.49532	1.03008	0.42804	-0.017946169499999998	-9.8416793538	-0.6065805291	0.0152716309	0.012217304719999999	0.013286318883	0.61915	1.0353	0.34075	10.35584	-0.47072	8.94368	0.9929731063409819	30.7
162984	17180282	0	-14	-1373	-119	4	-13	60	1281	1794	437	4	-1360	-63	74	125	29	859	1799	750	448	112	208	28.86	0.9875154206760424	32.54	0.9982926227485812	4449.50830078125	-7309.8232421875	36.5	3.955911159515381	0	0.0	0.0	0.0	0.0	-0.830500470138354	0.0	0.0	-0.4704131556113388	0.0	0.0	0.0	0.0	12	44.825138346354166	-73.163720703125	-0.10049854920000001	-9.8560362894	-0.8542376682	0.0287138712	-9.762716208	-0.45224347140000004	0.001221730472	-0.003970624034	0.01832595708	0.022602013732	0.03817907725	0.008857545922	0.74298	1.0405200000000001	0.25346	0.49822	1.04342	0.435	-0.035892339	-9.809376248700001	-0.6532405698	0.011911872102	0.017104226607999998	0.013591751501000001	0.6206	1.04197	0.34423000000000004	13.18016	3.29504	6.11936	0.9929040217123117	30.7
162985	17180388	0	-13	-1378	-112	-11	-32	63	1275	1812	419	5	-1368	-62	81	115	25	859	1799	750	400	112	192	28.86	0.987308166790032	32.54	0.9981939304219096	4449.50830078125	-7309.8232421875	36.5	3.970312356948853	0	0.0	0.0	0.0	0.0	-0.7982056547641025	0.0	0.0	-0.3811470124049403	0.0	0.0	0.0	0.0	12	44.825138346354166	-73.163720703125	-0.0933200814	-9.8919286284	-0.8039883936000001	0.035892339	-9.8201439504	-0.4450650036	-0.003359758798	-0.009773843776	0.019242254934	0.024740042057999997	0.035124751069999995	0.00763581545	0.7395	1.0509600000000001	0.24302	0.49822	1.04342	0.435	-0.0287138712	-9.8560362894	-0.6245266986	0.010690141629999999	0.012675453646999998	0.013439035192	0.61886	1.04719	0.33901000000000003	11.768	3.29504	5.64864	0.9927510486059707	30.7
162986	17180493	0	-11	-1369	-108	-3	-42	52	1275	1812	419	3	-1357	-56	81	118	25	854	1843	732	384	16	304	28.86	0.9874562052800396	32.54	0.9982432765852456	4449.50830078125	-7309.8232421875	36.5	3.9592344760894775	0	0.0	0.0	0.0	0.0	-0.8403290196470796	0.0	0.0	-0.3791651894414243	0.0	0.0	0.0	0.0	12	44.825138346354166	-73.163720703125	-0.07896314580000001	-9.8273224182	-0.7752745224	0.0215354034	-9.7411808046	-0.40199419680000004	-0.000916297854	-0.012828169956	0.015882496136	0.024740042057999997	0.036041048924	0.00763581545	0.7395	1.0509600000000001	0.24302	0.49532	1.06894	0.42456	-0.028713871200000005	-9.7842516114	-0.5886343596000001	0.011911872102	0.011606439484	0.011759155793	0.61741	1.0599500000000002	0.33379000000000003	11.29728	0.47072	8.94368	0.9928497409326427	30.7
162987	17180598	0	-13	-1378	-109	3	-41	57	1302	1813	405	1	-1369	-61	77	96	28	854	1843	732	448	128	240	28.87	0.9876930668640512	32.54	0.9982926227485812	4449.50830078125	-7309.8232421875	36.5	3.9705891609191895	0	0.0	0.0	0.0	0.0	-0.7728330102632384	0.0	0.0	-0.2706732268312734	0.0	0.0	0.0	0.0	12	44.825138346354166	-73.163720703125	-0.0933200814	-9.8919286284	-0.7824529902	0.0071784678	-9.8273224182	-0.43788653580000003	0.000916297854	-0.012522737337999999	0.017409659225999997	0.023518311586	0.029321531328	0.008552113303999999	0.75516	1.05154	0.2349	0.49532	1.06894	0.42456	-0.0430708068	-9.8596255233	-0.610169763	0.012217304719999999	0.008399396995	0.012980886264999998	0.62524	1.0602399999999998	0.32972999999999997	13.18016	3.76576	7.0608	0.9929928448063162	30.705
162988	17180704	0	-9	-1368	-106	2	-31	52	1302	1813	405	4	-1357	-56	100	124	22	864	1793	748	384	-16	368	28.87	0.9875746360720454	32.54	0.9981939304219096	4449.50830078125	-7309.8232421875	36.5	3.964773416519165	0	0.0	0.0	0.0	0.0	-0.8152560571194378	0.0	0.0	-0.2815565270786898	0.0	0.0	0.0	0.0	12	44.825138346354166	-73.163720703125	-0.0646062102	-9.8201439504	-0.7609175868	0.0287138712	-9.7411808046	-0.40199419680000004	0.000610865236	-0.009468411158	0.015882496136	0.0305432618	0.037873644632	0.006719517596	0.75516	1.05154	0.2349	0.50112	1.03994	0.43384	-0.017946169499999998	-9.7806623775	-0.5814558918	0.015577063518	0.014202616737	0.011301006866	0.62814	1.04574	0.33437	11.29728	-0.47072	10.82656	0.9928842832469775	30.705
162989	17180809	0	-6	-1374	-119	15	-6	54	1300	1816	428	5	-1370	-54	95	136	24	864	1793	748	352	32	144	28.86	0.9875154206760424	32.55	0.9983123612139156	4449.50830078125	-7309.8232421875	36.5	3.966434955596924	0	0.0	0.0	0.0	0.0	-0.8053309266510331	0.0	0.0	-0.240088808168541	0.0	0.0	0.0	0.0	12	44.825138346354166	-73.163720703125	-0.0430708068	-9.8632147572	-0.8542376682	0.035892339	-9.834500886	-0.3876372612	0.00458148927	-0.001832595708	0.016493361372	0.029016098709999997	0.041538836047999995	0.007330382832	0.754	1.05328	0.24824	0.50112	1.03994	0.43384	-0.003589233899999999	-9.8488578216	-0.6209374647	0.016798793989999998	0.01985312017	0.011911872102	0.62756	1.04661	0.34104	10.35584	0.94144	4.23648	0.9929138909449791	30.705
162990	17180914	0	-16	-1368	-119	17	-28	57	1300	1816	428	3	-1356	-64	100	111	20	832	1780	774	304	-16	288	28.87	0.9875746360720454	32.55	0.9981051073279052	4449.50830078125	-7309.8232421875	36.5	3.965881109237671	0	0.0	0.0	0.0	0.0	-0.7599991688757433	0.0	0.0	-0.1636019356980716	0.0	0.0	0.0	0.0	12	44.825138346354166	-73.163720703125	-0.1148554848	-9.8201439504	-0.8542376682	0.0215354034	-9.7340023368	-0.4594219392	0.005192354505999999	-0.008552113303999999	0.017409659225999997	0.0305432618	0.033903020597999996	0.0061086523599999994	0.754	1.05328	0.24824	0.48256	1.0324	0.44892	-0.0466600407	-9.7770731436	-0.6568298037	0.017867808153	0.012675453646999998	0.011759155793	0.6182799999999999	1.04284	0.34858	8.94368	-0.47072	8.47296	0.9928398716999753	30.71
162991	17181020	0	-9	-1377	-117	12	-1	55	1302	1775	428	6	-1362	-59	93	130	26	832	1780	774	416	48	224	28.85	0.9874956822107082	32.53	0.9982235381199112	4449.50830078125	-7309.8232421875	36.5	3.9725279808044434	0	0.0	0.0	0.0	0.0	-0.6586181378356141	0.0	0.0	-0.0420024784881897	0.0	0.0	0.0	0.0	12	44.825138346354166	-73.163720703125	-0.0646062102	-9.884750160600001	-0.8398807326000001	0.0430708068	-9.777073143600001	-0.4235296002	0.003665191416	-0.000305432618	0.016798793989999998	0.028405233473999997	0.03970624034	0.007941248068	0.75516	1.0295	0.24824	0.48256	1.0324	0.44892	-0.0107677017	-9.830911652100001	-0.6317051664000001	0.016035212445	0.019700403861	0.012370021028999999	0.61886	1.03095	0.34858	12.23872	1.41216	6.59008	0.9928596101653097	30.69
162992	17181125	0	-12	-1372	-120	13	-42	56	1302	1775	428	3	-1365	-60	87	103	29	848	1786	745	432	32	272	28.87	0.9874167283493708	32.54	0.998144584258574	4449.50830078125	-7309.8232421875	36.5	3.963388681411743	0	0.0	0.0	0.0	0.0	-0.5810381230949935	0.0	0.0	0.0445128564188967	0.0	0.0	0.0	0.0	12	44.825138346354166	-73.163720703125	-0.0861416136	-9.848857821600001	-0.861416136	0.0215354034	-9.798608547	-0.430708068	0.003970624034	-0.012828169956	0.017104226607999998	0.026572637766	0.031459559654	0.008857545922	0.75516	1.0295	0.24824	0.49184	1.03588	0.4321	-0.0323031051	-9.8237331843	-0.646062102	0.0152716309	0.009315694848999998	0.012980886264999998	0.6235	1.03269	0.34017	12.70944	0.94144	8.00224	0.9927806563039724	30.705
162993	17181231	0	-4	-1373	-109	0	-4	52	1310	1793	420	6	-1361	-55	91	145	28	848	1786	745	416	32	272	28.86	0.9875647668393782	32.54	0.9982531458179128	4449.50830078125	-7309.8232421875	36.5	3.957018852233887	0	0.0	0.0	0.0	0.0	-0.6290933500181626	0.0	0.0	-0.0093910659706182	0.0	0.0	0.0	0.0	12	44.825138346354166	-73.163720703125	-0.0287138712	-9.8560362894	-0.7824529902	0.0430708068	-9.7698946758	-0.394815729	0.0	-0.001221730472	0.015882496136	0.027794368237999998	0.04428772961	0.008552113303999999	0.7598	1.03994	0.2436	0.49184	1.03588	0.4321	0.007178467799999999	-9.8129654826	-0.5886343596	0.013897184118999999	0.021532999569	0.012217304719999999	0.62582	1.03791	0.33785	12.23872	0.94144	8.00224	0.9929089563286455	30.7
162994	17181336	0	-19	-1379	-118	-4	-30	59	1302	1802	417	5	-1367	-58	79	115	33	865	1799	730	416	32	256	28.85	0.9874956822107082	32.55	0.998272884283247	4449.50830078125	-7309.8232421875	36.5	3.966158151626587	0	0.0	0.0	0.0	0.0	-0.661808051951416	0.0	0.0	-0.0382499608609412	0.0	0.0	0.0	0.0	12	44.825138346354166	-73.163720703125	-0.1363908882	-9.8991070962	-0.8470592004	0.035892339	-9.812965482600001	-0.4163511324	-0.001221730472	-0.00916297854	0.018020524462	0.024129176821999998	0.035124751069999995	0.010079276394	0.75516	1.04516	0.24186	0.5017	1.04342	0.4234	-0.050249274600000005	-9.8560362894	-0.6317051664	0.011453723175	0.012980886264999998	0.014049900428	0.62843	1.0442900000000002	0.33263	12.23872	0.94144	7.53152	0.9928842832469775	30.7
162995	17181441	0	-17	-1371	-112	-10	-59	51	1302	1802	417	3	-1363	-59	91	84	29	865	1776	740	368	64	128	28.87	0.987683197631384	32.55	0.9982630150505798	4449.50830078125	-7309.8232421875	36.5	3.9572958946228023	0	0.0	0.0	0.0	0.0	-0.6785646054890158	0.0	0.0	-0.0507794799069244	0.0	0.0	0.0	0.0	12	44.825138346354166	-73.163720703125	-0.12203395260000001	-9.8416793538	-0.8039883936000001	0.0215354034	-9.7842516114	-0.4235296002	-0.0030543261799999997	-0.018020524462	0.015577063518	0.027794368237999998	0.025656339912	0.008857545922	0.75516	1.04516	0.24186	0.5017	1.03008	0.4292	-0.050249274600000005	-9.8129654826	-0.6137589969	0.012370021028999999	0.003817907725	0.012217304719999999	0.62843	1.03762	0.33553	10.82656	1.88288	3.76576	0.9929731063409819	30.71
162996	17181547	0	-3	-1369	-106	2	-3	57	1293	1793	434	7	-1358	-51	88	144	29	831	1776	740	304	32	208	28.87	0.98773254379472	32.55	0.9982037996545768	4449.50830078125	-7309.8232421875	36.5	3.9708662033081055	0	0.0	0.0	0.0	0.0	-0.6829026709878782	0.0	0.0	-0.0507455311177012	0.0	0.0	0.0	0.0	12	44.825138346354166	-73.163720703125	-0.0215354034	-9.8273224182	-0.7609175868	0.050249274600000005	-9.7483592724	-0.36610185780000004	0.000610865236	-0.000916297854	0.017409659225999997	0.026878070384	0.043982296992	0.008857545922	0.74994	1.03994	0.25172	0.48198	1.03008	0.4292	0.014356935600000002	-9.7878408453	-0.5635097223000001	0.01374446781	0.021532999569	0.013133602573999998	0.6159600000000001	1.0350100000000002	0.34046	8.94368	0.94144	6.11936	0.9929681717246484	30.71
162997	17181652	0	-12	-1377	-111	-2	-34	49	1293	1793	434	4	-1363	-55	95	100	28	851	1807	714	432	32	160	28.87	0.9876437207007156	32.54	0.998144584258574	4449.50830078125	-7309.8232421875	36.5	3.961450099945069	0	0.0	0.0	0.0	0.0	-0.6961667275559964	0.0	0.0	-0.0578508019039069	0.0	0.0	0.0	0.0	12	44.825138346354166	-73.163720703125	-0.0861416136	-9.884750160600001	-0.7968099258	0.0287138712	-9.7842516114	-0.394815729	-0.000610865236	-0.010384709011999999	0.014966198282	0.029016098709999997	0.0305432618	0.008552113303999999	0.74994	1.03994	0.25172	0.49358	1.04806	0.41412	-0.028713871199999998	-9.834500886	-0.5958128274	0.014202616736999999	0.010079276394000001	0.011759155793	0.6217600000000001	1.044	0.33292	12.70944	0.94144	4.7072	0.9928941524796449	30.705
162998	17181758	0	-18	-1375	-113	10	3	56	1292	1807	416	4	-1366	-57	94	131	23	851	1807	714	368	96	160	28.87	0.9876437207007156	32.56	0.9983814458425856	4449.50830078125	-7309.8232421875	36.5	3.9592344760894775	0	0.0	0.0	0.0	0.0	-0.7018319559547984	0.0	0.0	-0.0560012559968391	0.0	0.0	0.0	0.0	12	44.825138346354166	-73.163720703125	-0.1292124204	-9.870393225	-0.8111668614	0.0287138712	-9.8057870148	-0.4091726646	0.0030543261799999997	0.000916297854	0.017104226607999998	0.028710666091999997	0.040011672958	0.0070249502139999994	0.74936	1.04806	0.24128	0.49358	1.04806	0.41412	-0.0502492746	-9.8380901199	-0.610169763	0.015882496136	0.020463985405999998	0.012064588410999999	0.62147	1.04806	0.3277	10.82656	2.82432	4.7072	0.9930125832716505	30.715000000000003
162999	17181863	0	-5	-1374	-112	6	-21	66	1292	1807	416	4	-1364	-59	105	112	35	842	1798	760	416	-64	272	28.87	0.9876437207007156	32.55	0.998272884283247	4449.50830078125	-7309.8232421875	36.5	3.961726903915405	0	0.0	0.0	0.0	0.0	-0.7417622685478082	0.0	0.0	-0.0891873061308645	0.0	0.0	0.0	0.0	12	44.825138346354166	-73.163720703125	-0.035892339	-9.8632147572	-0.8039883936000001	0.0287138712	-9.7914300792	-0.4235296002	0.001832595708	-0.006414084978	0.020158552788	0.03207042489	0.034208453215999995	0.010690141629999999	0.74936	1.04806	0.24128	0.48836	1.04284	0.4408	-0.0035892339000000006	-9.8273224182	-0.6137589969	0.016951510298999998	0.013897184118999997	0.015424347209	0.61886	1.04545	0.34104	12.23872	-1.88288	8.00224	0.9929583024919812	30.71
163000	17181968	0	-7	-1370	-111	4	-27	59	1268	1811	427	6	-1362	-53	88	117	33	842	1798	760	432	96	208	28.86	0.987614113002714	32.55	0.9983617073772514	4449.50830078125	-7309.8232421875	36.5	3.9589574337005615	0	0.0	0.0	0.0	0.0	-0.8126168211248337	0.0	0.0	-0.1519383811083195	0.0	0.0	0.0	0.0	12	44.825138346354166	-73.163720703125	-0.050249274600000005	-9.834500886	-0.7968099258	0.0430708068	-9.777073143600001	-0.3804587934	0.001221730472	-0.008246680686	0.018020524462	0.026878070384	0.035735616306	0.010079276394	0.73544	1.05038	0.24766	0.48836	1.04284	0.4408	-0.0035892339000000023	-9.8057870148	-0.5886343596	0.014049900427999999	0.013744467810000001	0.014049900428	0.6119	1.04661	0.34423000000000004	12.70944	2.82432	6.11936	0.9929879101899827	30.705
163001	17182074	0	-3	-1367	-127	-1	-26	58	1268	1811	427	6	-1362	-58	79	132	26	848	1779	744	480	48	208	28.87	0.9877424130273872	32.56	0.9982926227485812	4449.50830078125	-7309.8232421875	36.400001525878906	3.962280750274658	0	0.0	0.0	0.0	0.0	-0.9366428981438268	0.0	0.0	-0.2643929050160395	0.0	0.0	0.0	0.0	12	44.825138346354166	-73.163720703125	-0.0215354034	-9.812965482600001	-0.9116654106000001	0.0430708068	-9.777073143600001	-0.4163511324	-0.000305432618	-0.007941248068	0.017715091844	0.024129176821999998	0.040317105576	0.007941248068	0.73544	1.05038	0.24766	0.49184	1.03182	0.43152	0.0107677017	-9.795019313100001	-0.6640082715	0.011911872102	0.016187928754	0.012828169956	0.61364	1.0411000000000001	0.33959	14.1216	1.41216	6.11936	0.9930175178879842	30.715000000000003
163002	17182179	0	-18	-1382	-107	-3	-30	54	1314	1797	462	5	-1362	-55	85	99	27	848	1779	744	400	-16	320	28.86	0.9875647668393782	32.55	0.9983222304465827	4449.50830078125	-7309.8232421875	36.400001525878906	3.9581265449523926	0	0.0	0.0	0.0	0.0	-0.9769925271545516	0.0	0.0	-0.2766751751614726	0.0	0.0	0.0	0.0	12	44.825138346354166	-73.163720703125	-0.1292124204	-9.9206424996	-0.7680960546000001	0.035892339	-9.777073143600001	-0.394815729	-0.000916297854	-0.00916297854	0.016493361372	0.02596177253	0.030237829182	0.008246680686	0.76212	1.04226	0.26796	0.49184	1.03182	0.43152	-0.0466600407	-9.8488578216	-0.5814558918	0.012522737338	0.010537425321	0.012370021028999999	0.62698	1.03704	0.34974	11.768	-0.47072	9.4144	0.9929434986429805	30.705
163003	17182285	0	-9	-1371	-111	-2	-18	52	1314	1797	462	5	-1364	-52	89	114	27	852	1757	776	352	16	272	28.86	0.9874660745127066	32.56	0.99833209967925	4449.50830078125	-7309.8232421875	36.400001525878906	3.9708662033081055	0	0.0	0.0	0.0	0.0	-1.0496195971220474	0.0	0.0	-0.3185962905341886	0.0	0.0	0.0	0.0	12	44.825138346354166	-73.163720703125	-0.0646062102	-9.8416793538	-0.7968099258	0.035892339	-9.7914300792	-0.3732803256	-0.000610865236	-0.005497787124	0.015882496136	0.027183503002	0.034819318451999995	0.008246680686	0.76212	1.04226	0.26796	0.49416	1.01906	0.45008	-0.014356935599999999	-9.8165547165	-0.5850451257	0.013286318883	0.014660765663999997	0.012064588410999999	0.62814	1.0306600000000001	0.35902	10.35584	0.47072	8.00224	0.9928990870959783	30.71
163004	17182390	0	-15	-1373	-110	0	-18	59	1272	1788	444	4	-1362	-57	88	119	31	852	1757	776	416	112	160	28.85	0.9876042437700469	32.55	0.9982037996545768	4449.50830078125	-7309.8232421875	36.400001525878906	3.961450099945069	0	0.0	0.0	0.0	0.0	-1.0830125870500351	0.0	0.0	-0.316015383242084	0.0	0.0	0.0	0.0	12	44.825138346354166	-73.163720703125	-0.107677017	-9.8560362894	-0.789631458	0.0287138712	-9.777073143600001	-0.4091726646	0.0	-0.005497787124	0.018020524462	0.026878070384	0.036346481542	0.009468411158	0.73776	1.03704	0.25752	0.49416	1.01906	0.45008	-0.0394815729	-9.8165547165	-0.5994020613	0.013439035192	0.015424347209	0.013744467810000001	0.61596	1.02805	0.3538	12.23872	3.29504	4.7072	0.9929040217123118	30.7
163005	17182495	0	-10	-1372	-115	-6	-32	54	1272	1788	444	7	-1366	-60	87	123	34	826	1769	728	352	80	208	28.85	0.9874956822107082	32.56	0.99833209967925	4449.50830078125	-7309.8232421875	36.400001525878906	3.961450099945069	0	0.0	0.0	0.0	0.0	-1.124245805823558	0.0	0.0	-0.3220910547255175	0.0	0.0	0.0	0.0	12	44.825138346354166	-73.163720703125	-0.071784678	-9.848857821600001	-0.825523797	0.050249274600000005	-9.8057870148	-0.430708068	-0.001832595708	-0.009773843776	0.016493361372	0.026572637766	0.037568212014	0.010384709011999999	0.73776	1.03704	0.25752	0.47908	1.02602	0.42224	-0.0107677017	-9.827322418200001	-0.6281159325	0.012370021028999999	0.013897184119	0.013439035191999998	0.60842	1.03153	0.33988	10.35584	2.3536	6.11936	0.9929138909449791	30.705000000000002
163006	17182601	0	-17	-1380	-107	3	-8	62	1286	1802	436	5	-1363	-56	94	128	32	826	1769	728	448	128	176	28.86	0.9875154206760424	32.56	0.9982235381199112	4449.50830078125	-7309.8232421875	36.400001525878906	3.970312356948853	0	0.0	0.0	0.0	0.0	-1.146688920589001	0.0	0.0	-0.3062329046774673	0.0	0.0	0.0	0.0	12	44.825138346354166	-73.163720703125	-0.12203395260000001	-9.906285564000001	-0.7680960546000001	0.035892339	-9.7842516114	-0.40199419680000004	0.000916297854	-0.002443460944	0.018936822316	0.028710666091999997	0.039095375104	0.009773843776	0.74588	1.04516	0.25288	0.47908	1.02602	0.42224	-0.0430708068	-9.845268587700001	-0.5850451257	0.014813481972999998	0.01832595708	0.014355333046	0.61248	1.03559	0.33755999999999997	13.18016	3.76576	5.17792	0.9928694793979768	30.71
163007	17182706	0	-8	-1373	-121	9	-14	48	1286	1802	436	5	-1365	-68	98	130	27	834	1774	741	416	48	208	28.85	0.9876042437700469	32.57	0.9982926227485812	4449.50830078125	-7309.8232421875	36.400001525878906	3.9572958946228023	0	0.0	0.0	0.0	0.0	-1.120588846341883	0.0	0.0	-0.2453343355958799	0.0	0.0	0.0	0.0	12	44.825138346354166	-73.163720703125	-0.0574277424	-9.8560362894	-0.8685946038000001	0.035892339	-9.798608547	-0.48813581040000004	0.002748893562	-0.004276056651999999	0.014660765664	0.029932396564	0.03970624034	0.008246680686	0.74588	1.04516	0.25288	0.48372	1.02892	0.42978	-0.0107677017	-9.827322418200001	-0.6783652071	0.016340645063	0.017715091843999997	0.011453723175	0.6148	1.0370400000000002	0.34133	12.23872	1.41216	6.11936	0.992948433259314	30.71
163008	17182811	0	-12	-1374	-108	5	-41	57	1303	1810	433	5	-1360	-56	88	99	25	834	1774	741	384	-16	272	28.87	0.9877029360967184	32.56	0.9982334073525784	4449.50830078125	-7309.8232421875	36.400001525878906	3.9581265449523926	0	0.0	0.0	0.0	0.0	-1.0769855873631826	0.0	0.0	-0.175430120632304	0.0	0.0	0.0	0.0	12	44.825138346354166	-73.163720703125	-0.0861416136	-9.8632147572	-0.7752745224	0.035892339	-9.762716208	-0.40199419680000004	0.0015271630899999999	-0.012522737337999999	0.017409659225999997	0.026878070384	0.030237829182	0.00763581545	0.75574	1.0498	0.25114	0.48372	1.02892	0.42978	-0.0251246373	-9.8129654826	-0.5886343596000001	0.014202616736999999	0.008857545922	0.012522737337999999	0.61973	1.03936	0.34046	11.29728	-0.47072	8.00224	0.9929681717246484	30.715000000000003
163009	17182916	0	-7	-1369	-119	-3	-3	51	1303	1810	433	5	-1370	-69	82	123	22	845	1809	759	336	64	304	28.87	0.9876930668640512	32.55	0.998272884283247	4449.50830078125	-7309.8232421875	36.400001525878906	3.966989040374756	0	0.0	0.0	0.0	0.0	-1.0711347163204246	0.0	0.0	-0.1502671726456026	0.0	0.0	0.0	0.0	12	44.825138346354166	-73.163720703125	-0.050249274600000005	-9.8273224182	-0.8542376682	0.035892339	-9.834500886	-0.4953142782	-0.000916297854	-0.000916297854	0.015577063518	0.025045474675999997	0.037568212014	0.006719517596	0.75574	1.0498	0.25114	0.4901	1.04922	0.44022	-0.007178467800000001	-9.8309116521	-0.6747759732	0.012064588410999999	0.01832595708	0.011148290557	0.6229199999999999	1.0495100000000002	0.34568	9.88512	1.88288	8.94368	0.9929829755736491	30.71
163010	17183021	0	-15	-1377	-114	-5	-31	56	1283	1806	440	3	-1368	-62	83	114	28	845	1809	759	352	112	192	28.87	0.987683197631384	32.57	0.9982926227485812	4449.50830078125	-7309.8232421875	36.400001525878906	3.963111639022827	0	0.0	0.0	0.0	0.0	-0.9603799249811242	0.0	0.0	-0.0225554910076098	0.0	0.0	0.0	0.0	12	44.825138346354166	-73.163720703125	-0.107677017	-9.884750160600001	-0.8183453292	0.0215354034	-9.8201439504	-0.4450650036	-0.0015271630899999999	-0.009468411158	0.017104226607999998	0.025350907293999997	0.034819318451999995	0.008552113303999999	0.74414	1.04748	0.2552	0.4901	1.04922	0.44022	-0.0430708068	-9.8524470555	-0.6317051664	0.011911872102	0.012675453646999998	0.012828169955999998	0.61712	1.0483500000000001	0.34770999999999996	10.35584	3.29504	5.64864	0.9929879101899826	30.72
163011	17183127	0	-17	-1379	-113	3	-35	52	1283	1806	440	-3	-1362	-57	80	97	29	847	1826	741	416	48	320	28.87	0.987683197631384	32.55	0.9981149765605724	4449.50830078125	-7309.8232421875	36.400001525878906	3.960342168807984	0	0.0	0.0	0.0	0.0	-0.841627960154949	0.0	0.0	0.1058790068871704	0.0	0.0	0.0	0.0	12	44.825138346354166	-73.163720703125	-0.12203395260000001	-9.8991070962	-0.8111668614	-0.0215354034	-9.777073143600001	-0.4091726646	0.000916297854	-0.010690141629999999	0.015882496136	0.024434609439999998	0.029626963946	0.008857545922	0.74414	1.04748	0.2552	0.49126000000000003	1.05908	0.42978	-0.071784678	-9.8380901199	-0.610169763	0.012675453646999998	0.009468411158000001	0.012370021028999999	0.6177	1.05328	0.34248999999999996	12.23872	1.41216	9.4144	0.9928990870959782	30.71
163012	17183232	0	-9	-1379	-112	-6	-6	57	1288	1822	431	8	-1365	-53	85	117	28	858	1787	751	512	48	192	28.86	0.9875647668393782	32.57	0.9982432765852456	4449.50830078125	-7309.8232421875	36.400001525878906	3.957018852233887	0	0.0	0.0	0.0	0.0	-0.6682748468793744	0.0	0.0	0.2749279133670319	0.0	0.0	0.0	0.0	12	44.825138346354166	-73.163720703125	-0.0646062102	-9.8991070962	-0.8039883936000001	0.0574277424	-9.798608547	-0.3804587934	-0.001832595708	-0.001832595708	0.017409659225999997	0.02596177253	0.035735616306	0.008552113303999999	0.74704	1.05676	0.24998	0.49764	1.03646	0.43558	-0.003589233899999999	-9.8488578216	-0.5922235935	0.012064588410999999	0.016951510299	0.012980886264999998	0.62234	1.0466099999999998	0.34278000000000003	15.06304	1.41216	5.64864	0.992904021712312	30.715
163013	17183337	0	-10	-1375	-113	18	-29	62	1301	1803	449	4	-1362	-57	92	116	33	858	1787	751	304	-32	336	28.86	0.987673328398717	32.56	0.9982235381199112	4449.50830078125	-7309.8232421875	36.400001525878906	3.95369553565979	0	0.0	0.0	0.0	0.0	-0.5646948498010776	0.0	0.0	0.3547704837839148	0.0	0.0	0.0	0.0	12	44.825138346354166	-73.163720703125	-0.071784678	-9.870393225	-0.8111668614	0.0287138712	-9.777073143600001	-0.4091726646	0.005497787124	-0.008857545922	0.018936822316	0.028099800855999998	0.035430183688	0.010079276394	0.75458	1.0457400000000001	0.26042	0.49764	1.03646	0.43558	-0.0215354034	-9.8237331843	-0.610169763	0.016798793989999998	0.013286318883000001	0.014508049355	0.62611	1.0411000000000001	0.348	8.94368	-0.94144	9.88512	0.9929484332593141	30.71
163014	17183443	0	-8	-1378	-108	6	-11	51	1301	1803	449	5	-1362	-54	88	135	25	847	1765	723	448	48	208	28.87	0.9875845053047124	32.57	0.9982531458179128	4449.50830078125	-7309.8232421875	36.400001525878906	3.957849740982056	0	0.0	0.0	0.0	0.0	-0.5037512022558666	0.0	0.0	0.3794215473041912	0.0	0.0	0.0	0.0	12	44.825138346354166	-73.163720703125	-0.0574277424	-9.8919286284	-0.7752745224	0.035892339	-9.777073143600001	-0.3876372612	0.001832595708	-0.003359758798	0.015577063518	0.026878070384	0.041233403429999996	0.00763581545	0.75458	1.0457400000000001	0.26042	0.49126000000000003	1.0237	0.41934	-0.0107677017	-9.834500886	-0.5814558918	0.014355333046	0.018936822316	0.011606439484	0.62292	1.03472	0.33987999999999996	13.18016	1.41216	6.11936	0.9929188255613126	30.72
163015	17183548	0	-5	-1375	-118	8	-22	56	1298	1810	419	6	-1357	-59	95	118	19	847	1765	723	368	-16	256	28.86	0.9875647668393782	32.56	0.9983419689119172	4449.50830078125	-7309.8232421875	36.400001525878906	3.963111639022827	0	0.0	0.0	0.0	0.0	-0.5121232968626237	0.0	0.0	0.3293417023937933	0.0	0.0	0.0	0.0	12	44.825138346354166	-73.163720703125	-0.035892339	-9.870393225	-0.8470592004	0.0430708068	-9.7411808046	-0.4235296002	0.002443460944	-0.006719517596	0.017104226607999998	0.029016098709999997	0.036041048924	0.005803219742	0.75284	1.0498	0.24302	0.49126000000000003	1.0237	0.41934	0.003589233899999999	-9.8057870148	-0.6352944003000001	0.015729779827	0.014660765664	0.011453723175	0.62205	1.03675	0.33118000000000003	10.82656	-0.47072	7.53152	0.9929533678756477	30.71
163016	17183654	0	-13	-1375	-118	2	-18	52	1298	1810	419	4	-1367	-66	96	134	23	844	1776	709	352	-16	224	28.86	0.9877226745620528	32.56	0.9982235381199112	4449.50830078125	-7309.8232421875	36.400001525878906	3.962557792663574	0	0.0	0.0	0.0	0.0	-0.5080781925139137	0.0	0.0	0.2969489129305653	0.0	0.0	0.0	0.0	12	44.825138346354166	-73.163720703125	-0.0933200814	-9.870393225	-0.8470592004	0.0287138712	-9.812965482600001	-0.4737788748	0.000610865236	-0.005497787124	0.015882496136	0.029321531328	0.040927970811999996	0.0070249502139999994	0.75284	1.0498	0.24302	0.48952	1.03008	0.41122000000000003	-0.0323031051	-9.8416793538	-0.6604190376000001	0.014966198282	0.017715091843999997	0.011453723175	0.62118	1.03994	0.32712	10.35584	-0.47072	6.59008	0.9929731063409819	30.71
163017	17183759	0	-13	-1372	-120	3	-33	52	1298	1814	438	4	-1365	-64	91	111	22	844	1776	709	352	32	176	28.87	0.9875746360720454	32.56	0.9981248457932396	4449.50830078125	-7309.8232421875	36.400001525878906	3.970312356948853	0	0.0	0.0	0.0	0.0	-0.5390849439030408	0.0	0.0	0.2334054583291728	0.0	0.0	0.0	0.0	12	44.825138346354166	-73.163720703125	-0.0933200814	-9.848857821600001	-0.861416136	0.0287138712	-9.798608547	-0.4594219392	0.000916297854	-0.010079276394	0.015882496136	0.027794368237999998	0.033903020597999996	0.006719517596	0.75284	1.05212	0.25404	0.48952	1.03008	0.41122000000000003	-0.0323031051	-9.8237331843	-0.6604190376	0.014355333045999999	0.011911872102	0.011301006866	0.62118	1.0411000000000001	0.33263	10.35584	0.94144	5.17792	0.9928497409326424	30.715000000000003
163018	17183864	0	-10	-1374	-114	1	-22	54	1298	1814	438	3	-1363	-59	90	124	29	866	1792	748	272	64	272	28.86	0.9875154206760424	32.56	0.998282753515914	4449.50830078125	-7309.8232421875	36.400001525878906	3.9586806297302246	0	0.0	0.0	0.0	0.0	-0.5279109990520945	0.0	0.0	0.2207897061651477	0.0	0.0	0.0	0.0	12	44.825138346354166	-73.163720703125	-0.071784678	-9.8632147572	-0.8183453292	0.0215354034	-9.7842516114	-0.4235296002	0.000305432618	-0.006719517596	0.016493361372	0.02748893562	0.037873644632	0.008857545922	0.75284	1.05212	0.25404	0.50228	1.03936	0.43384	-0.025124637300000002	-9.8237331843	-0.6209374647	0.013897184118999999	0.015577063518	0.012675453646999998	0.6275599999999999	1.04574	0.34394	8.00224	1.88288	8.00224	0.9928990870959782	30.71
163019	17183970	0	-11	-1379	-118	4	-31	58	1305	1800	448	5	-1366	-63	79	122	38	866	1792	748	400	-16	256	28.87	0.9875845053047124	32.57	0.9982037996545768	4449.50830078125	-7309.8232421875	36.400001525878906	3.9725279808044434	0	0.0	0.0	0.0	0.0	-0.4789049406794627	0.0	0.0	0.2506487917206579	0.0	0.0	0.0	0.0	12	44.825138346354166	-73.163720703125	-0.07896314580000001	-9.8991070962	-0.8470592004	0.035892339	-9.8057870148	-0.45224347140000004	0.001221730472	-0.009468411158	0.017715091844	0.024129176821999998	0.037262779396	0.011606439484	0.7569	1.044	0.25984	0.50228	1.03936	0.43384	-0.021535403400000003	-9.8524470555	-0.6496513359	0.012675453646999998	0.013897184119	0.014660765664	0.62959	1.04168	0.34684000000000004	11.768	-0.47072	7.53152	0.9928941524796446	30.72
163020	17184075	0	-13	-1371	-118	1	-27	57	1305	1800	448	4	-1359	-60	75	108	31	844	1799	735	416	-16	192	28.87	0.987367382186035	32.55	0.998213668887244	4449.50830078125	-7309.8232421875	36.400001525878906	3.970312356948853	0	0.0	0.0	0.0	0.0	-0.5442794644329205	0.0	0.0	0.1627658278393135	0.0	0.0	0.0	0.0	12	44.825138346354166	-73.163720703125	-0.0933200814	-9.8416793538	-0.8470592004	0.0287138712	-9.755537740200001	-0.430708068	0.000305432618	-0.008246680686	0.017409659225999997	0.02290744635	0.032986722744	0.009468411158	0.7569	1.044	0.25984	0.48952	1.04342	0.4263	-0.0323031051	-9.798608547	-0.6388836342	0.011606439484	0.012370021028999999	0.013439035191999998	0.62321	1.04371	0.34307	12.23872	-0.47072	5.64864	0.9927905255366396	30.71
163021	17184181	0	-7	-1376	-101	-3	-25	51	1299	1783	439	7	-1370	-61	84	127	29	844	1799	735	384	-32	304	28.87	0.987683197631384	32.56	0.998282753515914	4449.50830078125	-7309.8232421875	36.400001525878906	3.9592344760894775	0	0.0	0.0	0.0	0.0	-0.6033318078495457	0.0	0.0	0.0832331901941477	0.0	0.0	0.0	0.0	12	44.825138346354166	-73.163720703125	-0.050249274600000005	-9.8775716928	-0.7250252478	0.050249274600000005	-9.834500886	-0.43788653580000003	-0.000916297854	-0.00763581545	0.015577063518	0.025656339912	0.038789942486	0.008857545922	0.75342	1.03414	0.25462	0.48952	1.04342	0.4263	0.0	-9.8560362894	-0.5814558918	0.012370021029	0.015577063518	0.012217304719999999	0.62147	1.03878	0.34046	11.29728	-0.94144	8.94368	0.992982975573649	30.715000000000003
163022	17184286	0	-15	-1371	-113	3	-29	44	1299	1783	439	4	-1365	-55	100	109	23	826	1757	723	384	-16	288	28.86	0.987673328398717	32.57	0.9983024919812484	4449.50830078125	-7309.8232421875	36.400001525878906	3.970312356948853	0	0.0	0.0	0.0	0.0	-0.6850131816551125	0.0	0.0	-0.0082839357528254	0.0	0.0	0.0	0.0	12	44.825138346354166	-73.163720703125	-0.107677017	-9.8416793538	-0.8111668614	0.0287138712	-9.798608547	-0.394815729	0.000916297854	-0.008857545922	0.013439035192	0.0305432618	0.033292155361999996	0.0070249502139999994	0.75342	1.03414	0.25462	0.47908	1.01906	0.41934	-0.0394815729	-9.8201439504	-0.6029912952	0.015729779827	0.012217304719999999	0.010231992702999999	0.61625	1.0266000000000002	0.33698	11.29728	-0.47072	8.47296	0.9929879101899828	30.715
163023	17184391	0	-18	-1370	-113	10	-22	47	1279	1796	415	2	-1366	-53	88	118	25	826	1757	723	320	64	288	28.86	0.9876634591660498	32.57	0.9982432765852456	4449.50830078125	-7309.8232421875	36.400001525878906	3.9716970920562735	0	0.0	0.0	0.0	0.0	-0.7771298180395849	0.0	0.0	-0.1022493556892045	0.0	0.0	0.0	0.0	12	44.825138346354166	-73.163720703125	-0.1292124204	-9.834500886	-0.8111668614	0.0143569356	-9.8057870148	-0.3804587934	0.0030543261799999997	-0.006719517596	0.014355333045999999	0.026878070384	0.036041048924	0.00763581545	0.74182	1.04168	0.2407	0.47908	1.01906	0.41934	-0.0574277424	-9.8201439504	-0.5958128274000001	0.014966198282	0.014660765664	0.010995574248	0.61045	1.03037	0.33002	9.4144	1.88288	8.47296	0.9929533678756477	30.715
163024	17184497	0	-15	-1372	-120	12	-1	50	1279	1796	415	4	-1359	-67	95	135	30	850	1760	755	368	80	208	28.87	0.9876437207007156	32.57	0.9982432765852456	4449.50830078125	-7309.8232421875	36.400001525878906	3.961726903915405	0	0.0	0.0	0.0	0.0	-0.8371662652567489	0.0	0.0	-0.1494820182611529	0.0	0.0	0.0	0.0	12	44.825138346354166	-73.163720703125	-0.107677017	-9.848857821600001	-0.861416136	0.0287138712	-9.755537740200001	-0.4809573426	0.003665191416	-0.000305432618	0.0152716309	0.029016098709999997	0.041233403429999996	0.00916297854	0.74182	1.04168	0.2407	0.493	1.0208	0.4379	-0.0394815729	-9.802197780900002	-0.6711867393	0.016340645063	0.020463985405999998	0.012217304719999999	0.61741	1.03124	0.3393	10.82656	2.3536	6.11936	0.9929434986429806	30.72
163025	17184602	0	-11	-1368	-114	8	-29	57	1298	1814	415	4	-1363	-66	92	113	34	850	1760	755	400	96	240	28.86	0.987673328398717	32.57	0.9983518381445844	4449.50830078125	-7309.8232421875	36.400001525878906	3.9586806297302246	0	0.0	0.0	0.0	0.0	-0.8594956582103939	0.0	0.0	-0.1552824329582676	0.0	0.0	0.0	0.0	12	44.825138346354166	-73.163720703125	-0.07896314580000001	-9.8201439504	-0.8183453292	0.0287138712	-9.7842516114	-0.4737788748	0.002443460944	-0.008857545922	0.017409659225999997	0.028099800855999998	0.034513885833999995	0.010384709011999999	0.75284	1.05212	0.2407	0.493	1.0208	0.4379	-0.025124637300000002	-9.8021977809	-0.646062102	0.0152716309	0.012828169955999998	0.013897184118999997	0.6229199999999999	1.03646	0.3393	11.768	2.82432	7.0608	0.9930125832716508	30.715
163026	17184708	0	-12	-1379	-117	4	-5	52	1298	1814	415	5	-1366	-62	85	121	31	872	1804	735	448	112	192	28.87	0.9876437207007156	32.56	0.9982334073525784	4449.50830078125	-7309.8232421875	36.29999923706055	3.957849740982056	0	0.0	0.0	0.0	0.0	-0.8682489779533423	0.0	0.0	-0.1452085649406273	0.0	0.0	0.0	0.0	12	44.825138346354166	-73.163720703125	-0.0861416136	-9.8991070962	-0.8398807326000001	0.035892339	-9.8057870148	-0.4450650036	0.001221730472	-0.0015271630899999999	0.015882496136	0.02596177253	0.036957346778	0.009468411158	0.75284	1.05212	0.2407	0.50576	1.04632	0.4263	-0.0251246373	-9.8524470555	-0.6424728681	0.013591751501	0.017715091844	0.012675453646999998	0.6293	1.04922	0.3335	13.18016	3.29504	5.64864	0.992938564026647	30.715000000000003
163027	17184813	0	-9	-1379	-116	-6	-38	56	1284	1796	432	7	-1362	-61	76	105	38	840	1778	741	400	32	160	28.86	0.9874660745127066	32.57	0.9982037996545768	4449.50830078125	-7309.8232421875	36.29999923706055	3.960342168807984	0	0.0	0.0	0.0	0.0	-0.7149676873834175	0.0	0.0	0.0298484834216437	0.0	0.0	0.0	0.0	12	44.825138346354166	-73.163720703125	-0.0646062102	-9.8991070962	-0.8327022648	0.050249274600000005	-9.777073143600001	-0.43788653580000003	-0.001832595708	-0.011606439484	0.017104226607999998	0.023212878968	0.03207042489	0.011606439484	0.74472	1.04168	0.25056	0.4872	1.03124	0.42978	-0.007178467799999998	-9.8380901199	-0.6352944003000001	0.01069014163	0.010231992702999999	0.014355333045999999	0.6159600000000001	1.03646	0.34017	11.768	0.94144	4.7072	0.9928349370836418	30.715
163028	17184918	0	-9	-1372	-117	-6	-36	61	1284	1796	432	4	-1363	-57	73	96	23	840	1778	741	368	64	192	28.87	0.987426597582038	32.58	0.998272884283247	4449.50830078125	-7309.8232421875	36.29999923706055	3.960896015167236	0	0.0	0.0	0.0	0.0	-0.4999957986849274	0.0	0.0	0.2519312830803609	0.0	0.0	0.0	0.0	12	44.825138346354166	-73.163720703125	-0.0646062102	-9.848857821600001	-0.8398807326000001	0.0287138712	-9.7842516114	-0.4091726646	-0.001832595708	-0.010995574248	0.018631389698	0.022296581114	0.029321531328	0.0070249502139999994	0.74472	1.04168	0.25056	0.4872	1.03124	0.42978	-0.017946169499999998	-9.8165547165	-0.6245266986	0.010231992703	0.00916297854	0.012828169956	0.6159600000000001	1.03646	0.34017	10.82656	1.88288	5.64864	0.9928497409326424	30.725
163029	17185024	0	-10	-1373	-117	-1	-31	42	1279	1804	407	2	-1364	-57	79	105	23	824	1745	747	384	-16	240	28.87	0.9876437207007156	32.57	0.9980853688625708	4449.50830078125	-7309.8232421875	36.29999923706055	3.962557792663574	0	0.0	0.0	0.0	0.0	-0.3256256026377419	0.0	0.0	0.4034602232038921	0.0	0.0	0.0	0.0	12	44.825138346354166	-73.163720703125	-0.071784678	-9.8560362894	-0.8398807326000001	0.0143569356	-9.7914300792	-0.4091726646	-0.000305432618	-0.009468411158	0.012828169956	0.024129176821999998	0.03207042489	0.0070249502139999994	0.74182	1.04632	0.23606	0.47792	1.0121	0.43326	-0.0287138712	-9.8237331843	-0.6245266986	0.011911872102	0.011301006866	0.009926560085	0.60987	1.02921	0.33465999999999996	11.29728	-0.47072	7.0608	0.9928645447816432	30.72
163030	17185129	0	-18	-1374	-107	-4	-34	48	1279	1804	407	2	-1359	-52	86	102	23	824	1745	747	320	16	320	28.87	0.9874858129780408	32.57	0.998213668887244	4449.50830078125	-7309.8232421875	36.29999923706055	3.9586806297302246	0	0.0	0.0	0.0	0.0	-0.3028952433467093	0.0	0.0	0.386216878277173	0.0	0.0	0.0	0.0	12	44.825138346354166	-73.163720703125	-0.1292124204	-9.8632147572	-0.7680960546000001	0.0143569356	-9.755537740200001	-0.3732803256	-0.001221730472	-0.010384709011999999	0.014660765664	0.026267205148	0.031154127036	0.0070249502139999994	0.74182	1.04632	0.23606	0.47792	1.0121	0.43326	-0.0574277424	-9.809376248700001	-0.5706881901	0.012522737338	0.010384709012	0.010842857939	0.60987	1.02921	0.33465999999999996	9.4144	0.47072	9.4144	0.9928497409326424	30.72
163031	17185234	0	-20	-1379	-104	4	-13	59	1307	1778	424	1	-1362	-52	99	122	30	841	1788	733	416	96	176	28.87	0.9877522822600544	32.57	0.9981939304219096	4449.50830078125	-7309.8232421875	36.29999923706055	3.9705891609191895	0	0.0	0.0	0.0	0.0	-0.26338254416402	0.0	0.0	0.3857804892560955	0.0	0.0	0.0	0.0	12	44.825138346354166	-73.163720703125	-0.143569356	-9.8991070962	-0.7465606512	0.0071784678	-9.777073143600001	-0.3732803256	0.001221730472	-0.003970624034	0.018020524462	0.030237829182	0.037262779396	0.00916297854	0.75806	1.03124	0.24592	0.48778	1.03704	0.42514	-0.0681954441	-9.8380901199	-0.5599204884	0.015729779827	0.016646077681	0.013591751501000001	0.6229199999999999	1.0341399999999998	0.33553	12.23872	2.82432	5.17792	0.992973106340982	30.72
163032	17185340	0	-19	-1375	-118	27	-12	58	1298	1787	433	3	-1362	-66	116	124	33	841	1788	733	400	16	256	28.87	0.9875351591413768	32.57	0.9980853688625708	4449.50830078125	-7309.8232421875	36.29999923706055	3.9581265449523926	0	0.0	0.0	0.0	0.0	-0.23314404819733	0.0	0.0	0.3786135629229898	0.0	0.0	0.0	0.0	12	44.825138346354166	-73.163720703125	-0.1363908882	-9.870393225	-0.8470592004	0.0215354034	-9.777073143600001	-0.4737788748	0.008246680686	-0.003665191416	0.017715091844	0.035430183688	0.037873644632	0.010079276394	0.75284	1.03646	0.25114	0.48778	1.03704	0.42514	-0.0574277424	-9.8237331843	-0.6604190376000001	0.021838432187	0.017104226607999998	0.013897184119	0.6203099999999999	1.03675	0.33814	11.768	0.47072	7.53152	0.9928102640019738	30.72
163033	17185445	0	-6	-1376	-110	5	-6	65	1298	1787	433	3	-1363	-63	108	141	39	868	1769	716	336	16	240	28.86	0.9872982975573648	32.57	0.99840118430792	4449.50830078125	-7309.8232421875	36.29999923706055	3.9584035873413086	0	0.0	0.0	0.0	0.0	-0.1908520733957608	0.0	0.0	0.3831861574207104	0.0	0.0	0.0	0.0	12	44.825138346354166	-73.163720703125	-0.0430708068	-9.8775716928	-0.789631458	0.0215354034	-9.7842516114	-0.45224347140000004	0.0015271630899999999	-0.001832595708	0.01985312017	0.032986722744	0.043065999138	0.011911872102	0.75284	1.03646	0.25114	0.50344	1.02602	0.41528	-0.0107677017	-9.8309116521	-0.6209374647	0.017256942916999998	0.020616701715	0.015882496136	0.6281399999999999	1.03124	0.33321	9.88512	0.47072	7.0608	0.9928497409326424	30.715
163034	17185551	0	-15	-1374	-116	2	-13	60	1285	1814	429	4	-1362	-69	96	125	32	868	1769	716	416	128	160	28.86	0.987614113002714	32.57	0.9982531458179128	4449.50830078125	-7309.8232421875	36.29999923706055	3.970312356948853	0	0.0	0.0	0.0	0.0	-0.1850662462537892	0.0	0.0	0.3486966649346031	0.0	0.0	0.0	0.0	12	44.825138346354166	-73.163720703125	-0.107677017	-9.8632147572	-0.8327022648	0.0287138712	-9.777073143600001	-0.4953142782	0.000610865236	-0.003970624034	0.01832595708	0.029321531328	0.03817907725	0.009773843776	0.7453	1.05212	0.24882	0.50344	1.02602	0.41528	-0.0394815729	-9.8201439504	-0.6640082715	0.014966198282	0.017104226607999998	0.014049900428	0.62437	1.03907	0.33205	12.23872	3.76576	4.7072	0.9929336294103134	30.715
163035	17185656	0	-14	-1372	-116	10	-33	56	1285	1814	429	3	-1366	-58	84	112	29	839	1761	723	384	-32	272	28.86	0.9875154206760424	32.57	0.9983123612139156	4449.50830078125	-7309.8232421875	36.29999923706055	3.961450099945069	0	0.0	0.0	0.0	0.0	-0.1755660355377574	0.0	0.0	0.319928996658201	0.0	0.0	0.0	0.0	12	44.825138346354166	-73.163720703125	-0.10049854920000001	-9.848857821600001	-0.8327022648	0.0215354034	-9.8057870148	-0.4163511324	0.0030543261799999997	-0.010079276394	0.017104226607999998	0.025656339912	0.034208453215999995	0.008857545922	0.7453	1.05212	0.24882	0.48662	1.02138	0.41934	-0.039481572900000005	-9.827322418200001	-0.6245266986	0.014355333046	0.012064588410999999	0.012980886264999998	0.61596	1.03675	0.33408	11.29728	-0.94144	8.00224	0.9929138909449791	30.715
163036	17185761	0	-15	-1373	-121	3	-28	44	1260	1776	432	6	-1368	-63	83	112	19	839	1761	723	304	80	272	28.87	0.987545028374044	32.58	0.9981643227239082	4449.50830078125	-7309.8232421875	36.29999923706055	3.960342168807984	0	0.0	0.0	0.0	0.0	-0.2927215790315184	0.0	0.0	0.1684124518705547	0.0	0.0	0.0	0.0	12	44.825138346354166	-73.163720703125	-0.107677017	-9.8560362894	-0.8685946038000001	0.0430708068	-9.8201439504	-0.45224347140000004	0.000916297854	-0.008552113303999999	0.013439035192	0.025350907293999997	0.034208453215999995	0.005803219742	0.7308	1.03008	0.25056	0.48662	1.02138	0.41934	-0.0323031051	-9.8380901199	-0.6604190376000001	0.013133602573999998	0.012828169955999998	0.009621127467	0.60871	1.02573	0.33494999999999997	8.94368	2.3536	8.00224	0.9928546755489761	30.725
163037	17185867	0	-8	-1373	-120	-9	-35	45	1260	1776	432	6	-1364	-61	74	98	19	846	1794	745	416	16	256	28.87	0.9873180360226992	32.58	0.9980064150012335	4449.50830078125	-7309.8232421875	36.29999923706055	3.95757269859314	0	0.0	0.0	0.0	0.0	-0.226378202361791	0.0	0.0	0.2231554513277752	0.0	0.0	0.0	0.0	12	44.825138346354166	-73.163720703125	-0.0574277424	-9.8560362894	-0.861416136	0.0430708068	-9.7914300792	-0.43788653580000003	-0.002748893562	-0.010690141629999999	0.01374446781	0.022602013732	0.029932396564	0.005803219742	0.7308	1.03008	0.25056	0.49068	1.0405200000000001	0.4321	-0.007178467800000001	-9.8237331843	-0.6496513359	0.009926560085	0.009621127467000001	0.009773843776	0.6107400000000001	1.0353	0.34133	12.23872	0.47072	7.53152	0.9926622255119664	30.725
163038	17185972	0	-22	-1377	-104	0	-26	50	1289	1795	433	0	-1364	-52	76	112	20	846	1794	745	432	64	256	28.87	0.9876338514680484	32.57	0.9981544534912412	4449.50830078125	-7309.8232421875	36.29999923706055	3.962003946304321	0	0.0	0.0	0.0	0.0	-0.0966779201645823	0.0	0.0	0.3324302663844408	0.0	0.0	0.0	0.0	12	44.825138346354166	-73.163720703125	-0.15792629160000002	-9.884750160600001	-0.7465606512	0.0	-9.7914300792	-0.3732803256	0.0	-0.007941248068	0.0152716309	0.023212878968	0.034208453215999995	0.0061086523599999994	0.74762	1.0411	0.25114	0.49068	1.0405200000000001	0.4321	-0.07896314580000001	-9.8380901199	-0.5599204884	0.011606439484	0.013133602573999998	0.01069014163	0.61915	1.04081	0.34162	12.70944	1.88288	7.53152	0.9928941524796449	30.72
163039	17186078	0	-15	-1376	-111	-7	-18	56	1289	1795	433	3	-1370	-53	89	122	36	864	1803	726	368	96	192	28.86	0.987308166790032	32.56	0.9982926227485812	4449.50830078125	-7309.8232421875	36.29999923706055	3.970312356948853	0	0.0	0.0	0.0	0.0	-0.016902940739649	0.0	0.0	0.3826832989520586	0.0	0.0	0.0	0.0	12	44.825138346354166	-73.163720703125	-0.107677017	-9.8775716928	-0.7968099258	0.0215354034	-9.834500886	-0.3804587934	-0.0021380283259999997	-0.005497787124	0.017104226607999998	0.027183503002	0.037262779396	0.010995574248	0.74762	1.0411	0.25114	0.50112	1.0457400000000001	0.42108	-0.0430708068	-9.8560362894	-0.5886343596	0.012522737337999999	0.015882496136	0.014049900427999999	0.62437	1.04342	0.33611	10.82656	2.82432	5.64864	0.9928003947693066	30.71
163040	17186183	0	-16	-1381	-113	13	-22	64	1294	1776	416	4	-1372	-60	99	119	34	864	1803	726	336	144	224	28.86	0.9874167283493708	32.56	0.9980754996299038	4449.50830078125	-7309.8232421875	36.29999923706055	3.965881109237671	0	0.0	0.0	0.0	0.0	0.0080872560200792	0.0	0.0	0.3715813390799402	0.0	0.0	0.0	0.0	12	44.825138346354166	-73.163720703125	-0.1148554848	-9.9134640318	-0.8111668614	0.0287138712	-9.848857821600001	-0.430708068	0.003970624034	-0.006719517596	0.019547687552	0.030237829182	0.036346481542	0.010384709011999999	0.75052	1.03008	0.24128	0.50112	1.0457400000000001	0.42108	-0.0430708068	-9.881160926700002	-0.6209374647	0.017104226607999998	0.014813481973	0.014966198282	0.62582	1.03791	0.33118000000000003	9.88512	4.23648	6.59008	0.9927461139896373	30.71
163041	17186288	0	-5	-1372	-111	23	-3	54	1294	1776	416	5	-1359	-57	108	129	30	843	1810	703	416	48	144	28.87	0.9875252899087096	32.57	0.998144584258574	4449.50830078125	-7309.8232421875	36.29999923706055	3.961450099945069	0	0.0	0.0	0.0	0.0	0.1116404219768154	0.0	0.0	0.4367383998637102	0.0	0.0	0.0	0.0	12	44.825138346354166	-73.163720703125	-0.035892339	-9.848857821600001	-0.7968099258	0.035892339	-9.755537740200001	-0.4091726646	0.0070249502139999994	-0.000916297854	0.016493361372	0.032986722744	0.039400807722	0.00916297854	0.75052	1.03008	0.24128	0.48894	1.0498	0.40774	0.0	-9.802197780900002	-0.6029912952	0.020005836479	0.019242254934	0.012828169955999998	0.61973	1.03994	0.32450999999999997	12.23872	1.41216	4.23648	0.9928349370836418	30.72
163042	17186394	0	-9	-1374	-124	12	-10	56	1285	1807	471	8	-1368	-71	86	126	25	838	1790	736	432	64	224	28.87	0.9876535899333828	32.57	0.998144584258574	4449.50830078125	-7309.8232421875	36.29999923706055	3.970312356948853	0	0.0	0.0	0.0	0.0	0.1788890792356452	0.0	0.0	0.4596701553443399	0.0	0.0	0.0	0.0	12	44.825138346354166	-73.163720703125	-0.0646062102	-9.8632147572	-0.8901300072	0.0574277424	-9.8201439504	-0.5096712138	0.003665191416	-0.0030543261799999997	0.017104226607999998	0.026267205148	0.038484509868	0.00763581545	0.7453	1.04806	0.27318	0.48604	1.0382	0.42688	-0.003589233899999999	-9.8416793538	-0.6999006105000001	0.014966198282	0.017715091844	0.012370021028999999	0.6156699999999999	1.0431300000000001	0.35002999999999995	12.70944	1.88288	6.59008	0.9928990870959784	30.72
163043	17186499	0	-5	-1376	-115	-5	-32	46	1285	1807	471	3	-1364	-61	84	123	19	838	1790	736	320	64	256	28.86	0.9872588206266962	32.57	0.998213668887244	4449.50830078125	-7309.8232421875	36.29999923706055	3.970312356948853	0	0.0	0.0	0.0	0.0	0.2160385294457905	0.0	0.0	0.4499770510976391	0.0	0.0	0.0	0.0	12	44.825138346354166	-73.163720703125	-0.035892339	-9.8775716928	-0.825523797	0.0215354034	-9.7914300792	-0.43788653580000003	-0.0015271630899999999	-0.009773843776	0.014049900427999999	0.025656339912	0.037568212014	0.005803219742	0.7453	1.04806	0.27318	0.48604	1.0382	0.42688	-0.007178467800000001	-9.834500886	-0.6317051664	0.012064588411	0.013897184119	0.009926560085	0.6156699999999999	1.0431300000000001	0.35002999999999995	9.4144	1.88288	7.53152	0.9927362447569701	30.715
163044	17186605	0	-14	-1372	-126	0	-19	40	1295	1803	452	6	-1361	-66	77	106	21	834	1766	733	368	-48	224	28.87	0.9873772514187024	32.57	0.9982630150505798	4449.50830078125	-7309.8232421875	36.29999923706055	3.962557792663574	0	0.0	0.0	0.0	0.0	0.2365504705320052	0.0	0.0	0.4230263013291436	0.0	0.0	0.0	0.0	12	44.825138346354166	-73.163720703125	-0.10049854920000001	-9.848857821600001	-0.9044869428000001	0.0430708068	-9.7698946758	-0.4737788748	0.0	-0.005803219742	0.012217304719999999	0.023518311586	0.032375857508	0.006414084978	0.7511	1.0457400000000001	0.26216	0.48372	1.02428	0.42514	-0.028713871200000005	-9.809376248700001	-0.6891329088	0.011759155793	0.013286318882999998	0.009315694849	0.61741	1.0350100000000002	0.34365	10.82656	-1.41216	6.59008	0.9928201332346411	30.72
163045	17186710	0	-16	-1379	-110	-19	-45	54	1295	1803	452	1	-1370	-52	71	93	25	834	1766	733	336	16	320	28.87	0.987367382186035	32.57	0.9980458919319024	4449.50830078125	-7309.8232421875	36.29999923706055	3.962557792663574	0	0.0	0.0	0.0	0.0	0.2201235187878037	0.0	0.0	0.3618651855640641	0.0	0.0	0.0	0.0	12	44.825138346354166	-73.163720703125	-0.1148554848	-9.8991070962	-0.789631458	0.0071784678	-9.834500886	-0.3732803256	-0.005803219742	-0.01374446781	0.016493361372	0.021685715878	0.028405233473999997	0.00763581545	0.7511	1.0457400000000001	0.26216	0.48372	1.02428	0.42514	-0.0538385085	-9.8668039911	-0.5814558918	0.007941248068	0.007330382831999999	0.012064588410999999	0.61741	1.0350100000000002	0.34365	9.88512	0.47072	9.4144	0.9927066370589688	30.72
163046	17186815	0	-14	-1375	-114	1	0	52	1277	1806	413	5	-1363	-61	89	122	27	814	1764	720	368	-16	240	28.87	0.987426597582038	32.58	0.9982235381199112	4449.50830078125	-7309.8232421875	36.29999923706055	3.970312356948853	0	0.0	0.0	0.0	0.0	0.2645255705562801	0.0	0.0	0.3725569526964729	0.0	0.0	0.0	0.0	12	44.825138346354166	-73.163720703125	-0.10049854920000001	-9.870393225	-0.8183453292	0.035892339	-9.7842516114	-0.43788653580000003	0.000305432618	0.0	0.015882496136	0.027183503002	0.037262779396	0.008246680686	0.74066	1.04748	0.23954	0.47212	1.02312	0.4176	-0.03230310510000001	-9.827322418200001	-0.6281159325000001	0.01374446781	0.018631389698	0.012064588410999999	0.60639	1.0352999999999999	0.32857000000000003	10.82656	-0.47072	7.0608	0.9928250678509746	30.725
163047	17186921	0	-15	-1374	-113	1	-43	63	1277	1806	413	5	-1364	-52	77	105	29	814	1764	720	448	128	272	28.87	0.9875746360720454	32.57	0.9980458919319024	4449.50830078125	-7309.8232421875	36.29999923706055	3.9589574337005615	0	0.0	0.0	0.0	0.0	0.2556853669780024	0.0	0.0	0.3218737235184081	0.0	0.0	0.0	0.0	12	44.825138346354166	-73.163720703125	-0.107677017	-9.8632147572	-0.8111668614	0.035892339	-9.7914300792	-0.3732803256	0.000305432618	-0.013133602574	0.019242254934	0.023518311586	0.03207042489	0.008857545922	0.74066	1.04748	0.23954	0.47212	1.02312	0.4176	-0.035892338999999995	-9.8273224182	-0.5922235935	0.011911872102	0.009468411157999998	0.014049900428	0.60639	1.0352999999999999	0.32857000000000003	13.18016	3.76576	8.00224	0.9928102640019739	30.72
163048	17187026	0	-11	-1373	-116	21	-8	63	1263	1794	403	4	-1361	-58	102	121	32	846	1774	755	464	-48	128	28.87	0.9872588206266962	32.58	0.9980557611645694	4449.50830078125	-7309.8232421875	36.29999923706055	3.96366548538208	0	0.0	0.0	0.0	0.0	0.3208091225504978	0.0	0.0	0.3574586330612908	0.0	0.0	0.0	0.0	12	44.825138346354166	-73.163720703125	-0.07896314580000001	-9.8560362894	-0.8327022648	0.0287138712	-9.7698946758	-0.4163511324	0.006414084978	-0.002443460944	0.019242254934	0.031154127036	0.036957346778	0.009773843776	0.73254	1.0405200000000001	0.23374	0.49068	1.02892	0.4379	-0.025124637300000002	-9.8129654826	-0.6245266986	0.018784106007	0.017256942917	0.014508049355	0.61161	1.03472	0.33582	13.65088	-1.41216	3.76576	0.9926572908956328	30.725
163049	17187132	0	-10	-1374	-112	15	-23	58	1263	1794	403	5	-1363	-62	93	124	23	846	1774	755	336	48	224	28.87	0.987683197631384	32.59	0.997966938070565	4449.50830078125	-7309.8232421875	36.29999923706055	3.9595112800598153	0	0.0	0.0	0.0	0.0	0.2556065945048409	0.0	0.0	0.2532090307895925	0.0	0.0	0.0	0.0	12	44.825138346354166	-73.163720703125	-0.071784678	-9.8632147572	-0.8039883936000001	0.035892339	-9.7842516114	-0.4450650036	0.00458148927	-0.0070249502139999994	0.017715091844	0.028405233473999997	0.037873644632	0.0070249502139999994	0.73254	1.0405200000000001	0.23374	0.49068	1.02892	0.4379	-0.0179461695	-9.8237331843	-0.6245266986	0.016493361372	0.015424347209	0.012370021029	0.61161	1.03472	0.33582	9.88512	1.41216	6.59008	0.9928250678509745	30.730000000000004
163050	17187237	0	-9	-1374	-124	19	0	45	1303	1813	443	3	-1364	-67	101	137	17	800	1763	766	432	64	240	28.87	0.9874364668147052	32.59	0.9982334073525784	4449.50830078125	-7309.8232421875	36.29999923706055	3.961450099945069	0	0.0	0.0	0.0	0.0	0.2460137893399648	0.0	0.0	0.2157453199241158	0.0	0.0	0.0	0.0	12	44.825138346354166	-73.163720703125	-0.0646062102	-9.8632147572	-0.8901300072	0.0215354034	-9.7914300792	-0.4809573426	0.005803219742	0.0	0.01374446781	0.030848694418	0.041844268665999995	0.005192354505999999	0.75574	1.05154	0.25694	0.464	1.02254	0.44428	-0.0215354034	-9.8273224182	-0.6855436749	0.01832595708	0.020922134332999998	0.009468411158	0.60987	1.03704	0.35061	12.70944	1.88288	7.0608	0.9928349370836418	30.730000000000004
163051	17187342	0	-18	-1371	-116	-4	-32	48	1303	1813	443	3	-1360	-63	89	105	21	800	1763	766	384	16	256	28.86	0.9874167283493708	32.58	0.9981248457932396	4449.50830078125	-7309.8232421875	36.29999923706055	3.965881109237671	0	0.0	0.0	0.0	0.0	0.2631479022609028	0.0	0.0	0.2113058636326116	0.0	0.0	0.0	0.0	12	44.825138346354166	-73.163720703125	-0.1292124204	-9.8416793538	-0.8327022648	0.0215354034	-9.762716208	-0.45224347140000004	-0.001221730472	-0.009773843776	0.014660765664	0.027183503002	0.03207042489	0.006414084978	0.75574	1.05154	0.25694	0.464	1.02254	0.44428	-0.0538385085	-9.8021977809	-0.6424728681	0.012980886265	0.011148290557	0.010537425321	0.60987	1.03704	0.35061	11.29728	0.47072	7.53152	0.9927707870713052	30.72
163052	17187448	0	-14	-1372	-117	-7	-12	48	1284	1801	440	3	-1365	-59	85	114	31	812	1776	723	320	48	304	28.87	0.9874167283493708	32.58	0.997966938070565	4449.50830078125	-7309.8232421875	36.29999923706055	3.9716970920562735	0	0.0	0.0	0.0	0.0	0.1857014999812093	0.0	0.0	0.1105749631905402	0.0	0.0	0.0	0.0	12	44.825138346354166	-73.163720703125	-0.10049854920000001	-9.848857821600001	-0.8398807326000001	0.0215354034	-9.798608547	-0.4235296002	-0.0021380283259999997	-0.003665191416	0.014660765664	0.02596177253	0.034819318451999995	0.009468411158	0.74472	1.04458	0.2552	0.47096	1.03008	0.41934	-0.039481572900000005	-9.8237331843	-0.6317051664000001	0.011911872102	0.015577063517999997	0.012064588410999999	0.60784	1.03733	0.33726999999999996	9.4144	1.41216	8.94368	0.9926918332099679	30.725
163053	17187553	0	-21	-1380	-121	2	-41	52	1300	1810	460	2	-1361	-71	69	102	34	812	1776	723	416	48	224	28.86	0.9876634591660498	32.58	0.9980557611645694	4449.50830078125	-7309.8232421875	36.29999923706055	3.970312356948853	0	0.0	0.0	0.0	0.0	0.1543789109290413	0.0	0.0	0.065814284583955	0.0	0.0	0.0	0.0	12	44.825138346354166	-73.163720703125	-0.1507478238	-9.906285564000001	-0.8685946038000001	0.0143569356	-9.7698946758	-0.5096712138	0.000610865236	-0.012522737337999999	0.015882496136	0.021074850641999997	0.031154127036	0.010384709011999999	0.754	1.0498	0.2668	0.47096	1.03008	0.41934	-0.0681954441	-9.8380901199	-0.6891329088	0.010842857938999998	0.009315694849	0.013133602573999998	0.61248	1.03994	0.34307	12.23872	1.41216	6.59008	0.9928596101653095	30.72
163054	17187658	0	-12	-1370	-111	2	-31	57	1300	1810	460	8	-1359	-56	74	115	29	837	1818	728	320	-32	192	28.86	0.9876239822353812	32.57	0.9979866765358992	4449.50830078125	-7309.8232421875	36.29999923706055	3.9584035873413086	0	0.0	0.0	0.0	0.0	0.158385751094908	0.0	0.0	0.0650003271431466	0.0	0.0	0.0	0.0	12	44.825138346354166	-73.163720703125	-0.0861416136	-9.834500886	-0.7968099258	0.0574277424	-9.755537740200001	-0.40199419680000004	0.000610865236	-0.009468411158	0.017409659225999997	0.022602013732	0.035124751069999995	0.008857545922	0.754	1.0498	0.2668	0.48546	1.05444	0.42224	-0.014356935599999999	-9.795019313100001	-0.5994020613	0.011606439484	0.012828169955999998	0.013133602573999998	0.61973	1.05212	0.34452	9.4144	-0.94144	5.64864	0.9928053293856403	30.715
163055	17187764	0	-5	-1375	-110	1	-15	54	1279	1814	443	6	-1365	-57	85	119	30	837	1818	728	336	32	160	28.87	0.987426597582038	32.57	0.9981544534912412	4449.50830078125	-7309.8232421875	36.29999923706055	3.966434955596924	0	0.0	0.0	0.0	0.0	0.1734179121182431	0.0	0.0	0.0757767165817139	0.0	0.0	0.0	0.0	12	44.825138346354166	-73.163720703125	-0.035892339	-9.870393225	-0.789631458	0.0430708068	-9.798608547	-0.4091726646	0.000305432618	-0.00458148927	0.016493361372	0.02596177253	0.036346481542	0.00916297854	0.74182	1.05212	0.25694	0.48546	1.05444	0.42224	0.003589233899999999	-9.834500886	-0.5994020613	0.013133602574	0.015882496136	0.012828169955999998	0.61364	1.05328	0.33959	9.88512	0.94144	4.7072	0.9927905255366396	30.72
163056	17187869	0	-10	-1380	-115	13	-22	55	1279	1814	443	6	-1360	-56	97	122	22	836	1769	724	432	-16	160	28.86	0.9874068591167036	32.58	0.9981741919565754	4449.50830078125	-7309.8232421875	36.29999923706055	3.960342168807984	0	0.0	0.0	0.0	0.0	0.1840357225907782	0.0	0.0	0.079157712165903	0.0	0.0	0.0	0.0	12	44.825138346354166	-73.163720703125	-0.071784678	-9.906285564000001	-0.825523797	0.0430708068	-9.762716208	-0.40199419680000004	0.003970624034	-0.006719517596	0.016798793989999998	0.029626963946	0.037262779396	0.006719517596	0.74182	1.05212	0.25694	0.48488	1.02602	0.41992	-0.014356935600000002	-9.834500886	-0.6137589969	0.016798793989999998	0.0152716309	0.011759155793	0.6133500000000001	1.03907	0.33843	12.70944	-0.47072	4.7072	0.9927905255366395	30.72
163057	17187975	0	-13	-1380	-117	4	6	53	1273	1814	408	3	-1361	-59	100	127	28	857	1751	725	400	112	240	28.87	0.9874858129780408	32.58	0.9981741919565754	4449.50830078125	-7309.8232421875	36.29999923706055	3.970312356948853	0	0.0	0.0	0.0	0.0	0.1749395810693727	0.0	0.0	0.0611656288870346	0.0	0.0	0.0	0.0	12	44.825138346354166	-73.163720703125	-0.0933200814	-9.906285564000001	-0.8398807326000001	0.0215354034	-9.7698946758	-0.4235296002	0.001221730472	0.001832595708	0.016187928754	0.0305432618	0.038789942486	0.008552113303999999	0.73834	1.05212	0.23664	0.49706	1.01558	0.4205	-0.035892339	-9.8380901199	-0.6317051664000001	0.015882496136	0.020311269096999998	0.012370021028999999	0.6177	1.03385	0.32857	11.768	3.29504	7.0608	0.9928300024673081	30.725
163058	17188080	0	-12	-1380	-121	16	-20	54	1273	1814	408	3	-1362	-57	101	132	25	857	1751	725	272	112	224	28.87	0.9875746360720454	32.57	0.9981051073279052	4449.50830078125	-7309.8232421875	36.29999923706055	3.961450099945069	0	0.0	0.0	0.0	0.0	0.2017688465426135	0.0	0.0	0.0825435192800756	0.0	0.0	0.0	0.0	12	44.825138346354166	-73.163720703125	-0.0861416136	-9.906285564000001	-0.8685946038000001	0.0215354034	-9.777073143600001	-0.4091726646	0.004886921888	-0.0061086523599999994	0.016493361372	0.030848694418	0.040317105576	0.00763581545	0.73834	1.05212	0.23664	0.49706	1.01558	0.4205	-0.0323031051	-9.8416793538	-0.6388836342	0.017867808153	0.017104226607999998	0.012064588410999999	0.6177	1.03385	0.32857	8.00224	3.29504	6.59008	0.9928398716999753	30.72
163059	17188185	0	-7	-1375	-127	6	-30	53	1277	1805	399	6	-1363	-66	90	114	32	820	1771	741	400	80	240	28.86	0.9876239822353812	32.59	0.9981840611892424	4449.50830078125	-7309.8232421875	36.29999923706055	3.952587604522705	0	0.0	0.0	0.0	0.0	0.1628045848881587	0.0	0.0	0.0325347660466996	0.0	0.0	0.0	0.0	12	44.825138346354166	-73.163720703125	-0.050249274600000005	-9.870393225	-0.9116654106000001	0.0430708068	-9.7842516114	-0.4737788748	0.001832595708	-0.00916297854	0.016187928754	0.02748893562	0.034819318451999995	0.009773843776	0.74066	1.0469	0.23142000000000001	0.4756	1.02718	0.42978	-0.0035892339000000023	-9.827322418200001	-0.6927221427000001	0.014660765664	0.012828169955999998	0.012980886264999998	0.6081300000000001	1.03704	0.3306	11.768	2.3536	7.0608	0.9929040217123117	30.725
163060	17188291	0	-6	-1372	-113	-16	-27	58	1277	1805	399	6	-1365	-65	84	111	35	820	1771	741	464	48	304	28.86	0.9875647668393782	32.59	0.9982926227485812	4449.50830078125	-7309.8232421875	36.29999923706055	3.9592344760894775	0	0.0	0.0	0.0	0.0	0.0625501103251386	0.0	0.0	-0.075437214838504	0.0	0.0	0.0	0.0	12	44.825138346354166	-73.163720703125	-0.0430708068	-9.848857821600001	-0.8111668614	0.0430708068	-9.798608547	-0.466600407	-0.004886921888	-0.008246680686	0.017715091844	0.025656339912	0.033903020597999996	0.010690141629999999	0.74066	1.0469	0.23142000000000001	0.4756	1.02718	0.42978	0.0	-9.8237331843	-0.6388836342	0.010384709012	0.012828169955999998	0.014202616737	0.6081300000000001	1.03704	0.3306	13.65088	1.41216	8.94368	0.9929286947939797	30.725
163061	17188396	0	-13	-1373	-119	-10	-28	62	1301	1799	438	5	-1366	-70	78	122	37	856	1792	756	416	-16	208	28.86	0.9874167283493708	32.58	0.9981741919565754	4449.50830078125	-7309.8232421875	36.29999923706055	3.961450099945069	0	0.0	0.0	0.0	0.0	0.0176349917234368	0.0	0.0	-0.111684792050771	0.0	0.0	0.0	0.0	12	44.825138346354166	-73.163720703125	-0.0933200814	-9.8560362894	-0.8542376682	0.035892339	-9.8057870148	-0.502492746	-0.0030543261799999997	-0.008552113303999999	0.018936822316	0.023823744204	0.037262779396	0.011301006866	0.75458	1.04342	0.25404	0.49648	1.03936	0.43848	-0.0287138712	-9.8309116521	-0.6783652071	0.010384709011999999	0.014355333046	0.015118914591	0.62553	1.04139	0.34626	12.23872	-0.47072	6.11936	0.9927954601529732	30.72
163062	17188502	0	-9	-1379	-115	-6	-40	57	1301	1799	438	4	-1361	-53	76	93	26	856	1792	756	352	-16	320	28.87	0.98773254379472	32.58	0.9981741919565754	4449.50830078125	-7309.8232421875	36.29999923706055	3.9572958946228023	0	0.0	0.0	0.0	0.0	-0.0762014821171509	0.0	0.0	-0.1963367972363787	0.0	0.0	0.0	0.0	12	44.825138346354166	-73.163720703125	-0.0646062102	-9.8991070962	-0.825523797	0.0287138712	-9.7698946758	-0.3804587934	-0.001832595708	-0.012217304719999999	0.017409659225999997	0.023212878968	0.028405233473999997	0.007941248068	0.75458	1.04342	0.25404	0.49648	1.03936	0.43848	-0.017946169499999998	-9.834500886	-0.6029912952	0.01069014163	0.008093964377	0.012675453646999998	0.62553	1.04139	0.34626	10.35584	-0.47072	9.4144	0.9929533678756477	30.725
163063	17188607	0	-15	-1377	-103	1	-20	49	1285	1808	404	0	-1362	-50	90	122	16	823	1789	720	416	32	144	28.87	0.9874759437453738	32.59	0.9981840611892424	4449.50830078125	-7309.8232421875	36.29999923706055	3.9586806297302246	0	0.0	0.0	0.0	0.0	-0.0314113752586112	0.0	0.0	-0.1253665201205215	0.0	0.0	0.0	0.0	12	44.825138346354166	-73.163720703125	-0.107677017	-9.884750160600001	-0.7393821834000001	0.0	-9.777073143600001	-0.35892339	0.000305432618	-0.0061086523599999994	0.014966198282	0.02748893562	0.037262779396	0.004886921888	0.7453	1.04864	0.23432	0.47734	1.03762	0.4176	-0.0538385085	-9.830911652100001	-0.5491527867	0.013897184118999999	0.015577063518	0.009926560085	0.61132	1.0431300000000001	0.32596	12.23872	0.94144	4.23648	0.9928300024673081	30.730000000000004
163064	17188712	0	-14	-1375	-113	12	-18	60	1285	1808	404	6	-1361	-57	108	122	24	823	1789	720	416	80	176	28.87	0.9875746360720454	32.59	0.9980754996299038	4449.50830078125	-7309.8232421875	36.29999923706055	3.962003946304321	0	0.0	0.0	0.0	0.0	-0.0516344900616423	0.0	0.0	-0.1320328553149066	0.0	0.0	0.0	0.0	12	44.825138346354166	-73.163720703125	-0.10049854920000001	-9.870393225	-0.8111668614	0.0430708068	-9.7698946758	-0.4091726646	0.003665191416	-0.005497787124	0.01832595708	0.032986722744	0.037262779396	0.007330382832	0.7453	1.04864	0.23432	0.47734	1.03762	0.4176	-0.028713871200000005	-9.8201439504	-0.610169763	0.018325957079999997	0.015882496136	0.012828169956	0.61132	1.0431300000000001	0.32596	12.23872	2.3536	5.17792	0.9928250678509747	30.730000000000004
163065	17188818	0	-21	-1380	-111	22	2	60	1290	1818	412	4	-1366	-54	103	128	25	832	1793	743	384	48	208	28.86	0.9874167283493708	32.58	0.998272884283247	4449.50830078125	-7309.8232421875	36.29999923706055	3.962003946304321	0	0.0	0.0	0.0	0.0	-0.0423347320240995	0.0	0.0	-0.107892446773745	0.0	0.0	0.0	0.0	12	44.825138346354166	-73.163720703125	-0.1507478238	-9.906285564000001	-0.7968099258	0.0287138712	-9.8057870148	-0.3876372612	0.006719517596	0.000610865236	0.01832595708	0.031459559654	0.039095375104	0.00763581545	0.7482	1.05444	0.23896	0.48256	1.03994	0.43094	-0.061016976300000005	-9.8560362894	-0.5922235935	0.019089538625	0.01985312017	0.012980886265	0.61538	1.04719	0.33494999999999997	11.29728	1.41216	6.11936	0.9928448063163089	30.72
163066	17188923	0	-12	-1378	-119	5	2	55	1290	1818	412	4	-1364	-66	101	138	30	832	1793	743	432	80	224	28.86	0.9872982975573648	32.58	0.998213668887244	4449.50830078125	-7309.8232421875	36.29999923706055	3.9714200496673584	0	0.0	0.0	0.0	0.0	-0.0159076786998811	0.0	0.0	-0.0653681016191425	0.0	0.0	0.0	0.0	12	44.825138346354166	-73.163720703125	-0.0861416136	-9.8919286284	-0.8542376682	0.0287138712	-9.7914300792	-0.4737788748	0.0015271630899999999	0.000610865236	0.016798793989999998	0.030848694418	0.042149701283999995	0.00916297854	0.7482	1.05444	0.23896	0.48256	1.03994	0.43094	-0.028713871199999998	-9.8416793538	-0.6640082715	0.016187928754	0.021380283259999997	0.012980886264999998	0.61538	1.04719	0.33494999999999997	12.70944	2.3536	6.59008	0.9927559832223044	30.72
163067	17189029	0	-17	-1375	-121	-2	-23	60	1314	1802	431	4	-1371	-65	93	124	30	840	1788	720	352	16	256	28.86	0.987614113002714	32.59	0.9981840611892424	4449.50830078125	-7309.8232421875	36.29999923706055	3.963388681411743	0	0.0	0.0	0.0	0.0	0.0796252732690704	0.0	0.0	0.0398317640365625	0.0	0.0	0.0	0.0	12	44.825138346354166	-73.163720703125	-0.12203395260000001	-9.870393225	-0.8685946038000001	0.0287138712	-9.8416793538	-0.466600407	-0.000610865236	-0.0070249502139999994	0.01832595708	0.028405233473999997	0.037873644632	0.00916297854	0.76212	1.04516	0.24998	0.4872	1.03704	0.4176	-0.0466600407	-9.8560362894	-0.6675975054000001	0.013897184118999999	0.015424347209	0.013744467810000001	0.62466	1.0411000000000001	0.33379000000000003	10.35584	0.47072	7.53152	0.9928990870959782	30.725
163068	17189134	0	-6	-1375	-125	-2	-29	57	1314	1802	431	6	-1368	-64	77	113	37	840	1788	720	384	-16	272	28.87	0.9875746360720454	32.59	0.9982432765852456	4449.50830078125	-7309.8232421875	36.29999923706055	3.952587604522705	0	0.0	0.0	0.0	0.0	0.0101487210773934	0.0	0.0	-0.034829426144225	0.0	0.0	0.0	0.0	12	44.825138346354166	-73.163720703125	-0.0430708068	-9.870393225	-0.897308475	0.0430708068	-9.8201439504	-0.4594219392	-0.000610865236	-0.008857545922	0.017409659225999997	0.023518311586	0.034513885833999995	0.011301006866	0.76212	1.04516	0.24998	0.4872	1.03704	0.4176	0.0	-9.845268587700001	-0.6783652071	0.011453723175	0.012828169955999998	0.014355333045999999	0.62466	1.0411000000000001	0.33379000000000003	11.29728	-0.47072	8.00224	0.9929089563286455	30.730000000000004
163069	17189239	0	-7	-1373	-115	-9	-26	56	1306	1793	436	7	-1363	-65	85	109	31	838	1779	740	352	48	256	28.87	0.9874759437453738	32.58	0.9982235381199112	4449.50830078125	-7309.8232421875	36.29999923706055	3.957018852233887	0	0.0	0.0	0.0	0.0	-0.0103932525998493	0.0	0.0	-0.0520003371465738	0.0	0.0	0.0	0.0	12	44.825138346354166	-73.163720703125	-0.050249274600000005	-9.8560362894	-0.825523797	0.050249274600000005	-9.7842516114	-0.466600407	-0.002748893562	-0.007941248068	0.017104226607999998	0.02596177253	0.033292155361999996	0.009468411158	0.75748	1.03994	0.25288	0.48604	1.03182	0.4292	0.0	-9.8201439504	-0.646062102	0.011606439484	0.012675453646999998	0.013286318882999998	0.6217600000000001	1.0358800000000001	0.34104	10.35584	1.41216	7.53152	0.9928497409326424	30.725
163070	17189345	0	-11	-1370	-109	-19	-42	44	1306	1793	436	8	-1361	-54	72	95	23	838	1779	740	352	128	272	28.86	0.9877226745620528	32.58	0.9982235381199112	4449.50830078125	-7309.8232421875	36.29999923706055	3.964219570159912	0	0.0	0.0	0.0	0.0	-0.0738951016625809	0.0	0.0	-0.1114060774085448	0.0	0.0	0.0	0.0	12	44.825138346354166	-73.163720703125	-0.07896314580000001	-9.834500886	-0.7824529902	0.0574277424	-9.7698946758	-0.3876372612	-0.005803219742	-0.012828169956	0.013439035192	0.021991148496	0.029016098709999997	0.0070249502139999994	0.75748	1.03994	0.25288	0.48604	1.03182	0.4292	-0.010767701700000003	-9.8021977809	-0.5850451257	0.008093964377	0.008093964377	0.010231992702999999	0.6217600000000001	1.0358800000000001	0.34104	10.35584	3.76576	8.00224	0.9929731063409819	30.72
163071	17189450	0	-18	-1375	-110	-2	-23	47	1273	1801	441	2	-1363	-55	86	124	23	866	1816	707	368	48	256	28.87	0.9877522822600544	32.59	0.9982432765852456	4449.50830078125	-7309.8232421875	36.29999923706055	3.954803228378296	0	0.0	0.0	0.0	0.0	-0.0959377232702459	0.0	0.0	-0.121895214057562	0.0	0.0	0.0	0.0	12	44.825138346354166	-73.163720703125	-0.1292124204	-9.870393225	-0.789631458	0.0143569356	-9.7842516114	-0.394815729	-0.000610865236	-0.0070249502139999994	0.014355333045999999	0.026267205148	0.037873644632	0.0070249502139999994	0.73834	1.04458	0.25578	0.50228	1.05328	0.41006	-0.0574277424	-9.827322418200001	-0.5922235935	0.012828169956	0.015424347209	0.010690141629999999	0.6203099999999999	1.04893	0.33292	10.82656	1.41216	7.53152	0.99299777942265	30.730000000000004
163072	17189555	0	-17	-1374	-111	14	-28	53	1304	1801	423	4	-1363	-48	71	107	37	816	1784	750	416	48	256	28.87	0.9876338514680484	32.59	0.9983024919812484	4449.50830078125	-7309.8232421875	36.29999923706055	3.961450099945069	0	0.0	0.0	0.0	0.0	-0.148230537281489	0.0	0.0	-0.1617480046299901	0.0	0.0	0.0	0.0	12	44.825138346354166	-73.163720703125	-0.12203395260000001	-9.8632147572	-0.7968099258	0.0287138712	-9.7842516114	-0.3445664544	0.004276056651999999	-0.008552113303999999	0.016187928754	0.021685715878	0.032681290126	0.011301006866	0.75632	1.04458	0.24534	0.47328	1.03472	0.435	-0.0466600407	-9.8237331843	-0.5706881901	0.012980886265	0.012064588410999999	0.01374446781	0.6148	1.03965	0.34017	12.23872	1.41216	7.53152	0.9929681717246484	30.730000000000004
163073	17189660	0	-13	-1374	-113	13	-18	67	1304	1801	423	0	-1361	-53	107	144	39	816	1784	750	320	-16	320	28.86	0.987673328398717	32.59	0.9981347150259068	4449.50830078125	-7309.8232421875	36.29999923706055	3.9581265449523926	0	0.0	0.0	0.0	0.0	-0.1586943505630867	0.0	0.0	-0.1542947877518002	0.0	0.0	0.0	0.0	12	44.825138346354166	-73.163720703125	-0.0933200814	-9.8632147572	-0.8111668614	0.0	-9.7698946758	-0.3804587934	0.003970624034	-0.005497787124	0.020463985405999998	0.032681290126	0.043982296992	0.011911872102	0.75632	1.04458	0.24534	0.47328	1.03472	0.435	-0.0466600407	-9.8165547165	-0.5958128274000001	0.018325957079999997	0.019242254934	0.016187928754	0.6148	1.03965	0.34017	9.4144	-0.47072	9.4144	0.992904021712312	30.725
163074	17189765	0	-15	-1371	-112	5	-18	67	1296	1787	429	3	-1366	-62	96	118	30	827	1772	726	352	16	192	28.87	0.987683197631384	32.59	0.9980360226992352	4449.50830078125	-7309.8232421875	36.29999923706055	3.9592344760894775	0	0.0	0.0	0.0	0.0	-0.1716771135941367	0.0	0.0	-0.1490131928113817	0.0	0.0	0.0	0.0	12	44.825138346354166	-73.163720703125	-0.107677017	-9.8416793538	-0.8039883936000001	0.0215354034	-9.8057870148	-0.4450650036	0.0015271630899999999	-0.005497787124	0.020463985405999998	0.029321531328	0.036041048924	0.00916297854	0.75168	1.03646	0.24882	0.47966	1.02776	0.42108	-0.0430708068	-9.8237331843	-0.6245266986	0.015424347209	0.0152716309	0.014813481973	0.6156699999999999	1.0321099999999999	0.33495	10.35584	0.47072	5.64864	0.9928596101653095	30.730000000000004
163075	17189871	0	-16	-1378	-122	9	4	56	1296	1787	429	6	-1368	-66	100	121	28	827	1772	726	304	0	256	28.87	0.9875746360720454	32.59	0.9983518381445844	4449.50830078125	-7309.8232421875	36.29999923706055	3.970312356948853	0	0.0	0.0	0.0	0.0	-0.1568656208526834	0.0	0.0	-0.1182365271798649	0.0	0.0	0.0	0.0	12	44.825138346354166	-73.163720703125	-0.1148554848	-9.8919286284	-0.8757730716000001	0.0430708068	-9.8201439504	-0.4737788748	0.002748893562	0.001221730472	0.017104226607999998	0.0305432618	0.036957346778	0.008552113303999999	0.75168	1.03646	0.24882	0.47966	1.02776	0.42108	-0.035892339	-9.8560362894	-0.6747759732	0.016646077680999998	0.019089538625	0.012828169955999998	0.6156699999999999	1.0321099999999999	0.33495	8.94368	0.0	7.53152	0.9929632371083149	30.730000000000004
163076	17189976	0	-12	-1374	-122	-8	-36	56	1300	1780	428	5	-1361	-67	84	119	29	822	1771	730	368	64	224	28.86	0.9876239822353812	32.59	0.9982531458179128	4449.50830078125	-7309.8232421875	36.29999923706055	3.957018852233887	0	0.0	0.0	0.0	0.0	-0.1134931994448846	0.0	0.0	-0.0611054974059769	0.0	0.0	0.0	0.0	12	44.825138346354166	-73.163720703125	-0.0861416136	-9.8632147572	-0.8757730716000001	0.035892339	-9.7698946758	-0.4809573426	-0.002443460944	-0.010995574248	0.017104226607999998	0.025656339912	0.036346481542	0.008857545922	0.754	1.0324	0.24824	0.47676	1.02718	0.4234	-0.0251246373	-9.8165547165	-0.6783652071	0.011606439484	0.012675453647	0.012980886264999998	0.61538	1.02979	0.33582	10.82656	1.88288	6.59008	0.992938564026647	30.725
163077	17190081	0	-19	-1372	-118	-9	-20	52	1300	1780	428	5	-1365	-59	73	113	25	822	1771	730	288	16	336	28.86	0.9872982975573648	32.59	0.9981347150259068	4449.50830078125	-7309.8232421875	36.29999923706055	3.957849740982056	0	0.0	0.0	0.0	0.0	0.0534296424683911	0.0	0.0	0.1209259617796717	0.0	0.0	0.0	0.0	12	44.825138346354166	-73.163720703125	-0.1363908882	-9.848857821600001	-0.8470592004	0.035892339	-9.798608547	-0.4235296002	-0.002748893562	-0.0061086523599999994	0.015882496136	0.022296581114	0.034513885833999995	0.00763581545	0.754	1.0324	0.24824	0.47676	1.02718	0.4234	-0.050249274600000005	-9.8237331843	-0.6352944003000001	0.009773843776	0.014202616736999997	0.011759155793	0.61538	1.02979	0.33582	8.47296	0.47072	9.88512	0.9927165062916358	30.725
163078	17190187	0	-13	-1378	-115	-12	-52	50	1283	1782	425	3	-1364	-64	86	103	24	854	1787	733	432	32	256	28.87	0.987545028374044	32.59	0.9980853688625708	4449.50830078125	-7309.8232421875	36.29999923706055	3.962557792663574	0	0.0	0.0	0.0	0.0	0.1471821950858082	0.0	0.0	0.2058081896460212	0.0	0.0	0.0	0.0	12	44.825138346354166	-73.163720703125	-0.0933200814	-9.8919286284	-0.825523797	0.0215354034	-9.7914300792	-0.4594219392	-0.003665191416	-0.015882496136	0.0152716309	0.026267205148	0.031459559654	0.007330382832	0.74414	1.03356	0.2465	0.49532	1.03646	0.42514	-0.035892339	-9.8416793538	-0.6424728681	0.011301006866	0.007788531759	0.011301006866	0.61973	1.03501	0.33582	12.70944	0.94144	7.53152	0.9928151986183074	30.730000000000004
163079	17190292	0	-16	-1377	-111	-1	-22	57	1283	1782	425	3	-1369	-52	81	118	28	854	1787	733	400	48	176	28.87	0.9876338514680484	32.59	0.9982037996545768	4449.50830078125	-7309.8232421875	36.29999923706055	3.962557792663574	0	0.0	0.0	0.0	0.0	0.1335551510453213	0.0	0.0	0.1678215972251135	0.0	0.0	0.0	0.0	12	44.825138346354166	-73.163720703125	-0.1148554848	-9.884750160600001	-0.7968099258	0.0215354034	-9.8273224182	-0.3732803256	-0.000305432618	-0.006719517596	0.017409659225999997	0.024740042057999997	0.036041048924	0.008552113303999999	0.74414	1.03356	0.2465	0.49532	1.03646	0.42514	-0.0466600407	-9.8560362894	-0.5850451257	0.012217304719999999	0.014660765664	0.012980886264999998	0.61973	1.03501	0.33582	11.768	1.41216	5.17792	0.9929188255613126	30.730000000000004
163080	17190398	0	-20	-1374	-119	0	-33	56	1300	1815	393	4	-1365	-65	93	118	30	834	1746	749	384	80	224	28.86	0.987673328398717	32.59	0.9982037996545768	4449.50830078125	-7309.8232421875	36.29999923706055	3.962280750274658	0	0.0	0.0	0.0	0.0	0.1019579636096691	0.0	0.0	0.1163970025248591	0.0	0.0	0.0	0.0	12	44.825138346354166	-73.163720703125	-0.143569356	-9.8632147572	-0.8542376682	0.0287138712	-9.798608547	-0.466600407	0.0	-0.010079276394	0.017104226607999998	0.028405233473999997	0.036041048924	0.00916297854	0.754	1.0527	0.22794	0.48372	1.01268	0.43442000000000003	-0.0574277424	-9.8309116521	-0.6604190376	0.014202616736999999	0.012980886265000002	0.013133602573999998	0.61886	1.03269	0.33118000000000003	11.29728	2.3536	6.59008	0.9929385640266469	30.725
163081	17190503	0	-13	-1374	-110	9	-14	59	1300	1815	393	5	-1358	-49	90	118	37	834	1746	749	288	-64	320	28.87	0.987426597582038	32.6	0.9981643227239082	4449.50830078125	-7309.8232421875	36.29999923706055	3.970312356948853	0	0.0	0.0	0.0	0.0	0.1251663436176942	0.0	0.0	0.1297424050803283	0.0	0.0	0.0	0.0	12	44.825138346354166	-73.163720703125	-0.0933200814	-9.8632147572	-0.789631458	0.035892339	-9.7483592724	-0.35174492220000003	0.002748893562	-0.004276056651999999	0.018020524462	0.02748893562	0.036041048924	0.011301006866	0.754	1.0527	0.22794	0.48372	1.01268	0.43442000000000003	-0.0287138712	-9.8057870148	-0.5706881901	0.015118914591	0.015882496136	0.014660765664	0.61886	1.03269	0.33118000000000003	8.47296	-1.88288	9.4144	0.9927954601529732	30.735
163082	17190608	0	-13	-1379	-116	13	-20	60	1297	1820	414	7	-1368	-62	90	128	34	836	1793	729	304	-16	240	28.87	0.9876930668640512	32.6	0.9981544534912412	4449.50830078125	-7309.8232421875	36.29999923706055	3.964219570159912	0	0.0	0.0	0.0	0.0	0.1271938847810807	0.0	0.0	0.1180846041013762	0.0	0.0	0.0	0.0	12	44.825138346354166	-73.163720703125	-0.0933200814	-9.8991070962	-0.8327022648	0.050249274600000005	-9.8201439504	-0.4450650036	0.003970624034	-0.0061086523599999994	0.01832595708	0.02748893562	0.039095375104	0.010384709011999999	0.75226	1.0556	0.24012	0.48488	1.03994	0.42282000000000003	-0.0215354034	-9.8596255233	-0.6388836341999999	0.015729779827	0.016493361372	0.014355333046	0.6185700000000001	1.04777	0.33147000000000004	8.94368	-0.47072	7.0608	0.9929237601776462	30.735
163083	17190714	0	-9	-1377	-115	7	-6	60	1297	1820	414	5	-1362	-64	92	126	34	836	1793	729	432	80	256	28.87	0.9874364668147052	32.59	0.9981840611892424	4449.50830078125	-7309.8232421875	36.29999923706055	3.973081827163696	0	0.0	0.0	0.0	0.0	0.2088589039961736	0.0	0.0	0.1897385106269944	0.0	0.0	0.0	0.0	12	44.825138346354166	-73.163720703125	-0.0646062102	-9.884750160600001	-0.825523797	0.035892339	-9.777073143600001	-0.4594219392	0.0021380283259999997	-0.001832595708	0.01832595708	0.028099800855999998	0.038484509868	0.010384709011999999	0.75226	1.0556	0.24012	0.48488	1.03994	0.42282000000000003	-0.014356935599999999	-9.830911652100001	-0.6424728681	0.015118914591	0.01832595708	0.014355333046	0.6185700000000001	1.04777	0.33147000000000004	12.70944	2.3536	7.53152	0.9928102640019738	30.730000000000004
163084	17190819	0	-4	-1374	-121	-1	-32	54	1289	1803	426	6	-1364	-65	89	110	25	845	1818	732	400	64	224	28.87	0.9875943745373796	32.59	0.9982037996545768	4449.50830078125	-7309.8232421875	36.29999923706055	3.970312356948853	0	0.0	0.0	0.0	0.0	0.1923467228226427	0.0	0.0	0.1507402417426236	0.0	0.0	0.0	0.0	12	44.825138346354166	-73.163720703125	-0.0287138712	-9.8632147572	-0.8685946038000001	0.0430708068	-9.7914300792	-0.466600407	-0.000305432618	-0.009773843776	0.016493361372	0.027183503002	0.033597587979999996	0.00763581545	0.74762	1.0457400000000001	0.24708	0.4901	1.05444	0.42456	0.007178467799999999	-9.8273224182	-0.6675975054000001	0.013439035192	0.011911872102	0.012064588410999999	0.61886	1.05009	0.33582	11.768	1.88288	6.59008	0.9928990870959782	30.730000000000004
163085	17190925	0	-8	-1369	-102	3	-31	37	1289	1803	426	5	-1359	-56	73	123	24	845	1818	732	336	48	272	28.87	0.9874759437453738	32.6	0.998213668887244	4449.50830078125	-7309.8232421875	36.29999923706055	3.965881109237671	0	0.0	0.0	0.0	0.0	0.2694361423512992	0.0	0.0	0.2142516427065374	0.0	0.0	0.0	0.0	12	44.825138346354166	-73.163720703125	-0.0574277424	-9.8273224182	-0.7322037156000001	0.035892339	-9.755537740200001	-0.40199419680000004	0.000916297854	-0.009468411158	0.011301006866	0.022296581114	0.037568212014	0.007330382832	0.74762	1.0457400000000001	0.24708	0.4901	1.05444	0.42456	-0.0107677017	-9.791430079200001	-0.5670989562000001	0.011606439484	0.014049900428	0.009315694849	0.61886	1.05009	0.33582	9.88512	1.41216	8.00224	0.9928448063163089	30.735
163086	17191030	0	-13	-1379	-121	-4	-50	53	1295	1820	406	4	-1366	-66	81	110	25	850	1788	729	384	48	320	28.87	0.9875943745373796	32.59	0.9981939304219096	4449.50830078125	-7309.8232421875	36.29999923706055	3.961450099945069	0	0.0	0.0	0.0	0.0	0.1447434423906363	0.0	0.0	0.0615960614866417	0.0	0.0	0.0	0.0	12	44.825138346354166	-73.163720703125	-0.0933200814	-9.8991070962	-0.8685946038000001	0.0287138712	-9.8057870148	-0.4737788748	-0.001221730472	-0.0152716309	0.016187928754	0.024740042057999997	0.033597587979999996	0.00763581545	0.7511	1.0556	0.23548	0.493	1.03704	0.42282000000000003	-0.0323031051	-9.8524470555	-0.6711867393000001	0.011759155793	0.009162978539999998	0.011911872102	0.62205	1.0463200000000001	0.32915	11.29728	1.41216	9.4144	0.9928941524796446	30.730000000000004
163087	17191135	0	-21	-1370	-104	-1	-20	56	1295	1820	406	2	-1362	-45	89	111	24	836	1777	728	432	64	192	28.87	0.987545028374044	32.6	0.9981643227239082	4449.50830078125	-7309.8232421875	36.29999923706055	3.962003946304321	0	0.0	0.0	0.0	0.0	0.1604939208193798	0.0	0.0	0.0758276504494808	0.0	0.0	0.0	0.0	12	44.825138346354166	-73.163720703125	-0.1507478238	-9.834500886	-0.7465606512	0.0143569356	-9.777073143600001	-0.323031051	-0.000305432618	-0.0061086523599999994	0.017104226607999998	0.027183503002	0.033903020597999996	0.007330382832	0.7511	1.0556	0.23548	0.48488	1.03066	0.42224	-0.0681954441	-9.8057870148	-0.5347958511	0.013439035192	0.013897184118999997	0.012217304719999999	0.61799	1.0431300000000001	0.32886	12.70944	1.88288	5.64864	0.9928546755489761	30.735
163088	17191241	0	-14	-1374	-117	12	-5	65	1301	1789	426	6	-1367	-63	89	128	38	836	1777	728	336	48	224	28.86	0.9876239822353812	32.59	0.9981939304219096	4449.50830078125	-7309.8232421875	36.29999923706055	3.9722509384155273	0	0.0	0.0	0.0	0.0	0.0839561426918112	0.0	0.0	-0.011093508696914	0.0	0.0	0.0	0.0	12	44.825138346354166	-73.163720703125	-0.10049854920000001	-9.8632147572	-0.8398807326000001	0.0430708068	-9.812965482600001	-0.45224347140000004	0.003665191416	-0.0015271630899999999	0.01985312017	0.027183503002	0.039095375104	0.011606439484	0.75458	1.03762	0.24708	0.48488	1.03066	0.42224	-0.028713871200000005	-9.8380901199	-0.646062102	0.015424347209	0.018784106007	0.015729779827	0.61973	1.0341399999999998	0.33466	9.88512	1.41216	6.59008	0.9929089563286454	30.725
163089	17191346	0	-14	-1373	-113	13	-26	52	1301	1789	426	4	-1366	-60	86	115	31	841	1814	759	400	32	192	28.87	0.9875252899087096	32.61	0.9981741919565754	4449.50830078125	-7309.8232421875	36.29999923706055	3.96366548538208	0	0.0	0.0	0.0	0.0	0.0202287105563257	0.0	0.0	-0.0757768728846601	0.0	0.0	0.0	0.0	12	44.825138346354166	-73.163720703125	-0.10049854920000001	-9.8560362894	-0.8111668614	0.0287138712	-9.8057870148	-0.430708068	0.003970624034	-0.007941248068	0.015882496136	0.026267205148	0.035124751069999995	0.009468411158	0.75458	1.03762	0.24708	0.48778	1.05212	0.44022	-0.035892339	-9.8309116521	-0.6209374647	0.015118914591	0.013591751500999998	0.012675453646999998	0.6211800000000001	1.04487	0.34365	11.768	0.94144	5.64864	0.9928497409326424	30.740000000000002
163090	17191452	0	-9	-1373	-115	15	4	61	1277	1793	461	5	-1364	-61	97	147	28	841	1814	759	320	-16	224	28.88	0.9875548976067112	32.61	0.9980656303972366	4449.50830078125	-7309.8232421875	36.29999923706055	3.961726903915405	0	0.0	0.0	0.0	0.0	-0.0203821046136076	0.0	0.0	-0.1075108851980252	0.0	0.0	0.0	0.0	12	44.825138346354166	-73.163720703125	-0.0646062102	-9.8560362894	-0.825523797	0.035892339	-9.7914300792	-0.43788653580000003	0.00458148927	0.001221730472	0.018631389698	0.029626963946	0.044898594846	0.008552113303999999	0.74066	1.03994	0.26738	0.48778	1.05212	0.44022	-0.014356935599999999	-9.8237331843	-0.6317051664	0.017104226608	0.023060162659	0.013591751501	0.61422	1.04603	0.3538	9.4144	-0.47072	6.59008	0.9928102640019739	30.744999999999997
163091	17191557	0	-11	-1372	-117	14	-34	53	1298	1804	443	7	-1366	-63	90	98	24	835	1812	753	368	64	128	28.87	0.9873772514187024	32.61	0.99833209967925	4449.50830078125	-7309.8232421875	36.29999923706055	3.961450099945069	0	0.0	0.0	0.0	0.0	-0.0285996698740785	0.0	0.0	-0.1017719598295562	0.0	0.0	0.0	0.0	12	44.825138346354166	-73.163720703125	-0.07896314580000001	-9.848857821600001	-0.8398807326000001	0.050249274600000005	-9.8057870148	-0.45224347140000004	0.004276056651999999	-0.010384709011999999	0.016187928754	0.02748893562	0.029932396564	0.007330382832	0.75284	1.04632	0.25694	0.4843	1.0509600000000001	0.43674	-0.014356935600000002	-9.827322418200001	-0.646062102	0.015882496136	0.009773843776000001	0.011759155793	0.61857	1.04864	0.34684000000000004	10.82656	1.88288	3.76576	0.9928546755489762	30.740000000000002
163092	17191662	0	-15	-1375	-113	9	-10	56	1298	1804	443	4	-1361	-63	87	135	24	835	1812	753	448	96	272	28.87	0.987367382186035	32.61	0.99833209967925	4449.50830078125	-7309.8232421875	36.29999923706055	3.961450099945069	0	0.0	0.0	0.0	0.0	-0.083813084209287	0.0	0.0	-0.1484543000623196	0.0	0.0	0.0	0.0	12	44.825138346354166	-73.163720703125	-0.107677017	-9.870393225	-0.8111668614	0.0287138712	-9.7698946758	-0.45224347140000004	0.002748893562	-0.0030543261799999997	0.017104226607999998	0.026572637766	0.041233403429999996	0.007330382832	0.75284	1.04632	0.25694	0.4843	1.0509600000000001	0.43674	-0.0394815729	-9.8201439504	-0.6317051664000001	0.014660765664	0.019089538625	0.012217304719999999	0.61857	1.04864	0.34684000000000004	13.18016	2.82432	8.00224	0.9928497409326424	30.740000000000002
163093	17191768	0	-14	-1376	-115	-4	-36	55	1294	1787	450	3	-1365	-60	81	103	30	844	1770	738	384	32	256	28.87	0.9876437207007156	32.6	0.9980557611645694	4449.50830078125	-7309.8232421875	36.29999923706055	3.961450099945069	0	0.0	0.0	0.0	0.0	-0.0614540620217951	0.0	0.0	-0.1107518501893914	0.0	0.0	0.0	0.0	12	44.825138346354166	-73.163720703125	-0.10049854920000001	-9.8775716928	-0.825523797	0.0215354034	-9.798608547	-0.430708068	-0.001221730472	-0.010995574248	0.016798793989999998	0.024740042057999997	0.031459559654	0.00916297854	0.75052	1.03646	0.261	0.48952	1.0266	0.42804	-0.039481572900000005	-9.8380901199	-0.6281159325	0.011759155793	0.010231992702999999	0.012980886264999998	0.62002	1.03153	0.34452	11.29728	0.94144	7.53152	0.9928497409326424	30.735
163094	17191873	0	-22	-1373	-112	2	-14	65	1294	1787	450	2	-1365	-54	84	124	29	844	1770	738	416	112	256	28.87	0.987426597582038	32.59	0.998026153466568	4449.50830078125	-7309.8232421875	36.29999923706055	3.961726903915405	0	0.0	0.0	0.0	0.0	0.0008596517958932	0.0	0.0	-0.0324901961028841	0.0	0.0	0.0	0.0	12	44.825138346354166	-73.163720703125	-0.15792629160000002	-9.8560362894	-0.8039883936000001	0.0143569356	-9.798608547	-0.3876372612	0.000610865236	-0.004276056651999999	0.01985312017	0.025656339912	0.037873644632	0.008857545922	0.75052	1.03646	0.261	0.48952	1.0266	0.42804	-0.071784678	-9.827322418200001	-0.5958128274000001	0.013133602574	0.016798793989999998	0.014355333046	0.62002	1.03153	0.34452	12.23872	3.29504	7.53152	0.992726375524303	30.730000000000004
163095	17191978	0	-6	-1370	-116	-11	-22	56	1292	1785	452	8	-1363	-62	86	115	27	852	1793	740	368	48	272	28.87	0.9875351591413768	32.59	0.9980458919319024	4449.50830078125	-7309.8232421875	36.29999923706055	3.9714200496673584	0	0.0	0.0	0.0	0.0	0.0074243018962455	0.0	0.0	-0.0192754938466114	0.0	0.0	0.0	0.0	12	44.825138346354166	-73.163720703125	-0.0430708068	-9.834500886	-0.8327022648	0.0574277424	-9.7842516114	-0.4450650036	-0.003359758798	-0.006719517596	0.017104226607999998	0.026267205148	0.035124751069999995	0.008246680686	0.74936	1.0353	0.26216	0.49416	1.03994	0.4292	0.007178467800000001	-9.809376248700001	-0.6388836341999999	0.011453723175	0.014202616736999997	0.012675453646999998	0.62176	1.03762	0.34568	10.82656	1.41216	8.00224	0.9927905255366396	30.730000000000004
163096	17192084	0	-10	-1368	-109	13	-26	62	1292	1785	452	6	-1361	-53	102	126	33	852	1793	740	400	-16	320	28.87	0.9874759437453738	32.61	0.9983419689119172	4449.50830078125	-7309.8232421875	36.29999923706055	3.9589574337005615	0	0.0	0.0	0.0	0.0	-0.0396931829455536	0.0	0.0	-0.0652030578436236	0.0	0.0	0.0	0.0	12	44.825138346354166	-73.163720703125	-0.071784678	-9.8201439504	-0.7824529902	0.0430708068	-9.7698946758	-0.3804587934	0.003970624034	-0.007941248068	0.018936822316	0.031154127036	0.038484509868	0.010079276394	0.74936	1.0353	0.26216	0.49416	1.03994	0.4292	-0.014356935600000002	-9.7950193131	-0.5814558918	0.017562375535	0.0152716309	0.014508049355	0.62176	1.03762	0.34568	11.768	-0.47072	9.4144	0.9929089563286455	30.740000000000002
163097	17192191	0	-10	-1380	-124	13	-17	47	1302	1790	427	6	-1370	-58	100	114	25	833	1760	722	368	112	176	28.87	0.9874759437453738	32.61	0.99833209967925	4449.50830078125	-7309.8232421875	36.20000076293945	3.966158151626587	0	0.0	0.0	0.0	0.0	-0.0648303428011384	0.0	0.0	-0.0859926550822238	0.0	0.0	0.0	0.0	12	44.825138346354166	-73.163720703125	-0.071784678	-9.906285564000001	-0.8901300072	0.0430708068	-9.834500886	-0.4163511324	0.003970624034	-0.005192354505999999	0.014355333045999999	0.0305432618	0.034819318451999995	0.00763581545	0.75516	1.0382	0.24766	0.48314	1.0208	0.41876	-0.014356935600000002	-9.870393225	-0.6532405698	0.017256942917	0.014813481972999998	0.010995574248	0.6191500000000001	1.0295	0.33321	10.82656	3.29504	5.17792	0.992904021712312	30.740000000000002
163098	17192297	0	-12	-1375	-105	5	-14	48	1302	1790	427	4	-1367	-54	95	123	20	833	1760	722	352	-16	288	28.87	0.987683197631384	32.61	0.9981347150259068	4449.50830078125	-7309.8232421875	36.20000076293945	3.962003946304321	0	0.0	0.0	0.0	0.0	-0.1542404590338049	0.0	0.0	-0.1665297220101757	0.0	0.0	0.0	0.0	12	44.825138346354166	-73.163720703125	-0.0861416136	-9.870393225	-0.753739119	0.0287138712	-9.812965482600001	-0.3876372612	0.0015271630899999999	-0.004276056651999999	0.014660765664	0.029016098709999997	0.037568212014	0.0061086523599999994	0.75516	1.0382	0.24766	0.48314	1.0208	0.41876	-0.028713871199999998	-9.8416793538	-0.5706881901	0.015271630899999998	0.016646077681	0.010384709012	0.6191500000000001	1.0295	0.33321	10.35584	-0.47072	8.47296	0.9929089563286454	30.740000000000002
163099	17192402	0	-12	-1376	-131	10	-27	56	1310	1794	457	3	-1360	-71	103	122	25	835	1788	772	336	128	192	28.86	0.9875647668393782	32.6	0.9982235381199112	4449.50830078125	-7309.8232421875	36.20000076293945	3.9572958946228023	0	0.0	0.0	0.0	0.0	-0.1612670175254164	0.0	0.0	-0.1512594299635782	0.0	0.0	0.0	0.0	12	44.825138346354166	-73.163720703125	-0.0861416136	-9.8775716928	-0.9403792818000001	0.0215354034	-9.762716208	-0.5096712138	0.0030543261799999997	-0.008246680686	0.017104226607999998	0.031459559654	0.037262779396	0.00763581545	0.7598	1.0405200000000001	0.26506	0.4843	1.03704	0.44776	-0.0323031051	-9.8201439504	-0.7250252478000001	0.017256942916999998	0.014508049355	0.012370021028999999	0.62205	1.03878	0.35641	9.88512	3.76576	5.64864	0.9928941524796446	30.73
163100	17192507	0	-12	-1379	-106	0	-10	56	1310	1794	457	4	-1361	-50	91	123	36	835	1788	772	448	128	176	28.87	0.9874759437453738	32.61	0.9982334073525784	4449.50830078125	-7309.8232421875	36.20000076293945	3.962557792663574	0	0.0	0.0	0.0	0.0	-0.1435504937835589	0.0	0.0	-0.1156103037291754	0.0	0.0	0.0	0.0	12	44.825138346354166	-73.163720703125	-0.0861416136	-9.8991070962	-0.7609175868	0.0287138712	-9.7698946758	-0.35892339	0.0	-0.0030543261799999997	0.017104226607999998	0.027794368237999998	0.037568212014	0.010995574248	0.7598	1.0405200000000001	0.26506	0.4843	1.03704	0.44776	-0.028713871199999998	-9.834500886	-0.5599204884	0.013897184118999999	0.017256942917	0.014049900427999999	0.62205	1.03878	0.35641	13.18016	3.76576	5.17792	0.9928546755489761	30.740000000000002
163101	17192613	0	-14	-1374	-127	-14	-34	59	1288	1792	444	3	-1364	-71	81	99	25	827	1773	752	320	16	304	28.87	0.9875845053047124	32.6	0.9981643227239082	4449.50830078125	-7309.8232421875	36.20000076293945	3.9586806297302246	0	0.0	0.0	0.0	0.0	-0.1694652780471217	0.0	0.0	-0.1268712252293241	0.0	0.0	0.0	0.0	12	44.825138346354166	-73.163720703125	-0.10049854920000001	-9.8632147572	-0.9116654106000001	0.0215354034	-9.7914300792	-0.5096712138	-0.004276056651999999	-0.010384709011999999	0.018020524462	0.024740042057999997	0.030237829182	0.00763581545	0.74704	1.03936	0.25752	0.47966	1.02834	0.43616	-0.039481572900000005	-9.8273224182	-0.7106683122	0.010231992702999999	0.009926560085000001	0.012828169956	0.6133500000000001	1.0338500000000002	0.34684000000000004	9.4144	0.47072	8.94368	0.9928744140143103	30.735
163102	17192718	0	-11	-1380	-102	-17	-20	65	1288	1792	444	4	-1362	-46	85	112	40	842	1748	758	400	48	304	28.86	0.9874167283493708	32.61	0.9981248457932396	4449.50830078125	-7309.8232421875	36.20000076293945	3.963111639022827	0	0.0	0.0	0.0	0.0	-0.19838228272061	0.0	0.0	-0.1390969144159618	0.0	0.0	0.0	0.0	12	44.825138346354166	-73.163720703125	-0.07896314580000001	-9.906285564000001	-0.7322037156000001	0.0287138712	-9.777073143600001	-0.3302095188	-0.005192354505999999	-0.0061086523599999994	0.01985312017	0.02596177253	0.034208453215999995	0.012217304719999999	0.74704	1.03936	0.25752	0.48836	1.01384	0.43964	-0.025124637300000002	-9.8416793538	-0.5312066172000001	0.010384709012	0.014049900427999997	0.016035212445	0.6177	1.0266000000000002	0.34858	11.768	1.41216	8.94368	0.9927707870713052	30.735
163103	17192824	0	-10	-1368	-116	9	-34	63	1304	1819	445	5	-1362	-62	87	96	27	842	1748	758	352	32	256	28.85	0.9875548976067112	32.6	0.9981643227239082	4449.50830078125	-7309.8232421875	36.20000076293945	3.9567418098449703	0	0.0	0.0	0.0	0.0	-0.2238568027712647	0.0	0.0	-0.1481367379343039	0.0	0.0	0.0	0.0	12	44.825138346354166	-73.163720703125	-0.071784678	-9.8201439504	-0.8327022648	0.035892339	-9.777073143600001	-0.4450650036	0.002748893562	-0.010384709011999999	0.019242254934	0.026572637766	0.029321531328	0.008246680686	0.75632	1.05502	0.2581	0.48836	1.01384	0.43964	-0.0179461695	-9.798608547	-0.6388836341999999	0.014660765664	0.009468411158000001	0.01374446781	0.62234	1.03443	0.34887	10.35584	0.94144	7.53152	0.9928596101653098	30.725
163104	17192929	0	-14	-1374	-99	-8	-21	54	1304	1819	445	5	-1365	-41	90	115	28	837	1769	744	448	128	208	28.86	0.9876239822353812	32.61	0.9981248457932396	4449.50830078125	-7309.8232421875	36.20000076293945	3.960342168807984	0	0.0	0.0	0.0	0.0	-0.209285691255098	0.0	0.0	-0.1171587338213813	0.0	0.0	0.0	0.0	12	44.825138346354166	-73.163720703125	-0.10049854920000001	-9.8632147572	-0.7106683122	0.035892339	-9.798608547	-0.2943171798	-0.002443460944	-0.006414084978	0.016493361372	0.02748893562	0.035124751069999995	0.008552113303999999	0.75632	1.05502	0.2581	0.48546	1.02602	0.43152	-0.03230310510000001	-9.8309116521	-0.502492746	0.012522737337999999	0.014355333045999997	0.012522737337999999	0.6208899999999999	1.04052	0.34481	13.18016	3.76576	6.11936	0.9928744140143104	30.735
