	timestamp_s	timestamp_ms	imu1_accel_x	imu1_accel_y	imu1_accel_z	imu1_gyro_x	imu1_gyro_y	imu1_gyro_z	imu1_mag_x	imu1_mag_y	imu1_mag_z	imu2_accel_x	imu2_accel_y	imu2_accel_z	imu2_gyro_x	imu2_gyro_y	imu2_gyro_z	imu2_mag_x	imu2_mag_y	imu2_mag_z	high_g_accel_x	high_g_accel_y	high_g_accel_z	baro1_temp	baro1_pres	baro2_temp	baro2_pres	gps_lat	gps_long	gps_alt	battery_voltage	pyro_cont	pyro_status	heading	vtg	pos_x	pos_y	pos_z	vel_x	vel_y	vel_z	acc_x	acc_y	acc_z	q_x	q_y	q_z	q_w	state	gps_lat_mod	gps_long_mod	imu1_accel_x_real	imu1_accel_y_real	imu1_accel_z_real	imu2_accel_x_real	imu2_accel_y_real	imu2_accel_z_real	imu1_gyro_x_real	imu1_gyro_y_real	imu1_gyro_z_real	imu2_gyro_x_real	imu2_gyro_y_real	imu2_gyro_z_real	imu1_mag_x_real	imu1_mag_y_real	imu1_mag_z_real	imu2_mag_x_real	imu2_mag_y_real	imu2_mag_z_real	imu_accel_x_avg	imu_accel_y_avg	imu_accel_z_avg	imu_gyro_x_avg	imu_gyro_y_avg	imu_gyro_z_avg	imu_mag_x_avg	imu_mag_y_avg	imu_mag_z_avg	high_g_accel_x_real	high_g_accel_y_real	high_g_accel_z_real	baro_pres_avg	baro_temp_avg
2932	312894	0	-67	1344	-83	-14	98	50	-529	-2817	-1116	-81	1347	-104	43	17	-117	594	-1182	-222	-224	32	496	33.04	1.0006415001233655	31.96	1.0083592400690846	0.0	0.0	0.0	12.2435302734375	11	0	0.0	0.0	0.0	0.0	-0.0421941836774771	0.0	0.0	-0.1906810811564514	0.5312066172	0.6711867393	9.658628424899998	0.0	0.0	0.0	0.0	7	0.0	0.0	-0.4809573426	9.6478607232	-0.5958128274000001	-0.5814558918	9.6693961266	-0.7465606512	-0.004276056651999999	0.029932396564	0.0152716309	0.013133602574	0.005192354505999999	-0.035735616306	-0.30682	-1.63386	-0.64728	0.34452	-0.6855600000000001	-0.12876	-0.5312066172000001	9.658628424900002	-0.6711867393000001	0.004428772961	0.017562375535	-0.010231992703	0.018850000000000006	-1.15971	-0.38802	-6.59008	0.94144	14.59232	1.004500370096225	32.5
2933	312999	0	-59	1338	-74	-5	91	55	-529	-2817	-1116	-75	1343	-97	52	15	-108	613	-1160	-248	-240	64	448	33.06	1.0007895386133727	31.97	1.0084184554650877	0.0	0.0	0.0	12.2598876953125	11	0	0.0	0.0	0.0	0.0	-0.1497933569147052	0.0	0.0	-0.2993168799699567	0.4809573425999999	0.6137589968999999	9.6227360859	0.0	0.0	0.0	0.0	7	0.0	0.0	-0.4235296002	9.6047899164	-0.5312066172000001	-0.538385085	9.6406822554	-0.6963113766	-0.0015271630899999999	0.027794368237999998	0.016798793989999998	0.015882496136	0.00458148927	-0.032986722744	-0.30682	-1.63386	-0.64728	0.35554	-0.6728	-0.14384	-0.4809573426	9.6227360859	-0.6137589969	0.007177666522999999	0.016187928754	-0.008093964377	0.02436000000000002	-1.15333	-0.39555999999999997	-7.0608	1.88288	13.18016	1.0046039970392302	32.515
2934	313105	0	-65	1338	-58	-13	103	69	-522	-2823	-1075	-78	1344	-88	68	21	-92	613	-1160	-248	-288	32	464	33.06	1.000572415494695	31.98	1.0083395016037504	0.0	0.0	0.0	12.2598876953125	11	0	0.0	0.0	0.0	0.0	-0.0997733179185563	0.0	0.0	-0.2290272043565545	0.5132604477	0.5240281494	9.6263253198	0.0	0.0	0.0	0.0	7	0.0	0.0	-0.466600407	9.6047899164	-0.4163511324	-0.5599204884	9.6478607232	-0.6317051664000001	-0.003970624034	0.031459559654	0.021074850641999997	0.020769418023999998	0.006414084978	-0.028099800855999998	-0.30276000000000003	-1.63734	-0.6235	0.35554	-0.6728	-0.14384	-0.5132604477	9.6263253198	-0.5240281494000001	0.008399396994999999	0.018936822316	-0.003512475107	0.026389999999999997	-1.15507	-0.38367	-8.47296	0.94144	13.65088	1.0044559585492228	32.52
2935	313210	0	-77	1345	-60	-38	109	72	-522	-2823	-1075	-81	1345	-78	38	28	-86	628	-1153	-206	-224	48	416	33.06	1.00073032321737	31.97	1.0082802862077471	0.0	0.0	0.0	12.2598876953125	11	0	0.0	0.0	0.0	0.0	-0.0598284758274554	0.0	0.0	-0.1809083563280347	0.5670989562	0.4953142781999999	9.655039190999998	0.0	0.0	0.0	0.0	7	0.0	0.0	-0.5527420206	9.655039191	-0.430708068	-0.5814558918	9.655039191	-0.5599204884	-0.011606439484	0.033292155361999996	0.021991148496	0.011606439484	0.008552113303999999	-0.026267205148	-0.30276000000000003	-1.63734	-0.6235	0.36424	-0.66874	-0.11948	-0.5670989562	9.655039191	-0.49531427819999996	0.0	0.020922134332999998	-0.0021380283259999997	0.03073999999999999	-1.15304	-0.37149000000000004	-6.59008	1.41216	12.23872	1.0045053047125587	32.515
2936	313316	0	-76	1340	-69	-43	102	50	-547	-2814	-1087	-85	1343	-94	23	18	-106	628	-1153	-206	-288	48	352	33.06	1.0006711078213668	31.98	1.008073032321737	0.0	0.0	0.0	12.2762451171875	11	0	0.0	0.0	0.0	0.0	0.0170633649413276	0.0	0.0	-0.0978767463673596	0.5778666578999999	0.5850451257	9.6299145537	0.0	0.0	0.0	0.0	7	0.0	0.0	-0.5455635528	9.619146852	-0.4953142782	-0.610169763	9.6406822554	-0.6747759732	-0.013133602574	0.031154127036	0.0152716309	0.0070249502139999994	0.005497787124	-0.032375857508	-0.31726	-1.63212	-0.63046	0.36424	-0.66874	-0.11948	-0.5778666579	9.6299145537	-0.5850451257	-0.00305432618	0.01832595708	-0.008552113303999999	0.02349000000000001	-1.15043	-0.37497	-8.47296	1.41216	10.35584	1.004372070071552	32.52
2937	313421	0	-67	1336	-80	-11	99	47	-547	-2814	-1087	-77	1349	-102	47	2	-115	607	-1124	-211	-208	-16	432	33.06	1.0007895386133727	31.98	1.0082408092770787	0.0	0.0	0.0	12.2598876953125	11	0	0.0	0.0	0.0	0.0	0.0062645367136766	0.0	0.0	-0.1156824786367164	0.5168496816	0.6532405697999999	9.6370930215	0.0	0.0	0.0	0.0	7	0.0	0.0	-0.4809573426	9.590432980800001	-0.574277424	-0.5527420206	9.683753062200001	-0.7322037156000001	-0.003359758798	0.030237829182	0.014355333045999999	0.014355333045999999	0.000610865236	-0.035124751069999995	-0.31726	-1.63212	-0.63046	0.35206	-0.65192	-0.12238	-0.5168496816	9.6370930215	-0.6532405698000001	0.005497787123999999	0.015424347209	-0.010384709011999997	0.0174	-1.14202	-0.37642000000000003	-6.11936	-0.47072	12.70944	1.0045151739452258	32.52
2938	313527	0	-54	1347	-77	0	98	53	-533	-2827	-1105	-67	1348	-98	65	31	-107	607	-1124	-211	-208	0	496	33.07	1.0007599309153714	31.97	1.0082210708117445	0.0	0.0	0.0	12.2598876953125	11	0	0.0	0.0	0.0	0.0	0.0504278720365061	0.0	0.0	-0.0736542938393017	0.4342973018999999	0.6281159325	9.6729853605	0.0	0.0	0.0	0.0	7	0.0	0.0	-0.3876372612	9.6693961266	-0.5527420206	-0.4809573426	9.6765745944	-0.7034898444000001	0.0	0.029932396564	0.016187928754	0.01985312017	0.009468411158	-0.032681290126	-0.30914	-1.6396600000000001	-0.6409	0.35206	-0.65192	-0.12238	-0.43429730190000004	9.6729853605	-0.6281159325000001	0.009926560085	0.019700403861	-0.008246680686	0.02145999999999998	-1.14579	-0.38164000000000003	-6.11936	0.0	14.59232	1.0044905008635578	32.519999999999996
2939	313632	0	-62	1344	-56	4	94	79	-532	-2819	-1079	-69	1348	-87	63	29	-86	612	-1112	-254	-272	48	480	33.07	1.0006908462867012	31.99	1.00820133234641	0.0	0.0	0.0	12.2598876953125	11	0	0.0	0.0	0.0	0.0	0.0962982447493243	0.0	0.0	-0.0353050902778225	0.4701896408999999	0.5132604477	9.6622176588	0.0	0.0	0.0	0.0	7	0.0	0.0	-0.4450650036	9.6478607232	-0.40199419680000004	-0.4953142782	9.6765745944	-0.6245266986	0.001221730472	0.028710666091999997	0.024129176821999998	0.019242254934	0.008857545922	-0.026267205148	-0.30856	-1.63502	-0.62582	0.35496	-0.64496	-0.14732	-0.47018964090000004	9.6622176588	-0.5132604477	0.010231992702999999	0.018784106007	-0.0010690141630000007	0.0232	-1.13999	-0.38657	-8.00224	1.41216	14.1216	1.0044460893165557	32.53
2940	313737	0	-75	1345	-56	-22	76	72	-532	-2819	-1079	-88	1351	-80	41	7	-88	612	-1112	-254	-208	-48	512	33.07	1.00079940784604	32.0	1.0082802862077471	0.0	0.0	0.0	12.2435302734375	11	0	0.0	0.0	0.0	0.0	0.2105730346883808	0.0	0.0	0.0691194528072842	0.5850451257	0.4881358104	9.676574594399998	0.0	0.0	0.0	0.0	7	0.0	0.0	-0.538385085	9.655039191	-0.40199419680000004	-0.6317051664000001	9.6981099978	-0.574277424	-0.006719517596	0.023212878968	0.021991148496	0.012522737337999999	0.0021380283259999997	-0.026878070384	-0.30856	-1.63502	-0.62582	0.35496	-0.64496	-0.14732	-0.5850451257	9.6765745944	-0.48813581040000004	0.0029016098709999994	0.012675453646999998	-0.0024434609439999994	0.0232	-1.13999	-0.38657	-6.11936	-1.41216	15.06304	1.0045398470268936	32.535
2941	313843	0	-85	1342	-75	-30	64	52	-518	-2842	-1084	-92	1340	-102	26	-9	-103	602	-1148	-244	-272	-32	448	33.07	1.0005329385640267	31.99	1.0082506785097458	0.0	0.0	0.0	12.2435302734375	11	0	0.0	0.0	0.0	0.0	0.2314734031616787	0.0	0.0	0.0683949511160315	0.6352944003	0.6352944003	9.6263253198	0.0	0.0	0.0	0.0	7	0.0	0.0	-0.610169763	9.6335037876	-0.538385085	-0.6604190376	9.619146852	-0.7322037156000001	-0.00916297854	0.019547687552	0.015882496136	0.007941248068	-0.002748893562	-0.031459559654	-0.30044	-1.64836	-0.6287200000000001	0.34916	-0.66584	-0.14152	-0.6352944003000001	9.6263253198	-0.6352944003000001	-0.0006108652360000003	0.008399396994999999	-0.007788531759	0.02436000000000002	-1.1571	-0.38512	-8.00224	-0.94144	13.18016	1.0043918085368864	32.53
2942	313948	0	-69	1342	-79	-9	91	52	-518	-2842	-1084	-79	1347	-101	53	16	-100	602	-1148	-244	-176	-16	544	33.07	1.0007599309153714	32.0	1.008003947693067	0.0	0.0	0.0	12.2762451171875	11	0	0.0	0.0	0.0	0.0	0.1689319143553902	0.0	0.0	-0.017281821179697	0.5312066172	0.6460621019999999	9.6514499571	0.0	0.0	0.0	0.0	7	0.0	0.0	-0.4953142782	9.6335037876	-0.5670989562000001	-0.5670989562000001	9.6693961266	-0.7250252478	-0.002748893562	0.027794368237999998	0.015882496136	0.016187928754	0.004886921888	-0.0305432618	-0.30044	-1.64836	-0.6287200000000001	0.34916	-0.66584	-0.14152	-0.5312066172000001	9.6514499571	-0.646062102	0.006719517595999999	0.016340645063	-0.007330382832	0.02436000000000002	-1.1571	-0.38512	-5.17792	-0.47072	16.00448	1.0043819393042193	32.535
2943	314054	0	-62	1345	-64	-2	125	64	-543	-2828	-1112	-77	1344	-86	66	42	-94	616	-1153	-243	-304	64	480	33.06	1.0006711078213668	32.0	1.008438193930422	0.0	0.0	0.0	12.2598876953125	11	0	0.0	0.0	0.0	0.0	0.1082619887536691	0.0	0.0	-0.0947227523604973	0.4989035120999999	0.5383850849999999	9.6514499571	0.0	0.0	0.0	0.0	7	0.0	0.0	-0.4450650036	9.655039191	-0.4594219392	-0.5527420206	9.6478607232	-0.6173482308	-0.000610865236	0.03817907725	0.019547687552	0.020158552788	0.012828169956	-0.028710666091999997	-0.31494	-1.64024	-0.64496	0.35728	-0.66874	-0.14094	-0.4989035121	9.6514499571	-0.538385085	0.009773843776	0.025503623603	-0.004581489269999999	0.021169999999999994	-1.15449	-0.39295	-8.94368	1.88288	14.1216	1.0045546508758945	32.53
2944	314159	0	-52	1348	-52	-13	129	71	-543	-2828	-1112	-70	1348	-73	62	53	-97	616	-1153	-243	-192	-16	464	33.08	1.0007698001480383	32.0	1.008329632371083	0.0	0.0	0.0	12.2435302734375	11	0	0.0	0.0	0.0	0.0	0.0960220509119059	0.0	0.0	-0.11337838224668	0.4378865357999999	0.4486542375	9.6765745944	0.0	0.0	0.0	0.0	7	0.0	0.0	-0.3732803256	9.6765745944	-0.3732803256	-0.502492746	9.6765745944	-0.5240281494	-0.003970624034	0.039400807722	0.021685715878	0.018936822316	0.016187928754	-0.029626963946	-0.31494	-1.64024	-0.64496	0.35728	-0.66874	-0.14094	-0.43788653580000003	9.6765745944	-0.4486542375	0.007483099141	0.027794368237999998	-0.003970624034	0.021169999999999994	-1.15449	-0.39295	-5.64864	-0.47072	13.65088	1.0045497162595607	32.54
2945	314265	0	-67	1343	-57	-48	108	59	-561	-2820	-1056	-86	1342	-78	22	19	-99	631	-1133	-238	-272	-16	544	33.08	1.0008290155440414	32.0	1.0082210708117445	0.0	0.0	0.0	12.2762451171875	11	0	0.0	0.0	0.0	0.0	0.064908317070957	0.0	0.0	-0.1490885287311195	0.5491527866999999	0.4845465765	9.6370930215	0.0	0.0	0.0	0.0	7	0.0	0.0	-0.4809573426	9.6406822554	-0.4091726646	-0.6173482308	9.6335037876	-0.5599204884	-0.014660765664	0.032986722744	0.018020524462	0.006719517596	0.005803219742	-0.030237829182	-0.32538	-1.6356	-0.61248	0.36598	-0.6571400000000001	-0.13804	-0.5491527867	9.6370930215	-0.4845465765	-0.003970624034	0.019394971243	-0.0061086523599999994	0.020300000000000012	-1.1463700000000001	-0.37526000000000004	-8.00224	-0.47072	16.00448	1.004525043177893	32.54
2946	314370	0	-71	1339	-80	-37	87	53	-561	-2820	-1056	-89	1349	-98	16	6	-98	631	-1133	-238	-176	-16	512	33.07	1.0006513693560326	32.01	1.0080927707870713	0.0	0.0	0.0	12.2435302734375	11	0	0.0	0.0	0.0	0.0	0.0889669472425679	0.0	0.0	-0.1229375535458907	0.5742774239999999	0.6388836341999999	9.6478607232	0.0	0.0	0.0	0.0	7	0.0	0.0	-0.5096712138	9.6119683842	-0.574277424	-0.6388836342	9.683753062200001	-0.7034898444000001	-0.011301006866	0.026572637766	0.016187928754	0.004886921888	0.001832595708	-0.029932396564	-0.32538	-1.6356	-0.61248	0.36598	-0.6571400000000001	-0.13804	-0.574277424	9.6478607232	-0.6388836342	-0.003207042489	0.014202616737	-0.0068722339050000004	0.020300000000000012	-1.1463700000000001	-0.37526000000000004	-5.17792	-0.47072	15.06304	1.004372070071552	32.54
2947	314476	0	-69	1340	-79	-21	104	48	-529	-2817	-1053	-81	1349	-104	54	28	-107	613	-1176	-263	-112	32	432	33.07	1.0008092770787071	32.01	1.0082506785097458	0.0	0.0	0.0	12.2598876953125	11	0	0.0	0.0	0.0	0.0	0.0590926930254347	0.0	0.0	-0.1568512888318962	0.5383850849999999	0.6568298037	9.6514499571	0.0	0.0	0.0	0.0	7	0.0	0.0	-0.4953142782	9.619146852	-0.5670989562000001	-0.5814558918	9.683753062200001	-0.7465606512	-0.006414084978	0.031764992272	0.014660765664	0.016493361372	0.008552113303999999	-0.032681290126	-0.30682	-1.63386	-0.61074	0.35554	-0.68208	-0.15254	-0.538385085	9.6514499571	-0.6568298037	0.005039638196999999	0.020158552788	-0.009010262230999998	0.02436000000000002	-1.1579700000000002	-0.38164	-3.29504	0.94144	12.70944	1.0045299777942265	32.54
2948	314581	0	-58	1345	-61	-7	109	53	-529	-2817	-1053	-77	1347	-92	53	26	-108	613	-1176	-263	-240	-80	480	33.09	1.000680977054034	32.01	1.0083592400690846	0.0	0.0	0.0	12.2598876953125	11	0	0.0	0.0	0.0	0.0	0.0650247866831915	0.0	0.0	-0.1503341482396868	0.4845465765	0.5491527867	9.6622176588	0.0	0.0	0.0	0.0	7	0.0	0.0	-0.4163511324	9.655039191	-0.43788653580000003	-0.5527420206	9.6693961266	-0.6604190376	-0.0021380283259999997	0.033292155361999996	0.016187928754	0.016187928754	0.007941248068	-0.032986722744	-0.30682	-1.63386	-0.61074	0.35554	-0.68208	-0.15254	-0.4845465765	9.6622176588	-0.5491527867	0.0070249502139999994	0.020616701714999998	-0.008399396994999999	0.02436000000000002	-1.1579700000000002	-0.38164	-7.0608	-2.3536	14.1216	1.0045201085615592	32.55
2949	314686	0	-64	1353	-60	-16	102	74	-536	-2809	-1058	-83	1349	-71	42	20	-83	626	-1135	-251	-256	0	416	33.08	1.0009375771033802	32.0	1.008013816925734	0.0	0.0	0.0	12.2762451171875	11	0	0.0	0.0	0.0	0.0	0.0446279552362859	0.0	0.0	-0.1691553318653162	0.5276173833	0.4701896408999999	9.6981099978	0.0	0.0	0.0	0.0	7	0.0	0.0	-0.4594219392	9.7124669334	-0.430708068	-0.5958128274000001	9.683753062200001	-0.5096712138	-0.004886921888	0.031154127036	0.022602013732	0.012828169956	0.0061086523599999994	-0.025350907293999997	-0.31088	-1.6292200000000001	-0.61364	0.36308	-0.6583	-0.14558	-0.5276173833000001	9.6981099978	-0.47018964090000004	0.003970624034	0.018631389698	-0.0013744467809999987	0.026100000000000012	-1.14376	-0.37961	-7.53152	0.0	12.23872	1.004475697014557	32.54
2950	314792	0	-79	1348	-68	-39	95	73	-536	-2809	-1058	-86	1348	-87	37	15	-92	626	-1135	-251	-288	0	448	33.09	1.0005230693313596	32.01	1.0083592400690846	0.0	0.0	0.0	12.2762451171875	11	0	0.0	0.0	0.0	0.0	-0.0700540745616217	0.0	0.0	-0.2799852558013382	0.5922235935	0.5563312545	9.6765745944	0.0	0.0	0.0	0.0	7	0.0	0.0	-0.5670989562000001	9.6765745944	-0.48813581040000004	-0.6173482308	9.6765745944	-0.6245266986	-0.011911872102	0.029016098709999997	0.022296581114	0.011301006866	0.00458148927	-0.028099800855999998	-0.31088	-1.6292200000000001	-0.61364	0.36308	-0.6583	-0.14558	-0.5922235935	9.6765745944	-0.5563312545	-0.0003054326179999997	0.016798793989999998	-0.002901609870999999	0.026100000000000012	-1.14376	-0.37961	-8.47296	0.0	13.18016	1.004441154700222	32.55
2951	314897	0	-84	1348	-75	-32	120	52	-505	-2794	-1076	-94	1349	-94	46	38	-107	621	-1153	-227	-272	-16	464	33.08	1.000611892425364	32.03	1.008438193930422	0.0	0.0	0.0	12.2435302734375	11	0	0.0	0.0	0.0	0.0	-0.103071125029742	0.0	0.0	-0.3015890086672946	0.6388836341999999	0.6065805290999999	9.6801638283	0.0	0.0	0.0	0.0	7	0.0	0.0	-0.6029912952	9.6765745944	-0.538385085	-0.6747759732	9.683753062200001	-0.6747759732	-0.009773843776	0.03665191416	0.015882496136	0.014049900427999999	0.011606439484	-0.032681290126	-0.2929	-1.62052	-0.62408	0.36018	-0.66874	-0.13166	-0.6388836342	9.6801638283	-0.6065805291	0.0021380283259999997	0.024129176821999998	-0.008399396994999999	0.03364	-1.14463	-0.37787	-8.00224	-0.47072	13.65088	1.004525043177893	32.555
2952	315003	0	-80	1342	-72	-14	81	39	-505	-2794	-1076	-89	1347	-97	51	16	-120	621	-1153	-227	-208	32	448	33.09	1.0007895386133727	32.01	1.0083592400690846	0.0	0.0	0.0	12.2598876953125	11	0	0.0	0.0	0.0	0.0	-0.1250854506661896	0.0	0.0	-0.3075285288942053	0.6065805290999999	0.6065805290999999	9.6514499571	0.0	0.0	0.0	0.0	7	0.0	0.0	-0.574277424	9.6335037876	-0.5168496816	-0.6388836342	9.6693961266	-0.6963113766	-0.004276056651999999	0.024740042057999997	0.011911872102	0.015577063518	0.004886921888	-0.03665191416	-0.2929	-1.62052	-0.62408	0.36018	-0.66874	-0.13166	-0.6065805291	9.6514499571	-0.6065805290999999	0.005650503433	0.014813481972999998	-0.012370021029	0.03364	-1.14463	-0.37787	-6.11936	0.94144	13.18016	1.0045743893412287	32.55
2953	315108	0	-70	1344	-66	-2	103	58	-535	-2822	-1087	-83	1344	-88	48	27	-100	595	-1149	-252	-208	-48	480	33.08	1.0007796693807056	32.03	1.008013816925734	0.0	0.0	0.0	12.2598876953125	11	0	0.0	0.0	0.0	0.0	-0.1757649399996625	0.0	0.0	-0.3383590186564221	0.5491527866999999	0.5527420206	9.6478607232	0.0	0.0	0.0	0.0	7	0.0	0.0	-0.502492746	9.6478607232	-0.4737788748	-0.5958128274000001	9.6478607232	-0.6317051664000001	-0.000610865236	0.031459559654	0.017715091844	0.014660765664	0.008246680686	-0.0305432618	-0.3103	-1.63676	-0.63046	0.3451	-0.66642	-0.14616	-0.5491527867000001	9.6478607232	-0.5527420206	0.007024950214	0.01985312017	-0.006414084977999999	0.0174	-1.1515900000000001	-0.38831000000000004	-6.11936	-1.41216	14.1216	1.0043967431532197	32.555
2954	315214	0	-72	1348	-51	-13	112	77	-535	-2822	-1087	-82	1346	-75	48	32	-74	595	-1149	-252	-208	-16	528	33.1	1.0006513693560326	32.02	1.008319763138416	0.0	0.0	0.0	12.2435302734375	11	0	0.0	0.0	0.0	0.0	-0.1440463962582353	0.0	0.0	-0.2863089081229983	0.5527420206	0.4522434714	9.6693961266	0.0	0.0	0.0	0.0	7	0.0	0.0	-0.5168496816	9.6765745944	-0.36610185780000004	-0.5886343596	9.6622176588	-0.538385085	-0.003970624034	0.034208453215999995	0.023518311586	0.014660765664	0.009773843776	-0.022602013732	-0.3103	-1.63676	-0.63046	0.3451	-0.66642	-0.14616	-0.5527420206	9.669396126599999	-0.45224347140000004	0.005345070815	0.021991148495999997	0.00045814892699999957	0.0174	-1.1515900000000001	-0.38831000000000004	-6.11936	-0.47072	15.533760000000001	1.0044855662472243	32.56
2955	315319	0	-75	1345	-59	-31	118	71	-537	-2811	-1100	-90	1346	-83	33	31	-86	633	-1147	-190	-288	0	512	33.1	1.000611892425364	32.03	1.0080927707870713	0.0	0.0	0.0	12.2762451171875	11	0	0.0	0.0	0.0	0.0	0.0105549030815375	0.0	0.0	-0.1082690397582166	0.5922235935	0.5096712137999999	9.658628424899998	0.0	0.0	0.0	0.0	7	0.0	0.0	-0.538385085	9.655039191	-0.4235296002	-0.646062102	9.6622176588	-0.5958128274000001	-0.009468411158	0.036041048924	0.021685715878	0.010079276394	0.009468411158	-0.026267205148	-0.31146	-1.63038	-0.638	0.36714	-0.66526	-0.1102	-0.5922235935	9.6586284249	-0.5096712138	0.0003054326179999997	0.022754730041	-0.0022907446349999996	0.027840000000000004	-1.1478199999999998	-0.3741	-8.47296	0.0	15.06304	1.0043523316062175	32.565
2956	315425	0	-72	1337	-62	-25	85	54	-556	-2824	-1108	-83	1347	-95	32	-9	-118	612	-1143	-229	-208	-16	416	33.09	1.0006908462867012	32.02	1.008329632371083	0.0	0.0	0.0	12.2598876953125	11	0	0.0	0.0	0.0	0.0	-0.0110199083814133	0.0	0.0	-0.1348718274829711	0.5563312545	0.5635097223	9.6335037876	0.0	0.0	0.0	0.0	7	0.0	0.0	-0.5168496816	9.5976114486	-0.4450650036	-0.5958128274000001	9.6693961266	-0.681954441	-0.00763581545	0.02596177253	0.016493361372	0.009773843776	-0.002748893562	-0.036041048924	-0.32248	-1.63792	-0.64264	0.35496	-0.66294	-0.13282	-0.5563312545000001	9.6335037876	-0.5635097223000001	0.0010690141629999999	0.011606439484	-0.009773843776000001	0.016240000000000004	-1.15043	-0.38773	-6.11936	-0.47072	12.23872	1.004510239328892	32.55500000000001
2957	315530	0	-56	1346	-64	-12	75	44	-556	-2824	-1108	-72	1343	-87	43	0	-131	612	-1143	-229	-176	-16	432	33.11	1.0005625462620282	32.01	1.0082506785097458	0.0	0.0	0.0	12.2598876953125	11	0	0.0	0.0	0.0	0.0	0.0074495791808909	0.0	0.0	-0.1136698746110018	0.4594219391999999	0.5419743188999999	9.6514499571	0.0	0.0	0.0	0.0	7	0.0	0.0	-0.40199419680000004	9.6622176588	-0.4594219392	-0.5168496816	9.6406822554	-0.6245266986	-0.003665191416	0.02290744635	0.013439035192	0.013133602574	0.0	-0.040011672958	-0.32248	-1.63792	-0.64264	0.35496	-0.66294	-0.13282	-0.4594219392	9.651449957099999	-0.5419743189	0.004734205579	0.011453723175	-0.013286318882999998	0.016240000000000004	-1.15043	-0.38773	-5.17792	-0.47072	12.70944	1.004406612385887	32.56
2958	315635	0	-49	1335	-57	-10	81	57	-526	-2814	-1096	-59	1349	-77	55	16	-115	605	-1140	-251	-176	-32	592	33.09	1.0007007155193683	32.04	1.0084184554650877	0.0	0.0	0.0	12.2435302734375	11	0	0.0	0.0	0.0	0.0	-0.0303866611697852	0.0	0.0	-0.1538942234489564	0.3876372611999999	0.4809573426	9.6335037876	0.0	0.0	0.0	0.0	7	0.0	0.0	-0.35174492220000003	9.583254513	-0.4091726646	-0.4235296002	9.683753062200001	-0.5527420206	-0.0030543261799999997	0.024740042057999997	0.017409659225999997	0.016798793989999998	0.004886921888	-0.035124751069999995	-0.30508	-1.63212	-0.63568	0.3509	-0.6612	-0.14558	-0.3876372612	9.6335037876	-0.4809573426	0.006872233904999999	0.014813481972999998	-0.008857545921999999	0.022909999999999986	-1.14666	-0.39063000000000003	-5.17792	-0.94144	17.41664	1.004559585492228	32.565
2959	315741	0	-54	1341	-63	-18	93	70	-526	-2814	-1096	-73	1344	-87	42	4	-83	605	-1140	-251	-160	-16	432	33.09	1.000740192450037	32.03	1.0084085862324204	0.0	0.0	0.0	12.2271728515625	11	0	0.0	0.0	0.0	0.0	-0.0425112937405251	0.0	0.0	-0.164575760530175	0.4558327053	0.538385085	9.6370930215	0.0	0.0	0.0	0.0	7	0.0	0.0	-0.3876372612	9.626325319800001	-0.45224347140000004	-0.5240281494	9.6478607232	-0.6245266986	-0.005497787124	0.028405233473999997	0.021380283259999997	0.012828169956	0.001221730472	-0.025350907293999997	-0.30508	-1.63212	-0.63568	0.3509	-0.6612	-0.14558	-0.4558327053	9.6370930215	-0.538385085	0.003665191416	0.014813481972999998	-0.001985312017	0.022909999999999986	-1.14666	-0.39063000000000003	-4.7072	-0.47072	12.70944	1.0045743893412287	32.56
2960	315846	0	-64	1347	-62	-24	81	65	-559	-2808	-1085	-78	1339	-81	39	-7	-91	596	-1139	-223	-224	-16	464	33.1	1.000552677029361	32.03	1.0081223784850728	0.0	0.0	0.0	12.2598876953125	11	0	0.0	0.0	0.0	0.0	0.0402526850457317	0.0	0.0	-0.0754827030954516	0.5096712137999999	0.5132604476999999	9.640682255399998	0.0	0.0	0.0	0.0	7	0.0	0.0	-0.4594219392	9.6693961266	-0.4450650036	-0.5599204884	9.6119683842	-0.5814558918	-0.007330382832	0.024740042057999997	0.01985312017	0.011911872102	-0.0021380283259999997	-0.027794368237999998	-0.32422	-1.62864	-0.6293	0.34568	-0.66062	-0.12934	-0.5096712138	9.640682255400002	-0.5132604477	0.0022907446349999996	0.011301006866	-0.003970624034	0.01072999999999999	-1.14463	-0.37932	-6.59008	-0.47072	13.65088	1.0043375277572169	32.565
2961	315952	0	-65	1346	-68	-19	70	50	-559	-2808	-1085	-76	1346	-96	31	-10	-118	596	-1139	-223	-224	64	512	33.12	1.0007105847520354	32.04	1.00820133234641	0.0	0.0	0.0	12.2435302734375	11	0	0.0	0.0	0.0	0.0	0.0301775989337	0.0	0.0	-0.0905853192930167	0.5060819798999999	0.5886343596	9.6622176588	0.0	0.0	0.0	0.0	7	0.0	0.0	-0.466600407	9.6622176588	-0.48813581040000004	-0.5455635528	9.6622176588	-0.6891329088	-0.005803219742	0.021380283259999997	0.0152716309	0.009468411158	-0.0030543261799999997	-0.036041048924	-0.32422	-1.62864	-0.6293	0.34568	-0.66062	-0.12934	-0.5060819799	9.6622176588	-0.5886343596	0.001832595708	0.009162978539999998	-0.010384709012	0.01072999999999999	-1.14463	-0.37932	-6.59008	1.88288	15.06304	1.0044559585492228	32.58
2962	316057	0	-58	1344	-58	-15	80	35	-546	-2822	-1086	-71	1346	-90	52	8	-121	598	-1142	-233	-144	-16	544	33.1	1.0008290155440414	32.03	1.0083000246730818	0.0	0.0	0.0	12.2598876953125	11	0	0.0	0.0	0.0	0.0	-0.0145380047825224	0.0	0.0	-0.1454998713742761	0.4630111730999999	0.5312066172	9.655039191	0.0	0.0	0.0	0.0	7	0.0	0.0	-0.4163511324	9.6478607232	-0.4163511324	-0.5096712138	9.6622176588	-0.646062102	-0.00458148927	0.024434609439999998	0.010690141629999999	0.015882496136	0.002443460944	-0.036957346778	-0.31668	-1.63676	-0.62988	0.34684	-0.66236	-0.13514	-0.4630111731	9.655039191	-0.5312066172000001	0.005650503433	0.013439035192	-0.013133602574000001	0.015079999999999982	-1.14956	-0.38251	-4.23648	-0.47072	16.00448	1.0045645201085616	32.565
2963	316163	0	-52	1344	-62	-2	76	51	-546	-2822	-1086	-62	1346	-90	47	1	-99	598	-1142	-233	-208	-16	448	33.13	1.0008882309400444	32.05	1.0082210708117445	0.0	0.0	0.0	12.2435302734375	11	0	0.0	0.0	0.0	0.0	-0.0298469221828913	0.0	0.0	-0.1613934213618519	0.4091726645999999	0.5455635527999999	9.655039191	0.0	0.0	0.0	0.0	7	0.0	0.0	-0.3732803256	9.6478607232	-0.4450650036	-0.4450650036	9.6622176588	-0.646062102	-0.000610865236	0.023212878968	0.015577063518	0.014355333045999999	0.000305432618	-0.030237829182	-0.31668	-1.63676	-0.62988	0.34684	-0.66236	-0.13514	-0.4091726646	9.655039191	-0.5455635528	0.006872233905	0.011759155793	-0.007330382832	0.015079999999999982	-1.14956	-0.38251	-6.11936	-0.47072	13.18016	1.0045546508758945	32.59
2964	316268	0	-61	1345	-57	-23	87	70	-553	-2819	-1087	-68	1343	-84	38	11	-80	644	-1150	-225	-288	48	512	33.11	1.0007895386133727	32.04	1.0083098939057489	0.0	0.0	0.0	12.2598876953125	11	0	0.0	0.0	0.0	0.0	-0.0666866097340742	0.0	0.0	-0.1946524950589969	0.4630111730999999	0.5060819798999999	9.6478607232	0.0	0.0	0.0	0.0	7	0.0	0.0	-0.43788653580000003	9.655039191	-0.4091726646	-0.48813581040000004	9.6406822554	-0.6029912952	-0.0070249502139999994	0.026572637766	0.021380283259999997	0.011606439484	0.003359758798	-0.024434609439999998	-0.32074	-1.63502	-0.63046	0.37352	-0.667	-0.1305	-0.46301117310000006	9.6478607232	-0.5060819799	0.002290744635	0.014966198282	-0.0015271630900000003	0.026389999999999997	-1.1510099999999999	-0.38048000000000004	-8.47296	1.41216	15.06304	1.004549716259561	32.575
2965	316373	0	-77	1342	-68	-15	107	69	-553	-2819	-1087	-80	1346	-88	38	24	-85	644	-1150	-225	-288	0	464	33.13	1.0007204539847028	32.05	1.0081717246484083	0.0	0.0	0.0	12.2762451171875	11	0	0.0	0.0	0.0	0.0	-0.0221266178582075	0.0	0.0	-0.1412131935928868	0.5635097223	0.5599204884	9.6478607232	0.0	0.0	0.0	0.0	7	0.0	0.0	-0.5527420206	9.6335037876	-0.48813581040000004	-0.574277424	9.6622176588	-0.6317051664000001	-0.00458148927	0.032681290126	0.021074850641999997	0.011606439484	0.007330382832	-0.02596177253	-0.32074	-1.63502	-0.63046	0.37352	-0.667	-0.1305	-0.5635097223000001	9.6478607232	-0.5599204884000001	0.0035124751069999997	0.020005836479	-0.002443460944000001	0.026389999999999997	-1.1510099999999999	-0.38048000000000004	-8.47296	0.0	13.65088	1.0044460893165557	32.59
2966	316479	0	-70	1343	-62	-18	80	41	-538	-2810	-1090	-86	1346	-92	41	3	-119	603	-1143	-242	-304	32	512	33.12	1.000434246237355	32.05	1.0080631630890695	0.0	0.0	0.0	12.2926025390625	11	0	0.0	0.0	0.0	0.0	0.0642673561410794	0.0	0.0	-0.0464634793795799	0.5599204884	0.5527420206	9.6514499571	0.0	0.0	0.0	0.0	7	0.0	0.0	-0.502492746	9.6406822554	-0.4450650036	-0.6173482308	9.6622176588	-0.6604190376	-0.005497787124	0.024434609439999998	0.012522737337999999	0.012522737337999999	0.000916297854	-0.036346481542	-0.31204	-1.6298	-0.6322	0.34974	-0.66294	-0.14036	-0.5599204884	9.651449957099999	-0.5527420206	0.0035124751069999993	0.012675453646999998	-0.011911872102000001	0.018850000000000006	-1.14637	-0.38628	-8.94368	0.94144	15.06304	1.0042487046632123	32.584999999999994
2967	316584	0	-62	1341	-62	-19	93	37	-538	-2810	-1090	-71	1347	-89	48	12	-129	603	-1143	-242	-176	-16	528	33.12	1.0007698001480383	32.05	1.0081223784850728	0.0	0.0	0.0	12.2762451171875	11	0	0.0	0.0	0.0	0.0	0.0327755441607958	0.0	0.0	-0.0893266992619973	0.4773681086999999	0.5419743188999999	9.6478607232	0.0	0.0	0.0	0.0	7	0.0	0.0	-0.4450650036	9.626325319800001	-0.4450650036	-0.5096712138	9.6693961266	-0.6388836342	-0.005803219742	0.028405233473999997	0.011301006866	0.014660765664	0.003665191416	-0.039400807722	-0.31204	-1.6298	-0.6322	0.34974	-0.66294	-0.14036	-0.4773681087	9.6478607232	-0.5419743189	0.004428772961	0.016035212445	-0.014049900427999999	0.018850000000000006	-1.14637	-0.38628	-5.17792	-0.47072	15.533760000000001	1.0044460893165557	32.584999999999994
2968	316690	0	-52	1346	-68	-26	104	61	-534	-2812	-1079	-64	1349	-88	49	13	-105	616	-1142	-234	-208	-16	448	33.13	1.0007204539847028	32.04	1.0081519861830743	0.0	0.0	0.0	12.2598876953125	11	0	0.0	0.0	0.0	0.0	0.0366980271477083	0.0	0.0	-0.09110707780769	0.4163511324	0.5599204884	9.6729853605	0.0	0.0	0.0	0.0	7	0.0	0.0	-0.3732803256	9.6622176588	-0.48813581040000004	-0.4594219392	9.683753062200001	-0.6317051664000001	-0.007941248068	0.031764992272	0.018631389698	0.014966198282	0.003970624034	-0.03207042489	-0.30972	-1.63096	-0.62582	0.35728	-0.66236	-0.13572	-0.4163511324	9.6729853605	-0.5599204884000001	0.003512475107	0.017867808153	-0.006719517595999999	0.023779999999999996	-1.14666	-0.38077000000000005	-6.11936	-0.47072	13.18016	1.0044362200838886	32.585
2969	316795	0	-60	1339	-71	-16	82	66	-534	-2812	-1079	-77	1350	-87	36	11	-82	616	-1142	-234	-192	32	432	33.14	1.0008586232420429	32.05	1.0081223784850728	0.0	0.0	0.0	12.2762451171875	11	0	0.0	0.0	0.0	0.0	0.0902985939041955	0.0	0.0	-0.0418343160530464	0.4917250442999999	0.5670989562	9.6514499571	0.0	0.0	0.0	0.0	7	0.0	0.0	-0.430708068	9.6119683842	-0.5096712138	-0.5527420206	9.69093153	-0.6245266986	-0.004886921888	0.025045474675999997	0.020158552788	0.010995574248	0.003359758798	-0.025045474675999997	-0.30972	-1.63096	-0.62582	0.35728	-0.66236	-0.13572	-0.49172504429999997	9.6514499571	-0.5670989562	0.00305432618	0.014202616736999999	-0.0024434609439999994	0.023779999999999996	-1.14666	-0.38077000000000005	-5.64864	0.94144	12.70944	1.0044905008635578	32.595
2970	316901	0	-74	1340	-72	-19	95	65	-552	-2820	-1085	-87	1346	-92	52	22	-92	624	-1127	-246	-304	-32	464	33.13	1.0006711078213668	32.05	1.0082901554404144	0.0	0.0	0.0	12.2598876953125	11	0	0.0	0.0	0.0	0.0	0.0534306774401971	0.0	0.0	-0.0905635535563892	0.5778666579	0.5886343596	9.6406822554	0.0	0.0	0.0	0.0	7	0.0	0.0	-0.5312066172000001	9.619146852	-0.5168496816	-0.6245266986	9.6622176588	-0.6604190376	-0.005803219742	0.029016098709999997	0.01985312017	0.015882496136	0.006719517596	-0.028099800855999998	-0.32016	-1.6356	-0.6293	0.36192	-0.65366	-0.14268	-0.5778666579	9.6406822554	-0.5886343596	0.005039638197	0.017867808152999997	-0.004123340343	0.02088000000000001	-1.14463	-0.38599	-8.94368	-0.94144	13.65088	1.0044806316308907	32.59
2971	317006	0	-70	1347	-68	-27	96	44	-552	-2820	-1085	-84	1349	-91	43	19	-122	624	-1127	-246	-224	32	512	33.14	1.0008487540093758	32.05	1.008023686158401	0.0	0.0	0.0	12.2762451171875	11	0	0.0	0.0	0.0	0.0	0.0560236520578628	0.0	0.0	-0.0926461823513219	0.5527420206	0.5706881900999999	9.676574594399998	0.0	0.0	0.0	0.0	7	0.0	0.0	-0.502492746	9.6693961266	-0.48813581040000004	-0.6029912952	9.683753062200001	-0.6532405698	-0.008246680686	0.029321531328	0.013439035192	0.013133602574	0.005803219742	-0.037262779396	-0.32016	-1.6356	-0.6293	0.36192	-0.65366	-0.14268	-0.5527420206	9.676574594400002	-0.5706881901	0.0024434609440000003	0.017562375535	-0.011911872102	0.02088000000000001	-1.14463	-0.38599	-6.59008	0.94144	15.06304	1.0044362200838886	32.595
2972	317112	0	-61	1344	-69	-19	100	37	-537	-2815	-1057	-73	1350	-95	46	9	-119	607	-1158	-240	-176	32	512	33.12	1.0007698001480383	32.05	1.0082802862077471	0.0	0.0	0.0	12.2598876953125	11	0	0.0	0.0	0.0	0.0	0.0052325980044505	0.0	0.0	-0.1512072872119868	0.4809573426	0.5886343595999999	9.6693961266	0.0	0.0	0.0	0.0	7	0.0	0.0	-0.43788653580000003	9.6478607232	-0.4953142782	-0.5240281494	9.69093153	-0.681954441	-0.005803219742	0.0305432618	0.011301006866	0.014049900427999999	0.002748893562	-0.036346481542	-0.31146	-1.6327	-0.61306	0.35206	-0.67164	-0.1392	-0.4809573426	9.6693961266	-0.5886343596	0.004123340343	0.016646077680999998	-0.012522737338	0.020299999999999985	-1.15217	-0.37613	-5.17792	0.94144	15.06304	1.0045250431778927	32.584999999999994
2973	317217	0	-55	1342	-63	-20	86	63	-546	-2820	-1105	-75	1347	-89	54	8	-105	607	-1158	-240	-272	0	448	33.14	1.0006908462867012	32.06	1.0082506785097458	0.0	0.0	0.0	12.2762451171875	11	0	0.0	0.0	0.0	0.0	0.0667707195481413	0.0	0.0	-0.0892539812219485	0.4666004069999999	0.5455635528	9.6514499571	0.0	0.0	0.0	0.0	7	0.0	0.0	-0.394815729	9.6335037876	-0.45224347140000004	-0.538385085	9.6693961266	-0.6388836342	-0.0061086523599999994	0.026267205148	0.019242254934	0.016493361372	0.002443460944	-0.03207042489	-0.31668	-1.6356	-0.6409	0.35206	-0.67164	-0.1392	-0.46660040700000005	9.6514499571	-0.5455635528	0.005192354505999999	0.014355333046	-0.006414084977999999	0.017689999999999984	-1.15362	-0.39005	-8.00224	0.0	13.18016	1.0044707623982236	32.6
2974	317322	0	-67	1341	-70	-28	77	76	-546	-2820	-1105	-75	1345	-88	30	-5	-89	594	-1137	-240	-272	-80	544	33.15	1.0006020231926969	32.07	1.0082210708117445	0.0	0.0	0.0	12.2762451171875	11	0	0.0	0.0	0.0	0.0	0.1313303935797163	0.0	0.0	-0.0272349076867619	0.5096712137999999	0.5670989562	9.640682255399998	0.0	0.0	0.0	0.0	7	0.0	0.0	-0.4809573426	9.626325319800001	-0.502492746	-0.538385085	9.655039191	-0.6317051664000001	-0.008552113303999999	0.023518311586	0.023212878968	0.00916297854	-0.0015271630899999999	-0.027183503002	-0.31668	-1.6356	-0.6409	0.34452	-0.65946	-0.1392	-0.5096712138	9.640682255400002	-0.5670989562000001	0.0003054326180000006	0.010995574248	-0.001985312017	0.013919999999999988	-1.14753	-0.39005	-8.00224	-2.3536	16.00448	1.0044115470022206	32.61
2975	317428	0	-71	1336	-70	-26	95	62	-552	-2825	-1120	-80	1346	-89	32	12	-95	594	-1137	-240	-240	-16	512	33.14	1.000740192450037	32.07	1.0082704169750802	0.0	0.0	0.0	12.2598876953125	11	0	0.0	0.0	0.0	0.0	0.1434739485464777	0.0	0.0	-0.0274357067691309	0.5419743188999999	0.5706881900999999	9.6263253198	0.0	0.0	0.0	0.0	7	0.0	0.0	-0.5096712138	9.590432980800001	-0.502492746	-0.574277424	9.6622176588	-0.6388836342	-0.007941248068	0.029016098709999997	0.018936822316	0.009773843776	0.003665191416	-0.029016098709999997	-0.32016	-1.6385	-0.6496	0.34452	-0.65946	-0.1392	-0.5419743189	9.6263253198	-0.5706881901	0.000916297854	0.016340645063	-0.005039638196999999	0.012179999999999996	-1.1489800000000001	-0.3944	-7.0608	-0.47072	15.06304	1.0045053047125587	32.605000000000004
2976	317533	0	-70	1345	-66	-13	84	44	-552	-2825	-1120	-87	1349	-98	39	15	-101	613	-1142	-247	-240	-16	592	33.14	1.000740192450037	32.05	1.0080829015544042	0.0	0.0	0.0	12.2435302734375	11	0	0.0	0.0	0.0	0.0	0.0786843101597374	0.0	0.0	-0.1045769084854326	0.5635097223	0.5886343596	9.6693961266	0.0	0.0	0.0	0.0	7	0.0	0.0	-0.502492746	9.655039191	-0.4737788748	-0.6245266986	9.683753062200001	-0.7034898444000001	-0.003970624034	0.025656339912	0.013439035192	0.011911872102	0.00458148927	-0.030848694418	-0.32016	-1.6385	-0.6496	0.35554	-0.66236	-0.14326	-0.5635097223000001	9.6693961266	-0.5886343596000001	0.003970624034	0.015118914591	-0.008704829612999999	0.01769000000000001	-1.15043	-0.39642999999999995	-7.0608	-0.47072	17.41664	1.0044115470022206	32.595
2977	317639	0	-60	1351	-71	-16	95	42	-542	-2818	-1088	-68	1346	-88	50	7	-110	613	-1142	-247	-192	-48	512	33.14	1.000680977054034	32.05	1.0081223784850728	0.0	0.0	0.0	12.2598876953125	11	0	0.0	0.0	0.0	0.0	0.1836632432864038	0.0	0.0	0.001008801020948	0.4594219391999999	0.5706881900999999	9.6801638283	0.0	0.0	0.0	0.0	7	0.0	0.0	-0.430708068	9.6981099978	-0.5096712138	-0.48813581040000004	9.6622176588	-0.6317051664000001	-0.004886921888	0.029016098709999997	0.012828169956	0.0152716309	0.0021380283259999997	-0.033597587979999996	-0.31436000000000003	-1.6344400000000001	-0.63104	0.35554	-0.66236	-0.14326	-0.4594219392	9.6801638283	-0.5706881901	0.005192354506	0.015577063518	-0.010384709011999997	0.020589999999999997	-1.1484	-0.38715	-5.64864	-1.41216	15.06304	1.0044016777695535	32.595
2978	317744	0	-54	1338	-72	-22	96	62	-542	-2818	-1088	-67	1347	-94	45	12	-107	614	-1128	-251	-240	32	448	33.15	1.0008092770787071	32.06	1.0083098939057489	0.0	0.0	0.0	12.2598876953125	11	0	0.0	0.0	0.0	0.0	0.2680426602490789	0.0	0.0	0.0674808269198783	0.4342973018999999	0.5958128274	9.6370930215	0.0	0.0	0.0	0.0	7	0.0	0.0	-0.3876372612	9.6047899164	-0.5168496816	-0.4809573426	9.6693961266	-0.6747759732	-0.006719517596	0.029321531328	0.018936822316	0.01374446781	0.003665191416	-0.032681290126	-0.31436000000000003	-1.6344400000000001	-0.63104	0.35612	-0.65424	-0.14558	-0.43429730190000004	9.6370930215	-0.5958128274000001	0.0035124751069999997	0.016493361372	-0.006872233904999999	0.020879999999999982	-1.1443400000000001	-0.38831000000000004	-7.0608	0.94144	13.18016	1.004559585492228	32.605000000000004
2979	317850	0	-67	1344	-65	-31	106	81	-529	-2818	-1077	-78	1345	-85	48	26	-82	614	-1128	-251	-240	64	480	33.14	1.00079940784604	32.05	1.0080829015544042	0.0	0.0	0.0	12.2435302734375	11	0	0.0	0.0	0.0	0.0	0.3280218156020392	0.0	0.0	0.1073901633275989	0.5204389155	0.5383850849999999	9.6514499571	0.0	0.0	0.0	0.0	7	0.0	0.0	-0.4809573426	9.6478607232	-0.466600407	-0.5599204884	9.655039191	-0.610169763	-0.009468411158	0.032375857508	0.024740042057999997	0.014660765664	0.007941248068	-0.025045474675999997	-0.30682	-1.6344400000000001	-0.62466	0.35612	-0.65424	-0.14558	-0.5204389155	9.6514499571	-0.538385085	0.002596177253	0.020158552788	-0.00015271630899999986	0.024650000000000005	-1.1443400000000001	-0.38512	-7.0608	1.88288	14.1216	1.004441154700222	32.595
2980	317955	0	-79	1341	-63	-16	103	60	-529	-2818	-1077	-85	1351	-93	43	25	-92	608	-1138	-221	-224	-16	512	33.16	1.0007895386133727	32.07	1.0080631630890695	0.0	0.0	0.0	12.2598876953125	11	0	0.0	0.0	0.0	0.0	0.3729714320478167	0.0	0.0	0.126656755798896	0.5886343595999999	0.5599204884	9.6622176588	0.0	0.0	0.0	0.0	7	0.0	0.0	-0.5670989562000001	9.626325319800001	-0.45224347140000004	-0.610169763	9.6981099978	-0.6675975054000001	-0.004886921888	0.031459559654	0.01832595708	0.013133602574	0.00763581545	-0.028099800855999998	-0.30682	-1.6344400000000001	-0.62466	0.35264	-0.66004	-0.12818	-0.5886343596000001	9.6622176588	-0.5599204884000001	0.004123340343	0.019547687552	-0.004886921887999999	0.022910000000000014	-1.14724	-0.37642	-6.59008	-0.47072	15.06304	1.004426350851221	32.614999999999995
2981	318061	0	-68	1345	-73	-14	93	52	-514	-2814	-1104	-81	1347	-95	43	4	-111	608	-1138	-221	-240	80	448	33.15	1.0006513693560326	32.08	1.008142116950407	0.0	0.0	0.0	12.2598876953125	11	0	0.0	0.0	0.0	0.0	0.4393392862311127	0.0	0.0	0.1660652074972903	0.5347958510999999	0.6029912951999999	9.6622176588	0.0	0.0	0.0	0.0	7	0.0	0.0	-0.48813581040000004	9.655039191	-0.5240281494	-0.5814558918	9.6693961266	-0.681954441	-0.004276056651999999	0.028405233473999997	0.015882496136	0.013133602574	0.001221730472	-0.033903020597999996	-0.29812	-1.63212	-0.64032	0.35264	-0.66004	-0.12818	-0.5347958511	9.6622176588	-0.6029912952	0.004428772961	0.014813481972999998	-0.009010262230999998	0.027260000000000006	-1.14608	-0.38425	-7.0608	2.3536	13.18016	1.0043967431532197	32.614999999999995
2982	318166	0	-59	1342	-68	-12	93	47	-514	-2814	-1104	-71	1344	-91	45	22	-119	606	-1132	-240	-256	32	368	33.16	1.000838884776709	32.08	1.008023686158401	0.0	0.0	0.0	12.2598876953125	11	0	0.0	0.0	0.0	0.0	0.4515971150255327	0.0	0.0	0.1455674149689415	0.4666004069999999	0.5706881900999999	9.640682255399998	0.0	0.0	0.0	0.0	7	0.0	0.0	-0.4235296002	9.6335037876	-0.48813581040000004	-0.5096712138	9.6478607232	-0.6532405698	-0.003665191416	0.028405233473999997	0.014355333045999999	0.01374446781	0.006719517596	-0.036346481542	-0.29812	-1.63212	-0.64032	0.35148	-0.65656	-0.1392	-0.46660040700000005	9.640682255400002	-0.5706881901	0.005039638197	0.017562375534999997	-0.010995574248	0.02668000000000001	-1.1443400000000001	-0.38976	-7.53152	0.94144	10.82656	1.004431285467555	32.62
2983	318271	0	-50	1346	-61	-17	114	65	-532	-2803	-1065	-70	1345	-90	37	30	-95	606	-1132	-240	-240	64	432	33.15	1.0006020231926969	32.08	1.008448063163089	0.0	0.0	0.0	12.2598876953125	11	0	0.0	0.0	0.0	0.0	0.3865830841872604	0.0	0.0	0.0464383543917262	0.4307080679999999	0.5419743188999999	9.658628424899998	0.0	0.0	0.0	0.0	7	0.0	0.0	-0.35892339	9.6622176588	-0.43788653580000003	-0.502492746	9.655039191	-0.646062102	-0.005192354505999999	0.034819318451999995	0.01985312017	0.011301006866	0.00916297854	-0.029016098709999997	-0.30856	-1.62574	-0.6177	0.35148	-0.65656	-0.1392	-0.43070806800000005	9.6586284249	-0.5419743189	0.00305432618	0.021991148495999997	-0.004581489269999999	0.021460000000000007	-1.14115	-0.37845	-7.0608	1.88288	12.70944	1.004525043177893	32.614999999999995
2984	318377	0	-59	1342	-71	-36	94	80	-532	-2803	-1065	-78	1344	-88	46	25	-87	594	-1142	-247	-240	32	512	33.15	1.0006711078213668	32.09	1.0082704169750802	0.0	0.0	0.0	12.2271728515625	11	0	0.0	0.0	0.0	0.0	0.2953683958364166	0.0	0.0	-0.0658011939679732	0.4917250442999999	0.5706881900999999	9.640682255399998	0.0	0.0	0.0	0.0	7	0.0	0.0	-0.4235296002	9.6335037876	-0.5096712138	-0.5599204884	9.6478607232	-0.6317051664000001	-0.010995574248	0.028710666091999997	0.024434609439999998	0.014049900427999999	0.00763581545	-0.026572637766	-0.30856	-1.62574	-0.6177	0.34452	-0.66236	-0.14326	-0.49172504429999997	9.640682255400002	-0.5706881901	0.0015271630899999994	0.018173240771	-0.0010690141630000007	0.017979999999999996	-1.14405	-0.38048000000000004	-7.0608	0.94144	15.06304	1.0044707623982236	32.620000000000005
2985	318482	0	-76	1341	-72	-17	81	63	-546	-2815	-1124	-84	1347	-99	39	16	-93	594	-1142	-247	-208	64	544	33.16	1.0008487540093758	32.08	1.0079842092277325	0.0	0.0	0.0	12.2598876953125	11	0	0.0	0.0	0.0	0.0	0.3363167167139859	0.0	0.0	-0.029747124491639	0.5742774239999999	0.6137589968999999	9.6478607232	0.0	0.0	0.0	0.0	7	0.0	0.0	-0.5455635528	9.626325319800001	-0.5168496816	-0.6029912952	9.6693961266	-0.7106683122	-0.005192354505999999	0.024740042057999997	0.019242254934	0.011911872102	0.004886921888	-0.028405233473999997	-0.31668	-1.6327	-0.65192	0.34452	-0.66236	-0.14326	-0.574277424	9.6478607232	-0.6137589969	0.003359758798	0.014813481972999998	-0.004581489269999999	0.013919999999999988	-1.14753	-0.39759	-6.11936	1.88288	16.00448	1.0044164816185541	32.62
2986	318588	0	-78	1344	-72	-19	90	41	-546	-2815	-1124	-93	1346	-94	51	13	-111	627	-1130	-233	-192	-16	432	33.15	1.0006513693560326	32.08	1.008142116950407	0.0	0.0	0.0	12.2598876953125	11	0	0.0	0.0	0.0	0.0	0.3489145040545757	0.0	0.0	-0.0303064935891447	0.6137589968999999	0.5958128274	9.655039191	0.0	0.0	0.0	0.0	7	0.0	0.0	-0.5599204884	9.6478607232	-0.5168496816	-0.6675975054000001	9.6622176588	-0.6747759732	-0.005803219742	0.02748893562	0.012522737337999999	0.015577063518	0.003970624034	-0.033903020597999996	-0.31668	-1.6327	-0.65192	0.36366	-0.6554	-0.13514	-0.6137589969	9.655039191	-0.5958128274000001	0.004886921888	0.015729779827	-0.010690141629999999	0.023489999999999983	-1.14405	-0.39353000000000005	-5.64864	-0.47072	12.70944	1.0043967431532197	32.614999999999995
2987	318693	0	-68	1342	-63	-19	104	44	-558	-2817	-1108	-79	1345	-84	41	29	-115	627	-1130	-233	-208	-16	512	33.15	1.0005625462620282	32.08	1.0083592400690846	0.0	0.0	0.0	12.2598876953125	11	0	0.0	0.0	0.0	0.0	0.3407273531423171	0.0	0.0	-0.0530110534006911	0.5276173833	0.5276173833	9.6442714893	0.0	0.0	0.0	0.0	7	0.0	0.0	-0.48813581040000004	9.6335037876	-0.45224347140000004	-0.5670989562000001	9.655039191	-0.6029912952	-0.005803219742	0.031764992272	0.013439035192	0.012522737337999999	0.008857545922	-0.035124751069999995	-0.32364	-1.63386	-0.64264	0.36366	-0.6554	-0.13514	-0.5276173833000001	9.6442714893	-0.5276173833000001	0.0033597587979999994	0.020311269096999998	-0.010842857938999997	0.02001	-1.14463	-0.38889	-6.11936	-0.47072	15.06304	1.0044608931655565	32.614999999999995
2988	318799	0	-65	1348	-62	-34	110	63	-530	-2822	-1104	-71	1345	-90	45	21	-101	599	-1130	-256	-304	-16	480	33.15	1.0006612385886997	32.1	1.0081815938810756	0.0	0.0	0.0	12.2598876953125	11	0	0.0	0.0	0.0	0.0	0.3119367550896898	0.0	0.0	-0.090761968097011	0.4881358103999999	0.5455635527999999	9.6658068927	0.0	0.0	0.0	0.0	7	0.0	0.0	-0.466600407	9.6765745944	-0.4450650036	-0.5096712138	9.655039191	-0.646062102	-0.010384709011999999	0.033597587979999996	0.019242254934	0.01374446781	0.006414084978	-0.030848694418	-0.3074	-1.63676	-0.64032	0.34742	-0.6554	-0.14848	-0.4881358104	9.665806892700001	-0.5455635528	0.0016798793990000001	0.020005836479	-0.005803219742	0.02001	-1.14608	-0.3944	-8.94368	-0.47072	14.1216	1.0044214162348877	32.625
2989	318904	0	-72	1343	-70	-31	102	77	-530	-2822	-1104	-81	1349	-92	49	20	-81	599	-1130	-256	-192	64	512	33.17	1.0006513693560326	32.09	1.008319763138416	0.0	0.0	0.0	12.2598876953125	11	0	0.0	0.0	0.0	0.0	0.2928400426650246	0.0	0.0	-0.1177152141609438	0.5491527866999999	0.5814558917999999	9.6622176588	0.0	0.0	0.0	0.0	7	0.0	0.0	-0.5168496816	9.6406822554	-0.502492746	-0.5814558918	9.683753062200001	-0.6604190376	-0.009468411158	0.031154127036	0.023518311586	0.014966198282	0.0061086523599999994	-0.024740042057999997	-0.3074	-1.63676	-0.64032	0.34742	-0.6554	-0.14848	-0.5491527867	9.6622176588	-0.5814558918	0.002748893562	0.018631389698	-0.0006108652359999994	0.02001	-1.14608	-0.3944	-5.64864	1.88288	15.06304	1.0044855662472243	32.63
2990	319009	0	-76	1343	-71	-24	95	71	-547	-2825	-1071	-86	1348	-92	39	18	-92	607	-1135	-214	-192	-64	464	33.18	1.0007698001480383	32.09	1.0081519861830743	0.0	0.0	0.0	12.2762451171875	11	0	0.0	0.0	0.0	0.0	0.303367726388457	0.0	0.0	-0.1118830346101357	0.5814558917999999	0.5850451257	9.6586284249	0.0	0.0	0.0	0.0	7	0.0	0.0	-0.5455635528	9.6406822554	-0.5096712138	-0.6173482308	9.6765745944	-0.6604190376	-0.007330382832	0.029016098709999997	0.021685715878	0.011911872102	0.005497787124	-0.028099800855999998	-0.31726	-1.6385	-0.62118	0.35206	-0.6583	-0.12412	-0.5814558918	9.6586284249	-0.5850451257	0.0022907446349999996	0.017256942916999998	-0.0032070424889999987	0.0174	-1.1484	-0.37265	-5.64864	-1.88288	13.65088	1.0044608931655563	32.635000000000005
2991	319115	0	-83	1342	-67	-21	104	46	-547	-2825	-1071	-93	1347	-92	51	10	-102	607	-1135	-214	-208	-16	480	33.16	1.0005822847273624	32.09	1.0082112015790772	0.0	0.0	0.0	12.2598876953125	11	0	0.0	0.0	0.0	0.0	0.2670879172190636	0.0	0.0	-0.1527907778010617	0.6317051664	0.5706881900999999	9.6514499571	0.0	0.0	0.0	0.0	7	0.0	0.0	-0.5958128274000001	9.6335037876	-0.4809573426	-0.6675975054000001	9.6693961266	-0.6604190376	-0.006414084978	0.031764992272	0.014049900427999999	0.015577063518	0.0030543261799999997	-0.031154127036	-0.31726	-1.6385	-0.62118	0.35206	-0.6583	-0.12412	-0.6317051664000001	9.6514499571	-0.5706881901	0.004581489269999999	0.017409659225999997	-0.008552113303999999	0.0174	-1.1484	-0.37265	-6.11936	-0.47072	14.1216	1.0043967431532197	32.625
2992	319220	0	-70	1343	-60	-19	99	41	-533	-2803	-1109	-80	1351	-86	44	21	-117	626	-1128	-230	-160	-16	480	33.18	1.0007204539847028	32.11	1.0081519861830743	0.0	0.0	0.0	12.2271728515625	11	0	0.0	0.0	0.0	0.0	0.29530178093194	0.0	0.0	-0.1226760307274077	0.5383850849999999	0.5240281493999999	9.6693961266	0.0	0.0	0.0	0.0	7	0.0	0.0	-0.502492746	9.6406822554	-0.430708068	-0.574277424	9.6981099978	-0.6173482308	-0.005803219742	0.030237829182	0.012522737337999999	0.013439035192	0.006414084978	-0.035735616306	-0.30914	-1.62574	-0.64322	0.36308	-0.65424	-0.1334	-0.538385085	9.669396126599999	-0.5240281494	0.003817907725	0.01832595708	-0.011606439484000001	0.026969999999999994	-1.13999	-0.38831	-4.7072	-0.47072	14.1216	1.0044362200838886	32.644999999999996
2993	319326	0	-65	1339	-65	-23	102	64	-533	-2803	-1109	-73	1342	-82	35	21	-99	626	-1128	-230	-272	-32	480	33.18	1.000927707870713	32.09	1.008329632371083	0.0	0.0	0.0	12.2598876953125	11	0	0.0	0.0	0.0	0.0	0.1550046408421037	0.0	0.0	-0.2690647570743418	0.4953142781999999	0.5276173833	9.622736085899998	0.0	0.0	0.0	0.0	7	0.0	0.0	-0.466600407	9.6119683842	-0.466600407	-0.5240281494	9.6335037876	-0.5886343596	-0.0070249502139999994	0.031154127036	0.019547687552	0.010690141629999999	0.006414084978	-0.030237829182	-0.30914	-1.62574	-0.64322	0.36308	-0.65424	-0.1334	-0.49531427819999996	9.622736085900002	-0.5276173833	0.0018325957079999996	0.018784106007	-0.005345070815	0.026969999999999994	-1.13999	-0.38831	-8.00224	-0.94144	14.1216	1.0046286701208982	32.635000000000005
2994	319431	0	-70	1342	-66	-34	107	81	-524	-2818	-1066	-83	1354	-87	33	28	-75	587	-1137	-244	-176	-16	496	33.18	1.000621761658031	32.11	1.0080335553910684	0.0	0.0	0.0	12.2762451171875	11	0	0.0	0.0	0.0	0.0	0.1445925656622494	0.0	0.0	-0.2654199595375145	0.5491527866999999	0.5491527867	9.676574594399998	0.0	0.0	0.0	0.0	7	0.0	0.0	-0.502492746	9.6335037876	-0.4737788748	-0.5958128274000001	9.719645401200001	-0.6245266986	-0.010384709011999999	0.032681290126	0.024740042057999997	0.010079276394	0.008552113303999999	-0.02290744635	-0.30392	-1.6344400000000001	-0.61828	0.34046	-0.65946	-0.14152	-0.5491527867000001	9.676574594400002	-0.5491527867	-0.00015271630899999986	0.020616701714999998	0.0009162978539999991	0.01826999999999998	-1.1469500000000001	-0.3799	-5.17792	-0.47072	14.59232	1.0043276585245497	32.644999999999996
2995	319537	0	-79	1340	-67	-6	112	67	-524	-2818	-1066	-88	1344	-90	50	28	-83	604	-1137	-232	-272	-32	480	33.18	1.00073032321737	32.1	1.0082802862077471	0.0	0.0	0.0	12.2598876953125	11	0	0.0	0.0	0.0	0.0	0.1104665174327876	0.0	0.0	-0.2873443366950819	0.5994020613	0.5635097223	9.6335037876	0.0	0.0	0.0	0.0	7	0.0	0.0	-0.5670989562000001	9.619146852	-0.4809573426	-0.6317051664000001	9.6478607232	-0.646062102	-0.001832595708	0.034208453215999995	0.020463985405999998	0.0152716309	0.008552113303999999	-0.025350907293999997	-0.30392	-1.6344400000000001	-0.61828	0.35032	-0.65946	-0.13456	-0.5994020613000001	9.6335037876	-0.5635097223000001	0.006719517596	0.021380283259999997	-0.0024434609439999994	0.0232	-1.1469500000000001	-0.37642000000000003	-8.00224	-0.94144	14.1216	1.0045053047125587	32.64
2996	319642	0	-78	1342	-57	-16	97	51	-535	-2843	-1090	-95	1347	-86	47	15	-108	604	-1137	-232	-272	80	512	33.18	1.0006711078213668	32.11	1.0080927707870713	0.0	0.0	0.0	12.2762451171875	11	0	0.0	0.0	0.0	0.0	0.2181080941360681	0.0	0.0	-0.162101331127329	0.6209374646999999	0.5132604476999999	9.6514499571	0.0	0.0	0.0	0.0	7	0.0	0.0	-0.5599204884	9.6335037876	-0.4091726646	-0.681954441	9.6693961266	-0.6173482308	-0.004886921888	0.029626963946	0.015577063518	0.014355333045999999	0.00458148927	-0.032986722744	-0.3103	-1.64894	-0.6322	0.35032	-0.65946	-0.13456	-0.6209374647	9.6514499571	-0.5132604477	0.004734205578999999	0.017104226608	-0.008704829612999999	0.02001	-1.1542000000000001	-0.38338	-8.00224	2.3536	15.06304	1.004381939304219	32.644999999999996
2997	319748	0	-67	1343	-53	-19	98	45	-535	-2843	-1090	-71	1351	-76	38	26	-115	600	-1122	-205	-272	32	560	33.18	1.00073032321737	32.11	1.0080335553910684	0.0	0.0	0.0	12.2926025390625	11	0	0.0	0.0	0.0	0.0	0.2458271629696767	0.0	0.0	-0.1309691528789287	0.4953142781999999	0.4630111730999999	9.6693961266	0.0	0.0	0.0	0.0	7	0.0	0.0	-0.4809573426	9.6406822554	-0.3804587934	-0.5096712138	9.6981099978	-0.5455635528	-0.005803219742	0.029932396564	0.01374446781	0.011606439484	0.007941248068	-0.035124751069999995	-0.3103	-1.64894	-0.6322	0.348	-0.65076	-0.1189	-0.4953142782	9.669396126599999	-0.4630111731	0.002901609871	0.018936822316	-0.010690141629999997	0.018849999999999978	-1.14985	-0.37555	-8.00224	0.94144	16.4752	1.0043819393042193	32.644999999999996
2998	319853	0	-58	1345	-62	-37	100	59	-542	-2826	-1064	-70	1344	-96	28	26	-104	600	-1122	-205	-96	-16	416	33.19	1.000740192450037	32.12	1.008329632371083	0.0	0.0	0.0	12.2435302734375	11	0	0.0	0.0	0.0	0.0	0.123616965978294	0.0	0.0	-0.2552465400955423	0.4594219391999999	0.5670989562	9.6514499571	0.0	0.0	0.0	0.0	7	0.0	0.0	-0.4163511324	9.655039191	-0.4450650036	-0.502492746	9.6478607232	-0.6891329088	-0.011301006866	0.0305432618	0.018020524462	0.008552113303999999	0.007941248068	-0.031764992272	-0.31436000000000003	-1.63908	-0.61712	0.348	-0.65076	-0.1189	-0.4594219392	9.6514499571	-0.5670989562	-0.0013744467810000004	0.019242254934	-0.006872233904999999	0.016819999999999974	-1.14492	-0.36801	-2.82432	-0.47072	12.23872	1.00453491241056	32.655
2999	319958	0	-68	1339	-73	-16	106	68	-542	-2826	-1064	-76	1347	-91	43	25	-78	621	-1132	-211	-192	80	432	33.2	1.000552677029361	32.11	1.0080927707870713	0.0	0.0	0.0	12.2762451171875	11	0	0.0	0.0	0.0	0.0	0.2006574995496305	0.0	0.0	-0.1602719770364767	0.5168496815999999	0.5886343595999999	9.640682255399998	0.0	0.0	0.0	0.0	7	0.0	0.0	-0.48813581040000004	9.6119683842	-0.5240281494	-0.5455635528	9.6693961266	-0.6532405698	-0.004886921888	0.032375857508	0.020769418023999998	0.013133602574	0.00763581545	-0.023823744204	-0.31436000000000003	-1.63908	-0.61712	0.36018	-0.65656	-0.12238	-0.5168496816	9.640682255400002	-0.5886343596	0.004123340343	0.020005836479	-0.0015271630900000003	0.022909999999999986	-1.14782	-0.36975	-5.64864	2.3536	12.70944	1.0043227239082162	32.655
3000	320064	0	-77	1345	-70	-19	88	75	-530	-2827	-1071	-86	1342	-93	65	15	-91	621	-1132	-211	-240	80	496	33.2	1.0007105847520354	32.12	1.0081717246484083	0.0	0.0	0.0	12.2926025390625	11	0	0.0	0.0	0.0	0.0	0.2438249622315698	0.0	0.0	-0.1141730470454013	0.5850451257	0.5850451257	9.6442714893	0.0	0.0	0.0	0.0	7	0.0	0.0	-0.5527420206	9.655039191	-0.502492746	-0.6173482308	9.6335037876	-0.6675975054000001	-0.005803219742	0.026878070384	0.02290744635	0.01985312017	0.00458148927	-0.027794368237999998	-0.3074	-1.6396600000000001	-0.62118	0.36018	-0.65656	-0.12238	-0.5850451257	9.6442714893	-0.5850451257	0.0070249502139999994	0.015729779827	-0.0024434609439999994	0.026389999999999997	-1.14811	-0.37178	-7.0608	2.3536	14.59232	1.0044411547002219	32.66
3001	320169	0	-77	1342	-63	-8	102	49	-530	-2827	-1071	-85	1350	-81	58	27	-108	618	-1145	-209	-208	80	544	33.2	1.0007105847520354	32.11	1.0082605477424131	0.0	0.0	0.0	12.2598876953125	11	0	0.0	0.0	0.0	0.0	0.1029840012162363	0.0	0.0	-0.2607328524975986	0.5814558917999999	0.5168496815999999	9.6622176588	0.0	0.0	0.0	0.0	7	0.0	0.0	-0.5527420206	9.6335037876	-0.45224347140000004	-0.610169763	9.69093153	-0.5814558918	-0.002443460944	0.031154127036	0.014966198282	0.017715091844	0.008246680686	-0.032986722744	-0.3074	-1.6396600000000001	-0.62118	0.35844	-0.6641	-0.12122	-0.5814558918	9.6622176588	-0.5168496816	0.007635815450000001	0.019700403861	-0.009010262230999998	0.025519999999999987	-1.15188	-0.3712	-6.11936	2.3536	16.00448	1.0044855662472243	32.655
3002	320275	0	-60	1344	-56	-23	96	40	-547	-2841	-1088	-78	1347	-83	46	22	-100	618	-1145	-209	-288	16	544	33.2	1.0006513693560326	32.12	1.0082309400444116	0.0	0.0	0.0	12.2762451171875	11	0	0.0	0.0	0.0	0.0	0.136629482503752	0.0	0.0	-0.2139777114790662	0.4953142781999999	0.4989035120999999	9.658628424899998	0.0	0.0	0.0	0.0	7	0.0	0.0	-0.430708068	9.6478607232	-0.40199419680000004	-0.5599204884	9.6693961266	-0.5958128274000001	-0.0070249502139999994	0.029321531328	0.012217304719999999	0.014049900427999999	0.006719517596	-0.0305432618	-0.31726	-1.64778	-0.63104	0.35844	-0.6641	-0.12122	-0.49531427819999996	9.658628424900002	-0.49890351210000006	0.0035124751069999997	0.018020524462	-0.00916297854	0.020589999999999997	-1.15594	-0.37613	-8.47296	0.47072	16.00448	1.004441154700222	32.66
3003	320380	0	-58	1344	-64	-33	105	61	-547	-2841	-1088	-65	1347	-95	27	21	-106	599	-1139	-234	-176	16	464	33.2	1.0006612385886997	32.13	1.0079842092277325	0.0	0.0	0.0	12.2762451171875	11	0	0.0	0.0	0.0	0.0	0.1864498463933753	0.0	0.0	-0.1528499521073804	0.4414757696999999	0.5706881900999999	9.658628424899998	0.0	0.0	0.0	0.0	7	0.0	0.0	-0.4163511324	9.6478607232	-0.4594219392	-0.466600407	9.6693961266	-0.681954441	-0.010079276394	0.03207042489	0.018631389698	0.008246680686	0.006414084978	-0.032375857508	-0.31726	-1.64778	-0.63104	0.34742	-0.66062	-0.13572	-0.4414757697	9.658628424900002	-0.5706881901	-0.000916297854	0.019242254934	-0.006872233904999999	0.01508000000000001	-1.1542	-0.38338000000000005	-5.17792	0.47072	13.65088	1.0043227239082162	32.665000000000006
3004	320486	0	-61	1345	-77	-18	99	75	-554	-2831	-1087	-78	1346	-94	37	28	-87	599	-1139	-234	-176	-16	448	33.18	1.000680977054034	32.12	1.0082802862077471	0.0	0.0	0.0	12.2598876953125	11	0	0.0	0.0	0.0	0.0	0.097109951167266	0.0	0.0	-0.2416370759602136	0.4989035120999999	0.6137589968999999	9.658628424899998	0.0	0.0	0.0	0.0	7	0.0	0.0	-0.43788653580000003	9.655039191	-0.5527420206	-0.5599204884	9.6622176588	-0.6747759732	-0.005497787124	0.030237829182	0.02290744635	0.011301006866	0.008552113303999999	-0.026572637766	-0.32132	-1.64198	-0.63046	0.34742	-0.66062	-0.13572	-0.4989035121	9.6586284249	-0.6137589969	0.002901609871	0.019394971243	-0.001832595708	0.013050000000000006	-1.1513	-0.38309000000000004	-5.17792	-0.47072	13.18016	1.0044806316308905	32.65
3005	320591	0	-66	1342	-72	-4	109	71	-540	-2827	-1117	-82	1345	-93	59	20	-87	625	-1133	-206	-240	-32	384	33.2	1.0006711078213668	32.14	1.0082704169750802	0.0	0.0	0.0	12.2598876953125	11	0	0.0	0.0	0.0	0.0	-0.0061235232893327	0.0	0.0	-0.3355934224363639	0.5312066172	0.5922235935	9.6442714893	0.0	0.0	0.0	0.0	7	0.0	0.0	-0.4737788748	9.6335037876	-0.5168496816	-0.5886343596	9.655039191	-0.6675975054000001	-0.001221730472	0.033292155361999996	0.021685715878	0.018020524462	0.0061086523599999994	-0.026572637766	-0.3132	-1.6396600000000001	-0.64786	0.3625	-0.6571400000000001	-0.11948	-0.5312066172000001	9.6442714893	-0.5922235935	0.008399396995	0.019700403861	-0.0024434609439999994	0.024650000000000005	-1.1484	-0.38367	-7.0608	-0.94144	11.29728	1.0044707623982236	32.67
3006	320696	0	-63	1344	-57	-11	101	49	-540	-2827	-1117	-78	1343	-82	54	25	-106	625	-1133	-206	-160	-32	512	33.2	1.0007599309153714	32.12	1.0081815938810756	0.0	0.0	0.0	12.2598876953125	11	0	0.0	0.0	0.0	0.0	-0.0286023820731978	0.0	0.0	-0.3396920179528609	0.5060819799	0.4989035120999999	9.6442714893	0.0	0.0	0.0	0.0	7	0.0	0.0	-0.45224347140000004	9.6478607232	-0.4091726646	-0.5599204884	9.6406822554	-0.5886343596	-0.003359758798	0.030848694418	0.014966198282	0.016493361372	0.00763581545	-0.032375857508	-0.3132	-1.6396600000000001	-0.64786	0.3625	-0.6571400000000001	-0.11948	-0.5060819799	9.6442714893	-0.4989035121	0.006566801286999999	0.019242254934	-0.008704829612999999	0.024650000000000005	-1.1484	-0.38367	-4.7072	-0.94144	15.06304	1.0044707623982236	32.66
3007	320802	0	-63	1344	-58	-42	105	49	-526	-2831	-1085	-77	1345	-86	44	15	-116	618	-1135	-233	-192	-16	400	33.21	1.000838884776709	32.13	1.00820133234641	0.0	0.0	0.0	12.2598876953125	11	0	0.0	0.0	0.0	0.0	-0.0004001087870693	0.0	0.0	-0.2899369526974813	0.5024927459999999	0.5168496815999999	9.6514499571	0.0	0.0	0.0	0.0	7	0.0	0.0	-0.45224347140000004	9.6478607232	-0.4163511324	-0.5527420206	9.655039191	-0.6173482308	-0.012828169956	0.03207042489	0.014966198282	0.013439035192	0.00458148927	-0.035430183688	-0.30508	-1.64198	-0.6293	0.35844	-0.6583	-0.13514	-0.502492746	9.6514499571	-0.5168496816	0.0003054326179999997	0.01832595708	-0.010231992703	0.02667999999999998	-1.15014	-0.38222	-5.64864	-0.47072	11.768	1.0045201085615596	32.67
3008	320907	0	-63	1339	-68	-41	107	51	-526	-2831	-1085	-70	1351	-93	30	18	-101	618	-1135	-233	-224	32	528	33.21	1.000740192450037	32.13	1.00813224771774	0.0	0.0	0.0	12.2762451171875	11	0	0.0	0.0	0.0	0.0	0.1096047774548985	0.0	0.0	-0.1639624562032444	0.4773681086999999	0.5778666579	9.655039191	0.0	0.0	0.0	0.0	7	0.0	0.0	-0.45224347140000004	9.6119683842	-0.48813581040000004	-0.502492746	9.6981099978	-0.6675975054000001	-0.012522737337999999	0.032681290126	0.015577063518	0.00916297854	0.005497787124	-0.030848694418	-0.30508	-1.64198	-0.6293	0.35844	-0.6583	-0.13514	-0.4773681087	9.655039191	-0.5778666579	-0.0016798793989999993	0.019089538625	-0.00763581545	0.02667999999999998	-1.15014	-0.38222	-6.59008	0.94144	15.533760000000001	1.0044362200838886	32.67
3009	321013	0	-66	1346	-76	-22	106	62	-518	-2842	-1075	-76	1344	-101	42	12	-101	613	-1131	-250	-320	48	592	33.21	1.000750061682704	32.14	1.0082210708117445	0.0	0.0	0.0	12.2598876953125	11	0	0.0	0.0	0.0	0.0	0.0668951410542002	0.0	0.0	-0.2064591021470462	0.5096712137999999	0.6352944003	9.655039191	0.0	0.0	0.0	0.0	7	0.0	0.0	-0.4737788748	9.6622176588	-0.5455635528	-0.5455635528	9.6478607232	-0.7250252478	-0.006719517596	0.032375857508	0.018936822316	0.012828169956	0.003665191416	-0.030848694418	-0.30044	-1.64836	-0.6235	0.35554	-0.65598	-0.145	-0.5096712138	9.655039191	-0.6352944003000001	0.00305432618	0.018020524461999997	-0.005955936051	0.02755000000000002	-1.15217	-0.38425000000000004	-9.4144	1.41216	17.41664	1.0044855662472243	32.675
3010	321118	0	-70	1337	-72	2	100	68	-518	-2842	-1075	-82	1344	-90	61	27	-90	613	-1131	-250	-288	48	448	33.21	1.0006908462867012	32.14	1.0080532938564026	0.0	0.0	0.0	12.2762451171875	11	0	0.0	0.0	0.0	0.0	0.1134024739177671	0.0	0.0	-0.1509526314926989	0.5455635528	0.5814558917999999	9.622736085899998	0.0	0.0	0.0	0.0	7	0.0	0.0	-0.502492746	9.5976114486	-0.5168496816	-0.5886343596	9.6478607232	-0.646062102	0.000610865236	0.0305432618	0.020769418023999998	0.018631389698	0.008246680686	-0.02748893562	-0.30044	-1.64836	-0.6235	0.35554	-0.65598	-0.145	-0.5455635528	9.622736085900002	-0.5814558918	0.009621127467	0.019394971243	-0.0033597587980000003	0.02755000000000002	-1.15217	-0.38425000000000004	-8.47296	1.41216	13.18016	1.004372070071552	32.675
3011	321224	0	-70	1343	-62	-19	113	60	-571	-2834	-1060	-80	1347	-83	50	21	-103	606	-1115	-277	-240	-32	528	33.22	1.0007599309153714	32.13	1.007885516901061	0.0	0.0	0.0	12.2762451171875	11	0	0.0	0.0	0.0	0.0	0.1488557169744219	0.0	0.0	-0.1142513165225809	0.5383850849999999	0.5204389155	9.655039191	0.0	0.0	0.0	0.0	7	0.0	0.0	-0.502492746	9.6406822554	-0.4450650036	-0.574277424	9.6693961266	-0.5958128274000001	-0.005803219742	0.034513885833999995	0.01832595708	0.0152716309	0.006414084978	-0.031459559654	-0.33118	-1.64372	-0.6148	0.35148	-0.6467	-0.16066	-0.538385085	9.655039191	-0.5204389155	0.004734205579	0.020463985405999998	-0.006566801286999999	0.01015000000000002	-1.14521	-0.38773	-7.0608	-0.94144	15.533760000000001	1.0043227239082162	32.675
3012	321329	0	-67	1338	-60	-29	101	62	-571	-2834	-1060	-80	1346	-83	35	24	-101	606	-1115	-277	-240	64	528	33.21	1.00079940784604	32.13	1.0081026400197384	0.0	0.0	0.0	12.2271728515625	11	0	0.0	0.0	0.0	0.0	0.0769734139362754	0.0	0.0	-0.1908166244782579	0.5276173833	0.5132604477	9.6335037876	0.0	0.0	0.0	0.0	7	0.0	0.0	-0.4809573426	9.6047899164	-0.430708068	-0.574277424	9.6622176588	-0.5958128274000001	-0.008857545922	0.030848694418	0.018936822316	0.010690141629999999	0.007330382832	-0.030848694418	-0.33118	-1.64372	-0.6148	0.35148	-0.6467	-0.16066	-0.5276173833	9.633503787599999	-0.5132604477	0.0009162978539999991	0.019089538625	-0.005955936051	0.01015000000000002	-1.14521	-0.38773	-7.0608	1.88288	15.533760000000001	1.0044510239328892	32.67
3013	321435	0	-65	1342	-71	-39	97	54	-545	-2853	-1087	-76	1351	-93	28	25	-100	588	-1127	-222	-208	48	448	33.2	1.0006711078213668	32.14	1.0082112015790772	0.0	0.0	0.0	12.2435302734375	11	0	0.0	0.0	0.0	0.0	0.0591866488011066	0.0	0.0	-0.1991313890050537	0.5060819798999999	0.5886343595999999	9.6658068927	0.0	0.0	0.0	0.0	7	0.0	0.0	-0.466600407	9.6335037876	-0.5096712138	-0.5455635528	9.6981099978	-0.6675975054000001	-0.011911872102	0.029626963946	0.016493361372	0.008552113303999999	0.00763581545	-0.0305432618	-0.3161	-1.65474	-0.63046	0.34104	-0.65366	-0.12876	-0.5060819799	9.665806892700001	-0.5886343596000001	-0.0016798793990000001	0.018631389698	-0.007024950214	0.012470000000000009	-1.1542000000000001	-0.37961	-6.11936	1.41216	13.18016	1.0044411547002219	32.67
3014	321540	0	-64	1341	-75	-18	103	69	-545	-2853	-1087	-75	1348	-95	45	27	-101	588	-1127	-222	-208	-16	528	33.2	1.000552677029361	32.14	1.0081125092524057	0.0	0.0	0.0	12.2598876953125	11	0	0.0	0.0	0.0	0.0	0.0601373617016821	0.0	0.0	-0.1886948953430416	0.4989035120999999	0.6101697629999999	9.6514499571	0.0	0.0	0.0	0.0	7	0.0	0.0	-0.4594219392	9.626325319800001	-0.538385085	-0.538385085	9.6765745944	-0.681954441	-0.005497787124	0.031459559654	0.021074850641999997	0.01374446781	0.008246680686	-0.030848694418	-0.3161	-1.65474	-0.63046	0.34104	-0.65366	-0.12876	-0.49890351210000006	9.6514499571	-0.610169763	0.004123340343	0.01985312017	-0.004886921888000001	0.012470000000000009	-1.1542000000000001	-0.37961	-6.11936	-0.47072	15.533760000000001	1.0043325931408833	32.67
3015	321645	0	-66	1345	-70	-9	101	61	-526	-2824	-1117	-79	1339	-91	64	7	-93	610	-1127	-239	-224	16	464	33.21	1.00079940784604	32.15	1.0081815938810756	0.0	0.0	0.0	12.2762451171875	11	0	0.0	0.0	0.0	0.0	0.1041018495953069	0.0	0.0	-0.1411511837085659	0.5204389155	0.5778666578999999	9.6335037876	0.0	0.0	0.0	0.0	7	0.0	0.0	-0.4737788748	9.655039191	-0.502492746	-0.5670989562000001	9.6119683842	-0.6532405698	-0.002748893562	0.030848694418	0.018631389698	0.019547687552	0.0021380283259999997	-0.028405233473999997	-0.30508	-1.63792	-0.64786	0.3538	-0.65366	-0.13862	-0.5204389155	9.6335037876	-0.5778666579	0.008399396994999999	0.016493361372	-0.004886921887999999	0.024359999999999993	-1.14579	-0.39324	-6.59008	0.47072	13.65088	1.0044905008635578	32.68
3016	321751	0	-66	1339	-56	-25	106	65	-526	-2824	-1117	-81	1345	-76	43	8	-103	610	-1127	-239	-304	112	512	33.22	1.0004835924006907	32.14	1.0081618554157414	0.0	0.0	0.0	12.2435302734375	11	0	0.0	0.0	0.0	0.0	0.1236468059376018	0.0	0.0	-0.1162491268061215	0.5276173833	0.4737788747999999	9.6335037876	0.0	0.0	0.0	0.0	7	0.0	0.0	-0.4737788748	9.6119683842	-0.40199419680000004	-0.5814558918	9.655039191	-0.5455635528	-0.00763581545	0.032375857508	0.01985312017	0.013133602574	0.002443460944	-0.031459559654	-0.30508	-1.63792	-0.64786	0.3538	-0.65366	-0.13862	-0.5276173833	9.6335037876	-0.4737788748	0.002748893562	0.017409659225999997	-0.005803219742	0.024359999999999993	-1.14579	-0.39324	-8.94368	3.29504	15.06304	1.0043227239082162	32.68
3017	321856	0	-62	1342	-59	-29	94	57	-545	-2826	-1072	-72	1349	-88	37	5	-95	592	-1130	-226	-272	16	416	33.21	1.0005822847273624	32.14	1.0081223784850728	0.0	0.0	0.0	12.2598876953125	11	0	0.0	0.0	0.0	0.0	0.2390413775653605	0.0	0.0	-0.0040439945104772	0.4809573426	0.5276173833	9.658628424899998	0.0	0.0	0.0	0.0	7	0.0	0.0	-0.4450650036	9.6335037876	-0.4235296002	-0.5168496816	9.683753062200001	-0.6317051664000001	-0.008857545922	0.028710666091999997	0.017409659225999997	0.011301006866	0.0015271630899999999	-0.029016098709999997	-0.3161	-1.63908	-0.62176	0.34336	-0.6554	-0.13108	-0.4809573426	9.658628424900002	-0.5276173833000001	0.0012217304719999997	0.015118914590999998	-0.005803219742	0.013630000000000003	-1.14724	-0.37642	-8.00224	0.47072	12.23872	1.0043523316062175	32.675
3018	321962	0	-60	1344	-72	-37	98	56	-545	-2826	-1072	-70	1341	-95	36	4	-105	592	-1130	-226	-240	48	528	33.22	1.0008586232420429	32.17	1.0081223784850728	0.0	0.0	0.0	12.2435302734375	11	0	0.0	0.0	0.0	0.0	0.2042915410574526	0.0	0.0	-0.0541856149227643	0.4666004069999999	0.5994020613	9.6370930215	0.0	0.0	0.0	0.0	7	0.0	0.0	-0.430708068	9.6478607232	-0.5168496816	-0.502492746	9.626325319800001	-0.681954441	-0.011301006866	0.029932396564	0.017104226607999998	0.010995574248	0.001221730472	-0.03207042489	-0.3161	-1.63908	-0.62176	0.34336	-0.6554	-0.13108	-0.46660040700000005	9.6370930215	-0.5994020613	-0.00015271630899999986	0.015577063518	-0.007483099141	0.013630000000000003	-1.14724	-0.37642	-7.0608	1.41216	15.533760000000001	1.0044905008635578	32.695
3019	322067	0	-59	1341	-68	-11	92	59	-545	-2820	-1107	-78	1348	-100	47	13	-99	616	-1141	-201	-304	-16	464	33.24	1.0007599309153714	32.16	1.0081618554157414	0.0	0.0	0.0	12.2435302734375	11	0	0.0	0.0	0.0	0.0	0.1621251363162021	0.0	0.0	-0.106839028363239	0.4917250442999999	0.6029912951999999	9.6514499571	0.0	0.0	0.0	0.0	7	0.0	0.0	-0.4235296002	9.626325319800001	-0.48813581040000004	-0.5599204884	9.6765745944	-0.71784678	-0.003359758798	0.028099800855999998	0.018020524462	0.014355333045999999	0.003970624034	-0.030237829182	-0.3161	-1.6356	-0.64206	0.35728	-0.66178	-0.11658	-0.49172504429999997	9.6514499571	-0.6029912952	0.005497787123999999	0.016035212445	-0.0061086523599999994	0.020589999999999997	-1.14869	-0.37932	-8.94368	-0.47072	13.65088	1.0044608931655565	32.7
3020	322173	0	-60	1340	-65	-17	89	62	-545	-2820	-1107	-75	1344	-88	58	22	-84	616	-1141	-201	-256	16	496	33.23	1.0008882309400444	32.15	1.0082408092770787	0.0	0.0	0.0	12.2598876953125	11	0	0.0	0.0	0.0	0.0	0.1417471816533025	0.0	0.0	-0.1313777603542656	0.4845465764999999	0.5491527866999999	9.6335037876	0.0	0.0	0.0	0.0	7	0.0	0.0	-0.430708068	9.619146852	-0.466600407	-0.538385085	9.6478607232	-0.6317051664000001	-0.005192354505999999	0.027183503002	0.018936822316	0.017715091844	0.006719517596	-0.025656339912	-0.3161	-1.6356	-0.64206	0.35728	-0.66178	-0.11658	-0.4845465765	9.6335037876	-0.5491527867	0.006261368669000001	0.016951510298999998	-0.0033597587980000003	0.020589999999999997	-1.14869	-0.37932	-7.53152	0.47072	14.59232	1.0045645201085616	32.69
3021	322278	0	-65	1343	-61	-13	102	59	-532	-2814	-1072	-76	1349	-87	39	25	-100	610	-1126	-236	-208	16	464	33.23	1.0007796693807056	32.17	1.0082901554404144	0.0	0.0	0.0	12.2762451171875	11	0	0.0	0.0	0.0	0.0	0.1635330170073538	0.0	0.0	-0.1121976468156049	0.5060819798999999	0.5312066172	9.6622176588	0.0	0.0	0.0	0.0	7	0.0	0.0	-0.466600407	9.6406822554	-0.43788653580000003	-0.5455635528	9.683753062200001	-0.6245266986	-0.003970624034	0.031154127036	0.018020524462	0.011911872102	0.00763581545	-0.0305432618	-0.30856	-1.63212	-0.62176	0.3538	-0.65308	-0.13688	-0.5060819799	9.6622176588	-0.5312066172000001	0.003970624034	0.019394971243	-0.006261368668999999	0.02262	-1.1426	-0.37932	-6.11936	0.47072	13.65088	1.00453491241056	32.7
3022	322384	0	-60	1342	-69	-22	98	65	-531	-2829	-1072	-80	1349	-91	29	12	-105	610	-1126	-236	-208	-64	448	33.24	1.0009079694053786	32.18	1.008191463113743	0.0	0.0	0.0	12.2926025390625	11	0	0.0	0.0	0.0	0.0	0.1110832458371688	0.0	0.0	-0.1722746767776302	0.5024927459999999	0.5742774239999999	9.658628424899998	0.0	0.0	0.0	0.0	7	0.0	0.0	-0.430708068	9.6335037876	-0.4953142782	-0.574277424	9.683753062200001	-0.6532405698	-0.006719517596	0.029932396564	0.01985312017	0.008857545922	0.003665191416	-0.03207042489	-0.30798	-1.64082	-0.62176	0.3538	-0.65308	-0.13688	-0.502492746	9.658628424900002	-0.574277424	0.0010690141630000003	0.016798793989999998	-0.0061086523599999994	0.022910000000000014	-1.14695	-0.37932	-6.11936	-1.88288	13.18016	1.004549716259561	32.71
3023	322489	0	-61	1347	-66	-23	98	61	-531	-2829	-1072	-80	1348	-94	33	15	-104	617	-1143	-215	-272	112	448	33.22	1.0006513693560326	32.17	1.008329632371083	0.0	0.0	0.0	12.2108154296875	11	0	0.0	0.0	0.0	0.0	0.053518678690283	0.0	0.0	-0.2287336295933292	0.5060819798999999	0.5742774239999999	9.6729853605	0.0	0.0	0.0	0.0	7	0.0	0.0	-0.43788653580000003	9.6693961266	-0.4737788748	-0.574277424	9.6765745944	-0.6747759732	-0.0070249502139999994	0.029932396564	0.018631389698	0.010079276394	0.00458148927	-0.031764992272	-0.30798	-1.64082	-0.62176	0.35786	-0.66294	-0.1247	-0.5060819799	9.6729853605	-0.574277424	0.0015271630899999999	0.017256942917	-0.006566801286999999	0.024940000000000018	-1.15188	-0.37323	-8.00224	3.29504	13.18016	1.0044905008635578	32.695
3024	322594	0	-63	1340	-71	-21	106	64	-541	-2843	-1063	-77	1349	-93	46	19	-95	617	-1143	-215	-240	80	528	33.25	1.0008191463113745	32.16	1.008329632371083	0.0	0.0	0.0	12.2271728515625	11	0	0.0	0.0	0.0	0.0	0.0462842272167972	0.0	0.0	-0.2291943012710482	0.5024927459999999	0.5886343595999999	9.6514499571	0.0	0.0	0.0	0.0	7	0.0	0.0	-0.45224347140000004	9.619146852	-0.5096712138	-0.5527420206	9.683753062200001	-0.6675975054000001	-0.006414084978	0.032375857508	0.019547687552	0.014049900427999999	0.005803219742	-0.029016098709999997	-0.31378	-1.64894	-0.61654	0.35786	-0.66294	-0.1247	-0.502492746	9.6514499571	-0.5886343596000001	0.0038179077249999994	0.019089538625	-0.004734205578999999	0.022040000000000004	-1.15594	-0.37062	-7.0608	2.3536	15.533760000000001	1.004574389341229	32.705
3025	322700	0	-62	1340	-67	-13	101	59	-541	-2843	-1063	-74	1351	-88	48	19	-102	570	-1128	-238	-240	-16	512	33.24	1.0007007155193683	32.18	1.0083000246730818	0.0	0.0	0.0	12.2435302734375	11	0	0.0	0.0	0.0	0.0	0.1078458474946192	0.0	0.0	-0.1569097281945921	0.4881358104	0.5563312545	9.6586284249	0.0	0.0	0.0	0.0	7	0.0	0.0	-0.4450650036	9.619146852	-0.4809573426	-0.5312066172000001	9.6981099978	-0.6317051664000001	-0.003970624034	0.030848694418	0.018020524462	0.014660765664	0.005803219742	-0.031154127036	-0.31378	-1.64894	-0.61654	0.3306	-0.65424	-0.13804	-0.48813581040000004	9.6586284249	-0.5563312545000001	0.005345070815	0.01832595708	-0.006566801286999999	0.00841	-1.1515900000000001	-0.37729	-7.0608	-0.47072	15.06304	1.004500370096225	32.71
3026	322805	0	-61	1344	-70	-18	95	71	-553	-2834	-1091	-69	1346	-92	45	24	-99	570	-1128	-238	-208	16	512	33.24	1.0008586232420429	32.16	1.0084283246977548	0.0	0.0	0.0	12.2435302734375	11	0	0.0	0.0	0.0	0.0	0.0984326886915933	0.0	0.0	-0.1675426084943291	0.4666004069999999	0.5814558917999999	9.655039191	0.0	0.0	0.0	0.0	7	0.0	0.0	-0.43788653580000003	9.6478607232	-0.502492746	-0.4953142782	9.6622176588	-0.6604190376	-0.005497787124	0.029016098709999997	0.021685715878	0.01374446781	0.007330382832	-0.030237829182	-0.32074	-1.64372	-0.63278	0.3306	-0.65424	-0.13804	-0.46660040700000005	9.655039191	-0.5814558918	0.004123340343	0.018173240771	-0.004276056651999999	0.00492999999999999	-1.1489800000000001	-0.38541000000000003	-6.11936	0.47072	15.06304	1.0046434739698988	32.7
3027	322911	0	-66	1340	-73	-26	100	69	-553	-2834	-1091	-81	1343	-93	48	13	-98	595	-1146	-242	-256	48	512	33.24	1.0006908462867012	32.17	1.0082802862077471	0.0	0.0	0.0	12.2435302734375	11	0	0.0	0.0	0.0	0.0	0.0476348402198146	0.0	0.0	-0.2192405098064666	0.5276173833	0.5958128274	9.6299145537	0.0	0.0	0.0	0.0	7	0.0	0.0	-0.4737788748	9.619146852	-0.5240281494	-0.5814558918	9.6406822554	-0.6675975054000001	-0.007941248068	0.0305432618	0.021074850641999997	0.014660765664	0.003970624034	-0.029932396564	-0.32074	-1.64372	-0.63278	0.3451	-0.66468	-0.14036	-0.5276173833	9.6299145537	-0.5958128274000001	0.0033597587980000003	0.017256942917	-0.004428772961000001	0.012179999999999996	-1.1542000000000001	-0.38657	-7.53152	1.41216	15.06304	1.004485566247224	32.705
3028	323016	0	-62	1346	-76	-19	81	55	-545	-2823	-1099	-76	1349	-89	43	7	-106	595	-1146	-242	-240	48	464	33.24	1.0007599309153714	32.18	1.0081519861830743	0.0	0.0	0.0	12.2762451171875	11	0	0.0	0.0	0.0	0.0	0.0577078529109861	0.0	0.0	-0.2015727625474483	0.4953142781999999	0.5922235935	9.6729853605	0.0	0.0	0.0	0.0	7	0.0	0.0	-0.4450650036	9.6622176588	-0.5455635528	-0.5455635528	9.683753062200001	-0.6388836342	-0.005803219742	0.024740042057999997	0.016798793989999998	0.013133602574	0.0021380283259999997	-0.032375857508	-0.3161	-1.63734	-0.63742	0.3451	-0.66468	-0.14036	-0.4953142782	9.6729853605	-0.5922235935	0.003665191416	0.013439035191999998	-0.007788531759	0.014500000000000013	-1.15101	-0.38889	-7.0608	1.41216	13.65088	1.0044559585492228	32.71
3029	323122	0	-59	1344	-74	-25	101	52	-545	-2823	-1099	-77	1344	-92	38	20	-110	580	-1144	-196	-128	-32	496	33.24	1.0008092770787071	32.18	1.0083098939057489	0.0	0.0	0.0	12.2598876953125	11	0	0.0	0.0	0.0	0.0	-0.0228770382174552	0.0	0.0	-0.2812247849531366	0.4881358104	0.5958128274	9.6478607232	0.0	0.0	0.0	0.0	7	0.0	0.0	-0.4235296002	9.6478607232	-0.5312066172000001	-0.5527420206	9.6478607232	-0.6604190376	-0.00763581545	0.030848694418	0.015882496136	0.011606439484	0.0061086523599999994	-0.033597587979999996	-0.3161	-1.63734	-0.63742	0.3364	-0.66352	-0.11368	-0.4881358104	9.6478607232	-0.5958128274000001	0.001985312017	0.018478673389	-0.008857545921999999	0.010149999999999992	-1.15043	-0.37555	-3.76576	-0.94144	14.59232	1.004559585492228	32.71
3030	323227	0	-60	1344	-67	-16	86	56	-560	-2809	-1110	-74	1346	-92	42	9	-101	580	-1144	-196	-176	48	544	33.25	1.000552677029361	32.18	1.00820133234641	0.0	0.0	0.0	12.2762451171875	11	0	0.0	0.0	0.0	0.0	-0.0040590960457564	0.0	0.0	-0.2481268487603143	0.4809573425999999	0.5706881900999999	9.655039191	0.0	0.0	0.0	0.0	7	0.0	0.0	-0.430708068	9.6478607232	-0.4809573426	-0.5312066172000001	9.6622176588	-0.6604190376	-0.004886921888	0.026267205148	0.017104226607999998	0.012828169956	0.002748893562	-0.030848694418	-0.3248	-1.6292200000000001	-0.6438	0.3364	-0.66352	-0.11368	-0.4809573426	9.655039191	-0.5706881901	0.003970624034	0.014508049355	-0.0068722339050000004	0.0058	-1.1463700000000001	-0.37874	-5.17792	1.41216	16.00448	1.0043770046878855	32.715
3031	323332	0	-65	1338	-68	-24	81	66	-560	-2809	-1110	-74	1352	-89	46	12	-98	593	-1121	-250	-256	32	448	33.24	1.00086849247471	32.18	1.0082506785097458	0.0	0.0	0.0	12.2435302734375	11	0	0.0	0.0	0.0	0.0	-0.0536015837765718	0.0	0.0	-0.2879428516439161	0.4989035120999999	0.5635097223	9.655039191	0.0	0.0	0.0	0.0	7	0.0	0.0	-0.466600407	9.6047899164	-0.48813581040000004	-0.5312066172000001	9.7052884656	-0.6388836342	-0.007330382832	0.024740042057999997	0.020158552788	0.014049900427999999	0.003665191416	-0.029932396564	-0.3248	-1.6292200000000001	-0.6438	0.34394	-0.65018	-0.145	-0.49890351210000006	9.655039191	-0.5635097223000001	0.0033597587979999994	0.014202616736999999	-0.004886921888000001	0.009570000000000023	-1.1397	-0.39440000000000003	-7.53152	0.94144	13.18016	1.004559585492228	32.71
3032	323438	0	-71	1340	-71	-13	97	68	-526	-2808	-1103	-78	1346	-98	44	10	-94	593	-1121	-250	-288	-48	544	33.25	1.000611892425364	32.18	1.00820133234641	0.0	0.0	0.0	12.2598876953125	11	0	0.0	0.0	0.0	0.0	-0.0614628342260107	0.0	0.0	-0.2776575069560013	0.5347958510999999	0.6065805290999999	9.6406822554	0.0	0.0	0.0	0.0	7	0.0	0.0	-0.5096712138	9.619146852	-0.5096712138	-0.5599204884	9.6622176588	-0.7034898444000001	-0.003970624034	0.029626963946	0.020769418023999998	0.013439035192	0.0030543261799999997	-0.028710666091999997	-0.30508	-1.62864	-0.63974	0.34394	-0.65018	-0.145	-0.5347958510999999	9.6406822554	-0.6065805291	0.004734205579	0.016340645063	-0.003970624034	0.019430000000000003	-1.13941	-0.39237	-8.47296	-1.41216	16.00448	1.004406612385887	32.715
3033	323543	0	-64	1345	-71	-12	73	49	-526	-2808	-1103	-77	1345	-92	56	0	-105	604	-1095	-269	-160	-16	464	33.24	1.0007599309153714	32.19	1.008319763138416	0.0	0.0	0.0	12.2598876953125	11	0	0.0	0.0	0.0	0.0	0.0346183510134826	0.0	0.0	-0.1677165693190566	0.5060819799	0.5850451257	9.655039190999998	0.0	0.0	0.0	0.0	7	0.0	0.0	-0.4594219392	9.655039191	-0.5096712138	-0.5527420206	9.655039191	-0.6604190376	-0.003665191416	0.022296581114	0.014966198282	0.017104226607999998	0.0	-0.03207042489	-0.30508	-1.62864	-0.63974	0.35032	-0.6351	-0.15602	-0.5060819799	9.655039191	-0.5850451257	0.006719517595999999	0.011148290557	-0.008552113303999999	0.02262	-1.1318700000000002	-0.39788	-4.7072	-0.47072	13.65088	1.0045398470268938	32.715
3034	323649	0	-63	1341	-70	-11	90	57	-531	-2801	-1081	-73	1343	-94	51	10	-96	593	-1132	-250	-160	48	480	33.26	1.00079940784604	32.19	1.0081717246484083	0.0	0.0	0.0	12.2271728515625	11	0	0.0	0.0	0.0	0.0	0.0669129215965197	0.0	0.0	-0.131473495276662	0.4881358104	0.5886343595999999	9.6335037876	0.0	0.0	0.0	0.0	7	0.0	0.0	-0.45224347140000004	9.626325319800001	-0.502492746	-0.5240281494	9.6406822554	-0.6747759732	-0.003359758798	0.02748893562	0.017409659225999997	0.015577063518	0.0030543261799999997	-0.029321531328	-0.30798	-1.62458	-0.62698	0.34394	-0.65656	-0.145	-0.4881358104	9.6335037876	-0.5886343596000001	0.0061086523599999994	0.0152716309	-0.005955936051000001	0.017980000000000024	-1.1405699999999999	-0.38599	-4.7072	1.41216	14.1216	1.004485566247224	32.724999999999994
3035	323754	0	-62	1342	-71	-20	94	59	-531	-2801	-1081	-72	1345	-94	48	17	-97	593	-1132	-250	-208	80	416	33.26	1.0008487540093758	32.19	1.008319763138416	0.0	0.0	0.0	12.2598876953125	11	0	0.0	0.0	0.0	0.0	0.1063160512067089	0.0	0.0	-0.0934886833983812	0.4809573426	0.5922235935	9.6442714893	0.0	0.0	0.0	0.0	7	0.0	0.0	-0.4450650036	9.6335037876	-0.5096712138	-0.5168496816	9.655039191	-0.6747759732	-0.0061086523599999994	0.028710666091999997	0.018020524462	0.014660765664	0.005192354505999999	-0.029626963946	-0.30798	-1.62458	-0.62698	0.34394	-0.65656	-0.145	-0.4809573426	9.6442714893	-0.5922235935	0.004276056652	0.016951510298999998	-0.005803219742	0.017980000000000024	-1.1405699999999999	-0.38599	-6.11936	2.3536	12.23872	1.004584258573896	32.724999999999994
3036	323860	0	-70	1345	-76	-18	101	64	-548	-2819	-1127	-75	1348	-97	41	10	-89	565	-1116	-248	-224	16	512	33.26	1.0007895386133727	32.18	1.00820133234641	0.0	0.0	0.0	12.2435302734375	11	0	0.0	0.0	0.0	0.0	0.1281941879260369	0.0	0.0	-0.0781655821738249	0.5204389155	0.6209374646999999	9.6658068927	0.0	0.0	0.0	0.0	7	0.0	0.0	-0.502492746	9.655039191	-0.5455635528	-0.538385085	9.6765745944	-0.6963113766	-0.005497787124	0.030848694418	0.019547687552	0.012522737337999999	0.0030543261799999997	-0.027183503002	-0.31784	-1.63502	-0.65366	0.3277	-0.64728	-0.14384	-0.5204389155	9.665806892700001	-0.6209374647	0.0035124751069999993	0.016951510298999998	-0.003817907725	0.00492999999999999	-1.1411499999999999	-0.39875	-6.59008	0.47072	15.06304	1.0044954354798914	32.72
3037	323965	0	-69	1344	-74	-19	98	51	-548	-2819	-1127	-75	1348	-92	52	11	-101	565	-1116	-248	-144	96	416	33.27	1.0007105847520354	32.19	1.008329632371083	0.0	0.0	0.0	12.2435302734375	11	0	0.0	0.0	0.0	0.0	0.0806205765935958	0.0	0.0	-0.1383989313091769	0.5168496815999999	0.5958128274	9.6622176588	0.0	0.0	0.0	0.0	7	0.0	0.0	-0.4953142782	9.6478607232	-0.5312066172000001	-0.538385085	9.6765745944	-0.6604190376	-0.005803219742	0.029932396564	0.015577063518	0.015882496136	0.003359758798	-0.030848694418	-0.31784	-1.63502	-0.65366	0.3277	-0.64728	-0.14384	-0.5168496816	9.6622176588	-0.5958128274000001	0.005039638197	0.016646077680999998	-0.00763581545	0.00492999999999999	-1.1411499999999999	-0.39875	-4.23648	2.82432	12.23872	1.0045201085615592	32.730000000000004
3038	324071	0	-63	1337	-71	-19	83	53	-556	-2810	-1083	-79	1342	-99	42	9	-105	578	-1117	-251	-256	0	560	33.25	1.000611892425364	32.18	1.0083592400690846	0.0	0.0	0.0	12.2598876953125	11	0	0.0	0.0	0.0	0.0	0.2135259912434243	0.0	0.0	-0.002744479440766	0.5096712137999999	0.6101697629999999	9.6155576181	0.0	0.0	0.0	0.0	7	0.0	0.0	-0.45224347140000004	9.5976114486	-0.5096712138	-0.5670989562000001	9.6335037876	-0.7106683122	-0.005803219742	0.025350907293999997	0.016187928754	0.012828169956	0.002748893562	-0.03207042489	-0.32248	-1.6298	-0.62814	0.33524	-0.64786	-0.14558	-0.5096712138	9.6155576181	-0.610169763	0.003512475107	0.014049900427999999	-0.007941248068	0.006379999999999997	-1.13883	-0.38686	-7.53152	0.0	16.4752	1.0044855662472243	32.715
3039	324176	0	-66	1342	-70	-25	99	49	-550	-2817	-1098	-72	1342	-99	40	7	-107	578	-1117	-251	-224	-16	544	33.26	1.00079940784604	32.19	1.0081815938810756	0.0	0.0	0.0	12.2435302734375	11	0	0.0	0.0	0.0	0.0	0.1526033765791027	0.0	0.0	-0.0812215319169119	0.4953142781999999	0.6065805290999999	9.6335037876	0.0	0.0	0.0	0.0	7	0.0	0.0	-0.4737788748	9.6335037876	-0.502492746	-0.5168496816	9.6335037876	-0.7106683122	-0.00763581545	0.030237829182	0.014966198282	0.012217304719999999	0.0021380283259999997	-0.032681290126	-0.319	-1.63386	-0.63684	0.33524	-0.64786	-0.14558	-0.4953142782	9.6335037876	-0.6065805291	0.0022907446349999996	0.016187928754	-0.008857545921999999	0.008119999999999988	-1.14086	-0.39120999999999995	-6.59008	-0.47072	16.00448	1.0044905008635578	32.724999999999994
3040	324281	0	-63	1343	-70	-29	104	56	-550	-2817	-1098	-72	1345	-89	40	19	-107	609	-1115	-236	-192	32	416	33.26	1.0008487540093758	32.19	1.0081223784850728	0.0	0.0	0.0	12.2598876953125	11	0	0.0	0.0	0.0	0.0	0.1119144977589151	0.0	0.0	-0.130091572675604	0.4845465765	0.5706881900999999	9.6478607232	0.0	0.0	0.0	0.0	7	0.0	0.0	-0.45224347140000004	9.6406822554	-0.502492746	-0.5168496816	9.655039191	-0.6388836342	-0.008857545922	0.031764992272	0.017104226607999998	0.012217304719999999	0.005803219742	-0.032681290126	-0.319	-1.63386	-0.63684	0.35322	-0.6467	-0.13688	-0.4845465765	9.6478607232	-0.5706881901	0.0016798793989999993	0.018784106007	-0.007788531759	0.017109999999999986	-1.1402800000000002	-0.38686	-5.64864	0.94144	12.23872	1.0044855662472243	32.724999999999994
3041	324387	0	-68	1341	-72	-29	103	67	-529	-2819	-1085	-77	1345	-97	37	8	-98	609	-1115	-236	-240	64	448	33.26	1.00073032321737	32.19	1.0082704169750802	0.0	0.0	0.0	12.2598876953125	11	0	0.0	0.0	0.0	0.0	0.030589314097724	0.0	0.0	-0.2168833818665222	0.5204389155	0.6065805290999999	9.640682255399998	0.0	0.0	0.0	0.0	7	0.0	0.0	-0.48813581040000004	9.626325319800001	-0.5168496816	-0.5527420206	9.655039191	-0.6963113766	-0.008857545922	0.031459559654	0.020463985405999998	0.011301006866	0.002443460944	-0.029932396564	-0.30682	-1.63502	-0.6293	0.35322	-0.6467	-0.13688	-0.5204389155	9.640682255400002	-0.6065805290999999	0.0012217304719999997	0.016951510298999998	-0.004734205579000001	0.0232	-1.14086	-0.38309	-7.0608	1.88288	13.18016	1.0045003700962252	32.724999999999994
3042	324492	0	-74	1344	-71	-17	86	62	-529	-2819	-1085	-74	1347	-93	46	5	-102	613	-1115	-247	-272	-48	528	33.26	1.0010165309647174	32.22	1.0082210708117445	0.0	0.0	0.0	12.2435302734375	11	0	0.0	0.0	0.0	0.0	-0.1073916275411447	0.0	0.0	-0.3511004054844249	0.5312066172	0.5886343595999999	9.658628424899998	0.0	0.0	0.0	0.0	7	0.0	0.0	-0.5312066172000001	9.6478607232	-0.5096712138	-0.5312066172000001	9.6693961266	-0.6675975054000001	-0.005192354505999999	0.026267205148	0.018936822316	0.014049900427999999	0.0015271630899999999	-0.031154127036	-0.30682	-1.63502	-0.6293	0.35554	-0.6467	-0.14326	-0.5312066172000001	9.658628424900002	-0.5886343596000001	0.004428772960999999	0.013897184118999999	-0.0061086523599999994	0.02436000000000002	-1.14086	-0.38627999999999996	-8.00224	-1.41216	15.533760000000001	1.004618800888231	32.739999999999995
3043	324598	0	-70	1344	-69	-25	101	52	-549	-2816	-1086	-76	1343	-89	43	11	-104	613	-1115	-247	-288	64	544	33.27	1.000878361707377	32.18	1.0082605477424131	0.0	0.0	0.0	12.2435302734375	11	0	0.0	0.0	0.0	0.0	-0.1199552084826037	0.0	0.0	-0.3431369014705694	0.5240281493999999	0.5670989562	9.6442714893	0.0	0.0	0.0	0.0	7	0.0	0.0	-0.502492746	9.6478607232	-0.4953142782	-0.5455635528	9.6406822554	-0.6388836342	-0.00763581545	0.030848694418	0.015882496136	0.013133602574	0.003359758798	-0.031764992272	-0.31842	-1.63328	-0.62988	0.35554	-0.6467	-0.14326	-0.5240281494000001	9.6442714893	-0.5670989562000001	0.002748893562	0.017104226607999998	-0.007941248068	0.01856000000000002	-1.13999	-0.38656999999999997	-8.47296	1.88288	16.00448	1.0045694547248951	32.725
3044	324703	0	-62	1339	-73	-22	98	51	-549	-2816	-1086	-69	1346	-93	38	4	-103	609	-1135	-295	-240	32	608	33.28	1.0007204539847028	32.21	1.0080434246237355	0.0	0.0	0.0	12.2435302734375	11	0	0.0	0.0	0.0	0.0	-0.0538369556810868	0.0	0.0	-0.2519347460208161	0.4701896408999999	0.5958128274	9.6370930215	0.0	0.0	0.0	0.0	7	0.0	0.0	-0.4450650036	9.6119683842	-0.5240281494	-0.4953142782	9.6622176588	-0.6675975054000001	-0.006719517596	0.029932396564	0.015577063518	0.011606439484	0.001221730472	-0.031459559654	-0.31842	-1.63328	-0.62988	0.35322	-0.6583	-0.1711	-0.47018964090000004	9.6370930215	-0.5958128274000001	0.002443460944	0.015577063518	-0.007941248068	0.0174	-1.14579	-0.40049	-7.0608	0.94144	17.88736	1.0043819393042193	32.745000000000005
3045	324809	0	-61	1343	-70	-20	88	63	-528	-2813	-1083	-75	1343	-94	49	6	-103	609	-1135	-295	-256	-64	528	33.28	1.000838884776709	32.21	1.0081519861830743	0.0	0.0	0.0	12.2435302734375	11	0	0.0	0.0	0.0	0.0	-0.0543199774913179	0.0	0.0	-0.2426782167720731	0.4881358104	0.5886343595999999	9.6406822554	0.0	0.0	0.0	0.0	7	0.0	0.0	-0.43788653580000003	9.6406822554	-0.502492746	-0.538385085	9.6406822554	-0.6747759732	-0.0061086523599999994	0.026878070384	0.019242254934	0.014966198282	0.001832595708	-0.031459559654	-0.30624	-1.63154	-0.62814	0.35322	-0.6583	-0.1711	-0.48813581040000004	9.6406822554	-0.5886343596000001	0.004428772961	0.014355333046	-0.0061086523599999994	0.023489999999999983	-1.14492	-0.39962000000000003	-7.53152	-1.88288	15.533760000000001	1.0044954354798916	32.745000000000005
3046	324914	0	-62	1343	-68	-20	93	55	-528	-2813	-1083	-73	1348	-92	38	16	-101	619	-1115	-251	-224	32	448	33.28	1.00073032321737	32.2	1.0080335553910684	0.0	0.0	0.0	12.2435302734375	11	0	0.0	0.0	0.0	0.0	-0.0595662174009798	0.0	0.0	-0.2344838659062069	0.4845465765	0.5742774239999999	9.6586284249	0.0	0.0	0.0	0.0	7	0.0	0.0	-0.4450650036	9.6406822554	-0.48813581040000004	-0.5240281494	9.6765745944	-0.6604190376	-0.0061086523599999994	0.028405233473999997	0.016798793989999998	0.011606439484	0.004886921888	-0.030848694418	-0.30624	-1.63154	-0.62814	0.35902	-0.6467	-0.14558	-0.4845465765	9.6586284249	-0.574277424	0.002748893562	0.016646077680999998	-0.007024950214	0.026389999999999997	-1.1391200000000001	-0.38686	-6.59008	0.94144	13.18016	1.0043819393042193	32.74
3047	325020	0	-69	1343	-70	-12	103	56	-535	-2829	-1106	-78	1346	-92	46	13	-104	619	-1115	-251	-176	0	480	33.29	1.0006908462867012	32.19	1.008073032321737	0.0	0.0	0.0	12.2435302734375	11	0	0.0	0.0	0.0	0.0	-0.118849669238622	0.0	0.0	-0.2823818574002922	0.5276173833	0.5814558917999999	9.6514499571	0.0	0.0	0.0	0.0	7	0.0	0.0	-0.4953142782	9.6406822554	-0.502492746	-0.5599204884	9.6622176588	-0.6604190376	-0.003665191416	0.031459559654	0.017104226607999998	0.014049900427999999	0.003970624034	-0.031764992272	-0.3103	-1.64082	-0.64148	0.35902	-0.6467	-0.14558	-0.5276173833	9.651449957099999	-0.5814558918	0.005192354505999999	0.017715091843999997	-0.007330382832	0.024359999999999993	-1.1437599999999999	-0.39353000000000005	-5.17792	0.0	14.1216	1.0043819393042193	32.739999999999995
3048	325125	0	-65	1341	-76	-23	95	64	-535	-2829	-1106	-80	1345	-97	45	7	-101	604	-1111	-219	-272	80	432	33.28	1.0007796693807056	32.22	1.0084875400937576	0.0	0.0	0.0	12.2598876953125	11	0	0.0	0.0	0.0	0.0	-0.0911097835218707	0.0	0.0	-0.2410553554762807	0.5204389155	0.6209374646999999	9.640682255399998	0.0	0.0	0.0	0.0	7	0.0	0.0	-0.466600407	9.626325319800001	-0.5455635528	-0.574277424	9.655039191	-0.6963113766	-0.0070249502139999994	0.029016098709999997	0.019547687552	0.01374446781	0.0021380283259999997	-0.030848694418	-0.3103	-1.64082	-0.64148	0.35032	-0.64438	-0.12702	-0.5204389155	9.640682255400002	-0.6209374647	0.003359758798	0.015577063518	-0.005650503433	0.02001	-1.1425999999999998	-0.38425000000000004	-8.00224	2.3536	12.70944	1.0046336047372315	32.75
3049	325230	0	-68	1342	-70	-22	95	50	-536	-2818	-1095	-76	1342	-89	33	7	-98	604	-1111	-219	-176	-32	512	33.29	1.0008092770787071	32.23	1.0083592400690846	0.0	0.0	0.0	12.2435302734375	11	0	0.0	0.0	0.0	0.0	-0.0890999192221839	0.0	0.0	-0.2292185779971584	0.5168496815999999	0.5706881900999999	9.6335037876	0.0	0.0	0.0	0.0	7	0.0	0.0	-0.48813581040000004	9.6335037876	-0.502492746	-0.5455635528	9.6335037876	-0.6388836342	-0.006719517596	0.029016098709999997	0.0152716309	0.010079276394	0.0021380283259999997	-0.029932396564	-0.31088	-1.6344400000000001	-0.6351	0.35032	-0.64438	-0.12702	-0.5168496816	9.6335037876	-0.5706881901	0.0016798793989999997	0.015577063518	-0.007330382832	0.019720000000000015	-1.13941	-0.38106	-5.17792	-0.94144	15.06304	1.004584258573896	32.76
3050	325336	0	-63	1340	-72	-24	78	63	-536	-2818	-1095	-82	1350	-93	45	7	-100	608	-1138	-220	-288	32	544	33.29	1.0007007155193683	32.22	1.008388847767086	0.0	0.0	0.0	12.2435302734375	11	0	0.0	0.0	0.0	0.0	-0.0148247497807381	0.0	0.0	-0.1471897116241307	0.5204389155	0.5922235935	9.655039191	0.0	0.0	0.0	0.0	7	0.0	0.0	-0.45224347140000004	9.619146852	-0.5168496816	-0.5886343596	9.69093153	-0.6675975054000001	-0.007330382832	0.023823744204	0.019242254934	0.01374446781	0.0021380283259999997	-0.0305432618	-0.31088	-1.6344400000000001	-0.6351	0.35264	-0.66004	-0.1276	-0.5204389155	9.655039191	-0.5922235935	0.0032070424889999996	0.012980886264999998	-0.005650503433	0.02088000000000001	-1.14724	-0.38134999999999997	-8.47296	0.94144	16.00448	1.0045447816432271	32.754999999999995
3051	325441	0	-62	1345	-76	-20	95	65	-552	-2811	-1086	-84	1346	-94	49	16	-103	608	-1138	-220	-288	-16	448	33.28	1.0005625462620282	32.21	1.0082112015790772	0.0	0.0	0.0	12.2598876953125	11	0	0.0	0.0	0.0	0.0	0.0975558152244053	0.0	0.0	-0.0311709133833011	0.5240281494	0.6101697629999999	9.658628424899998	0.0	0.0	0.0	0.0	7	0.0	0.0	-0.4450650036	9.655039191	-0.5455635528	-0.6029912952	9.6622176588	-0.6747759732	-0.0061086523599999994	0.029016098709999997	0.01985312017	0.014966198282	0.004886921888	-0.031459559654	-0.32016	-1.63038	-0.62988	0.35264	-0.66004	-0.1276	-0.5240281494000001	9.6586284249	-0.610169763	0.004428772961	0.016951510298999998	-0.005803219742	0.016240000000000004	-1.14521	-0.37873999999999997	-8.47296	-0.47072	13.18016	1.0043868739205526	32.745000000000005
3052	325547	0	-66	1346	-68	-18	96	59	-552	-2811	-1086	-73	1348	-92	50	5	-103	588	-1130	-224	-272	0	480	33.29	1.0006513693560326	32.22	1.0083395016037504	0.0	0.0	0.0	12.2598876953125	11	0	0.0	0.0	0.0	0.0	0.0660172418585402	0.0	0.0	-0.0752776042517268	0.4989035120999999	0.5742774239999999	9.6693961266	0.0	0.0	0.0	0.0	7	0.0	0.0	-0.4737788748	9.6622176588	-0.48813581040000004	-0.5240281494	9.6765745944	-0.6604190376	-0.005497787124	0.029321531328	0.018020524462	0.0152716309	0.0015271630899999999	-0.031459559654	-0.32016	-1.63038	-0.62988	0.34104	-0.6554	-0.12992	-0.4989035121	9.669396126599999	-0.574277424	0.004886921888	0.015424347209	-0.006719517595999999	0.010440000000000005	-1.14289	-0.3799	-8.00224	0.0	14.1216	1.0044954354798916	32.754999999999995
3053	325652	0	-64	1342	-69	-24	85	52	-546	-2827	-1073	-75	1344	-93	45	13	-109	588	-1130	-224	-288	48	496	33.29	1.000917838638046	32.23	1.0082506785097458	0.0	0.0	0.0	12.2598876953125	11	0	0.0	0.0	0.0	0.0	0.0541733384182478	0.0	0.0	-0.0951429438631194	0.4989035120999999	0.5814558917999999	9.640682255399998	0.0	0.0	0.0	0.0	7	0.0	0.0	-0.4594219392	9.6335037876	-0.4953142782	-0.538385085	9.6478607232	-0.6675975054000001	-0.007330382832	0.02596177253	0.015882496136	0.01374446781	0.003970624034	-0.033292155361999996	-0.31668	-1.6396600000000001	-0.62234	0.34104	-0.6554	-0.12992	-0.49890351210000006	9.640682255400002	-0.5814558918	0.0032070424889999996	0.014966198282	-0.008704829612999999	0.012179999999999996	-1.1475300000000002	-0.37613	-8.47296	1.41216	14.59232	1.004584258573896	32.76
3054	325758	0	-60	1341	-74	-21	93	60	-546	-2827	-1073	-69	1340	-100	43	2	-106	614	-1116	-262	-224	16	432	33.28	1.000838884776709	32.23	1.0083098939057489	0.0	0.0	0.0	12.2435302734375	11	0	0.0	0.0	0.0	0.0	0.0479193415118417	0.0	0.0	-0.1082484950169999	0.4630111730999999	0.6245266986	9.6227360859	0.0	0.0	0.0	0.0	7	0.0	0.0	-0.430708068	9.626325319800001	-0.5312066172000001	-0.4953142782	9.619146852	-0.71784678	-0.006414084978	0.028405233473999997	0.01832595708	0.013133602574	0.000610865236	-0.032375857508	-0.31668	-1.6396600000000001	-0.62234	0.35612	-0.64728	-0.15196	-0.4630111731	9.622736085900002	-0.6245266986	0.003359758798	0.014508049354999998	-0.007024950213999999	0.019719999999999988	-1.14347	-0.38715	-6.59008	0.47072	12.70944	1.004574389341229	32.754999999999995
3055	325863	0	-71	1344	-71	-25	90	74	-554	-2814	-1050	-82	1345	-97	46	11	-84	614	-1116	-262	-256	16	496	33.3	1.000611892425364	32.23	1.0083098939057489	0.0	0.0	0.0	12.2598876953125	11	0	0.0	0.0	0.0	0.0	0.0206281398197723	0.0	0.0	-0.1421460942402696	0.5491527866999999	0.6029912951999999	9.6514499571	0.0	0.0	0.0	0.0	7	0.0	0.0	-0.5096712138	9.6478607232	-0.5096712138	-0.5886343596	9.655039191	-0.6963113766	-0.00763581545	0.02748893562	0.022602013732	0.014049900427999999	0.003359758798	-0.025656339912	-0.32132	-1.63212	-0.609	0.35612	-0.64728	-0.15196	-0.5491527867	9.6514499571	-0.6029912952	0.0032070424889999996	0.015424347209	-0.0015271630900000003	0.0174	-1.1397	-0.38048	-7.53152	0.47072	14.59232	1.0044608931655565	32.765
3056	325968	0	-72	1344	-68	-19	101	60	-539	-2806	-1086	-90	1343	-91	45	15	-96	609	-1137	-239	-256	0	480	33.3	1.0007698001480383	32.22	1.0083000246730818	0.0	0.0	0.0	12.2435302734375	11	0	0.0	0.0	0.0	0.0	0.0211783964151481	0.0	0.0	-0.1447050288537683	0.5814558917999999	0.5706881900999999	9.6442714893	0.0	0.0	0.0	0.0	7	0.0	0.0	-0.5168496816	9.6478607232	-0.48813581040000004	-0.646062102	9.6406822554	-0.6532405698	-0.005803219742	0.030848694418	0.01832595708	0.01374446781	0.00458148927	-0.029321531328	-0.31262	-1.62748	-0.62988	0.35322	-0.65946	-0.13862	-0.5814558918	9.6442714893	-0.5706881901	0.003970624034	0.017715091844	-0.005497787124	0.020299999999999985	-1.14347	-0.38425	-7.53152	0.0	14.1216	1.00453491241056	32.76
3057	326074	0	-72	1346	-71	-27	104	53	-539	-2806	-1086	-78	1346	-95	41	20	-112	609	-1137	-239	-272	32	464	33.3	1.0007698001480383	32.23	1.0082605477424131	0.0	0.0	0.0	12.2271728515625	11	0	0.0	0.0	0.0	0.0	0.0014878126028764	0.0	0.0	-0.1668314104300784	0.538385085	0.5958128273999999	9.6622176588	0.0	0.0	0.0	0.0	7	0.0	0.0	-0.5168496816	9.6622176588	-0.5096712138	-0.5599204884	9.6622176588	-0.681954441	-0.008246680686	0.031764992272	0.016187928754	0.012522737337999999	0.0061086523599999994	-0.034208453215999995	-0.31262	-1.62748	-0.62988	0.35322	-0.65946	-0.13862	-0.538385085	9.6622176588	-0.5958128274000001	0.0021380283259999997	0.018936822316	-0.009010262230999998	0.020299999999999985	-1.14347	-0.38425	-8.00224	0.94144	13.65088	1.0045151739452258	32.765
3058	326179	0	-71	1344	-69	-29	79	49	-549	-2806	-1097	-76	1351	-88	41	14	-116	605	-1123	-216	-240	-16	464	33.3	1.0008290155440414	32.24	1.0082210708117445	0.0	0.0	0.0	12.2271728515625	11	0	0.0	0.0	0.0	0.0	-0.0045544244473601	0.0	0.0	-0.1708292098849302	0.5276173833	0.5635097223	9.6729853605	0.0	0.0	0.0	0.0	7	0.0	0.0	-0.5096712138	9.6478607232	-0.4953142782	-0.5455635528	9.6981099978	-0.6317051664000001	-0.008857545922	0.024129176821999998	0.014966198282	0.012522737337999999	0.004276056651999999	-0.035430183688	-0.31842	-1.62748	-0.63626	0.3509	-0.65134	-0.12528	-0.5276173833	9.6729853605	-0.5635097223000001	0.0018325957079999991	0.014202616736999999	-0.010231992703	0.016240000000000004	-1.13941	-0.38077000000000005	-7.0608	-0.47072	13.65088	1.004525043177893	32.769999999999996
3059	326285	0	-59	1342	-76	-25	91	60	-549	-2806	-1097	-67	1352	-97	40	9	-101	605	-1123	-216	-208	64	480	33.29	1.0006020231926969	32.25	1.0084085862324204	0.0	0.0	0.0	12.2598876953125	11	0	0.0	0.0	0.0	0.0	-0.0781998192412509	0.0	0.0	-0.2446686517918961	0.4522434714	0.6209374646999999	9.6693961266	0.0	0.0	0.0	0.0	7	0.0	0.0	-0.4235296002	9.6335037876	-0.5455635528	-0.4809573426	9.7052884656	-0.6963113766	-0.00763581545	0.027794368237999998	0.01832595708	0.012217304719999999	0.002748893562	-0.030848694418	-0.31842	-1.62748	-0.63626	0.3509	-0.65134	-0.12528	-0.4522434714	9.6693961266	-0.6209374647	0.0022907446349999996	0.0152716309	-0.006261368668999999	0.016240000000000004	-1.13941	-0.38077000000000005	-6.11936	1.88288	14.1216	1.0045053047125587	32.769999999999996
3060	326390	0	-70	1342	-64	-15	98	74	-537	-2810	-1073	-79	1345	-94	53	15	-91	591	-1115	-219	-192	-16	512	33.3	1.00073032321737	32.24	1.008319763138416	0.0	0.0	0.0	12.2435302734375	11	0	0.0	0.0	0.0	0.0	-0.0121802910834812	0.0	0.0	-0.1660985461564785	0.5347958510999999	0.5670989562	9.6442714893	0.0	0.0	0.0	0.0	7	0.0	0.0	-0.502492746	9.6335037876	-0.4594219392	-0.5670989562000001	9.655039191	-0.6747759732	-0.00458148927	0.029932396564	0.022602013732	0.016187928754	0.00458148927	-0.027794368237999998	-0.31146	-1.6298	-0.62234	0.34278000000000003	-0.6467	-0.12702	-0.5347958511	9.6442714893	-0.5670989562000001	0.005803219742	0.017256942917	-0.0025961772529999993	0.015660000000000007	-1.13825	-0.37468	-5.64864	-0.47072	15.06304	1.004525043177893	32.769999999999996
3061	326496	0	-79	1342	-75	-21	102	61	-537	-2810	-1073	-80	1342	-89	41	13	-96	591	-1115	-219	-240	64	512	33.31	1.000740192450037	32.24	1.0084283246977548	0.0	0.0	0.0	12.2598876953125	11	0	0.0	0.0	0.0	0.0	-0.0647088207255465	0.0	0.0	-0.2176672105005249	0.5706881900999999	0.5886343595999999	9.6335037876	0.0	0.0	0.0	0.0	7	0.0	0.0	-0.5670989562000001	9.6335037876	-0.538385085	-0.574277424	9.6335037876	-0.6388836342	-0.006414084978	0.031154127036	0.018631389698	0.012522737337999999	0.003970624034	-0.029321531328	-0.31146	-1.6298	-0.62234	0.34278000000000003	-0.6467	-0.12702	-0.5706881901	9.6335037876	-0.5886343596000001	0.0030543261799999993	0.017562375535	-0.005345070815	0.015660000000000007	-1.13825	-0.37468	-7.0608	1.88288	15.06304	1.004584258573896	32.775000000000006
3062	326601	0	-77	1338	-66	-21	91	44	-536	-2818	-1095	-80	1344	-96	41	6	-113	607	-1124	-220	-256	-16	496	33.33	1.00073032321737	32.24	1.0082408092770787	0.0	0.0	0.0	12.2598876953125	11	0	0.0	0.0	0.0	0.0	-0.012251325119904	0.0	0.0	-0.1533174466371773	0.5635097223	0.5814558918	9.6263253198	0.0	0.0	0.0	0.0	7	0.0	0.0	-0.5527420206	9.6047899164	-0.4737788748	-0.574277424	9.6478607232	-0.6891329088	-0.006414084978	0.027794368237999998	0.013439035192	0.012522737337999999	0.001832595708	-0.034513885833999995	-0.31088	-1.6344400000000001	-0.6351	0.35206	-0.65192	-0.1276	-0.5635097223000001	9.6263253198	-0.5814558918	0.0030543261799999993	0.014813481973	-0.010537425320999997	0.020589999999999997	-1.14318	-0.38134999999999997	-7.53152	-0.47072	14.59232	1.0044855662472245	32.785
3063	326707	0	-65	1343	-75	-29	84	52	-536	-2818	-1095	-68	1345	-96	42	6	-110	607	-1124	-220	-224	0	512	33.33	1.0009474463360473	32.24	1.0082802862077471	0.0	0.0	0.0	12.2435302734375	11	0	0.0	0.0	0.0	0.0	-0.071464290657939	0.0	0.0	-0.2147858220775411	0.4773681086999999	0.6137589968999999	9.6478607232	0.0	0.0	0.0	0.0	7	0.0	0.0	-0.466600407	9.6406822554	-0.538385085	-0.48813581040000004	9.655039191	-0.6891329088	-0.008857545922	0.025656339912	0.015882496136	0.012828169956	0.001832595708	-0.033597587979999996	-0.31088	-1.6344400000000001	-0.6351	0.35206	-0.65192	-0.1276	-0.4773681087	9.6478607232	-0.6137589969	0.001985312017	0.013744467810000001	-0.008857545921999999	0.020589999999999997	-1.14318	-0.38134999999999997	-6.59008	0.0	15.06304	1.0046138662718973	32.785
3064	326812	0	-67	1343	-67	-18	78	60	-539	-2807	-1079	-71	1349	-93	41	1	-95	612	-1118	-228	-224	-16	528	33.3	1.0007204539847028	32.24	1.0082309400444116	0.0	0.0	0.0	12.2435302734375	11	0	0.0	0.0	0.0	0.0	-0.0173972514290488	0.0	0.0	-0.1543269304245713	0.4953142781999999	0.5742774239999999	9.6622176588	0.0	0.0	0.0	0.0	7	0.0	0.0	-0.4809573426	9.6406822554	-0.4809573426	-0.5096712138	9.683753062200001	-0.6675975054000001	-0.005497787124	0.023823744204	0.01832595708	0.012522737337999999	0.000305432618	-0.029016098709999997	-0.31262	-1.62806	-0.62582	0.35496	-0.64844	-0.13224	-0.4953142782	9.6622176588	-0.574277424	0.0035124751069999993	0.012064588410999999	-0.005345070814999998	0.021169999999999994	-1.13825	-0.37903000000000003	-6.59008	-0.47072	15.533760000000001	1.0044756970145572	32.769999999999996
3065	326917	0	-65	1342	-74	1	84	64	-539	-2807	-1079	-79	1348	-96	48	14	-96	612	-1118	-228	-272	-16	576	33.31	1.0005921539600295	32.26	1.0083691093017515	0.0	0.0	0.0	12.2435302734375	11	0	0.0	0.0	0.0	0.0	0.0431508738785246	0.0	0.0	-0.0924745231756564	0.5168496815999999	0.610169763	9.655039191	0.0	0.0	0.0	0.0	7	0.0	0.0	-0.466600407	9.6335037876	-0.5312066172000001	-0.5670989562000001	9.6765745944	-0.6891329088	0.000305432618	0.025656339912	0.019547687552	0.014660765664	0.004276056651999999	-0.029321531328	-0.31262	-1.62806	-0.62582	0.35496	-0.64844	-0.13224	-0.5168496816	9.655039191	-0.610169763	0.007483099141	0.014966198282	-0.004886921888000001	0.021169999999999994	-1.13825	-0.37903000000000003	-8.00224	-0.47072	16.94592	1.0044806316308905	32.785
3066	327023	0	-70	1344	-72	-17	98	71	-562	-2808	-1095	-80	1342	-90	50	14	-99	621	-1121	-236	-176	-48	528	33.31	1.0008092770787071	32.24	1.00813224771774	0.0	0.0	0.0	12.2435302734375	11	0	0.0	0.0	0.0	0.0	0.1285341659667837	0.0	0.0	-0.009539230423308	0.5383850849999999	0.5814558917999999	9.640682255399998	0.0	0.0	0.0	0.0	7	0.0	0.0	-0.502492746	9.6478607232	-0.5168496816	-0.574277424	9.6335037876	-0.646062102	-0.005192354505999999	0.029932396564	0.021685715878	0.0152716309	0.004276056651999999	-0.030237829182	-0.32596	-1.62864	-0.6351	0.36018	-0.65018	-0.13688	-0.538385085	9.640682255400002	-0.5814558918	0.0050396381970000004	0.017104226607999998	-0.004276056651999999	0.017109999999999986	-1.13941	-0.38599	-5.17792	-1.41216	15.533760000000001	1.0044707623982236	32.775000000000006
3067	327128	0	-65	1342	-63	-26	79	59	-562	-2808	-1095	-77	1343	-91	29	4	-100	621	-1121	-236	-224	-32	512	33.31	1.0006513693560326	32.24	1.008073032321737	0.0	0.0	0.0	12.2598876953125	11	0	0.0	0.0	0.0	0.0	0.0671995965140044	0.0	0.0	-0.0879601913973474	0.5096712137999999	0.5527420206	9.6370930215	0.0	0.0	0.0	0.0	7	0.0	0.0	-0.466600407	9.6335037876	-0.45224347140000004	-0.5527420206	9.6406822554	-0.6532405698	-0.007941248068	0.024129176821999998	0.018020524462	0.008857545922	0.001221730472	-0.0305432618	-0.32596	-1.62864	-0.6351	0.36018	-0.65018	-0.13688	-0.5096712138	9.6370930215	-0.5527420206	0.00045814892700000043	0.012675453646999998	-0.006261368668999999	0.017109999999999986	-1.13941	-0.38599	-6.59008	-0.94144	15.06304	1.0043622008388848	32.775000000000006
3068	327234	0	-67	1338	-69	-25	85	62	-535	-2826	-1095	-78	1341	-87	45	20	-107	597	-1117	-250	-224	0	512	33.32	1.0007698001480383	32.26	1.0081618554157414	0.0	0.0	0.0	12.2598876953125	11	0	0.0	0.0	0.0	0.0	0.0482306586126828	0.0	0.0	-0.1126148516491007	0.5204389155	0.5599204884	9.6155576181	0.0	0.0	0.0	0.0	7	0.0	0.0	-0.4809573426	9.6047899164	-0.4953142782	-0.5599204884	9.626325319800001	-0.6245266986	-0.00763581545	0.02596177253	0.018936822316	0.01374446781	0.0061086523599999994	-0.032681290126	-0.3103	-1.63908	-0.6351	0.34626	-0.64786	-0.145	-0.5204389155	9.6155576181	-0.5599204884	0.0030543261799999997	0.016035212445	-0.006872233904999999	0.017979999999999996	-1.14347	-0.39005	-6.59008	0.0	15.06304	1.0044658277818899	32.79
3069	327339	0	-61	1343	-77	-26	90	53	-535	-2826	-1095	-75	1347	-93	45	0	-98	597	-1117	-250	-192	-16	512	33.33	1.000621761658031	32.25	1.0080434246237355	0.0	0.0	0.0	12.2926025390625	11	0	0.0	0.0	0.0	0.0	0.0694943768224356	0.0	0.0	-0.0892477361776747	0.4881358104	0.610169763	9.655039191	0.0	0.0	0.0	0.0	7	0.0	0.0	-0.43788653580000003	9.6406822554	-0.5527420206	-0.538385085	9.6693961266	-0.6675975054000001	-0.007941248068	0.02748893562	0.016187928754	0.01374446781	0.0	-0.029932396564	-0.3103	-1.63908	-0.6351	0.34626	-0.64786	-0.145	-0.48813581040000004	9.655039191	-0.610169763	0.002901609871	0.01374446781	-0.0068722339050000004	0.017979999999999996	-1.14347	-0.39005	-5.64864	-0.47072	15.06304	1.0043325931408833	32.79
3070	327445	0	-67	1341	-70	-16	101	61	-556	-2807	-1095	-79	1348	-90	43	20	-96	603	-1116	-205	-192	-32	464	33.31	1.0008586232420429	32.26	1.0080532938564026	0.0	0.0	0.0	12.2598876953125	11	0	0.0	0.0	0.0	0.0	0.0130936724853652	0.0	0.0	-0.1499185067831675	0.5240281494	0.5742774239999999	9.6514499571	0.0	0.0	0.0	0.0	7	0.0	0.0	-0.4809573426	9.626325319800001	-0.502492746	-0.5670989562000001	9.6765745944	-0.646062102	-0.004886921888	0.030848694418	0.018631389698	0.013133602574	0.0061086523599999994	-0.029321531328	-0.32248	-1.62806	-0.6351	0.34974	-0.64728	-0.1189	-0.5240281494000001	9.6514499571	-0.574277424	0.004123340343	0.018478673389	-0.005345070815	0.013630000000000003	-1.13767	-0.377	-5.64864	-0.94144	13.65088	1.0044559585492228	32.785
3071	327550	0	-69	1337	-67	-14	109	65	-556	-2807	-1095	-81	1344	-87	55	14	-92	603	-1116	-205	-240	32	448	33.34	1.0008092770787071	32.27	1.008073032321737	0.0	0.0	0.0	12.2435302734375	11	0	0.0	0.0	0.0	0.0	0.0007800135544251	0.0	0.0	-0.1616502925000363	0.5383850849999999	0.5527420206	9.622736085899998	0.0	0.0	0.0	0.0	7	0.0	0.0	-0.4953142782	9.5976114486	-0.4809573426	-0.5814558918	9.6478607232	-0.6245266986	-0.004276056651999999	0.033292155361999996	0.01985312017	0.016798793989999998	0.004276056651999999	-0.028099800855999998	-0.32248	-1.62806	-0.6351	0.34974	-0.64728	-0.1189	-0.538385085	9.622736085900002	-0.5527420206	0.006261368668999999	0.018784106007	-0.004123340343	0.013630000000000003	-1.13767	-0.377	-7.0608	0.94144	13.18016	1.004441154700222	32.80500000000001
3072	327655	0	-71	1344	-65	-18	103	64	-532	-2836	-1104	-76	1341	-92	46	21	-96	609	-1129	-242	-272	32	480	33.34	1.0007105847520354	32.27	1.0082802862077471	0.0	0.0	0.0	12.2598876953125	11	0	0.0	0.0	0.0	0.0	0.0491812597895012	0.0	0.0	-0.1109639068643506	0.5276173833	0.5635097223	9.6370930215	0.0	0.0	0.0	0.0	7	0.0	0.0	-0.5096712138	9.6478607232	-0.466600407	-0.5455635528	9.626325319800001	-0.6604190376	-0.005497787124	0.031459559654	0.019547687552	0.014049900427999999	0.006414084978	-0.029321531328	-0.30856	-1.6448800000000001	-0.64032	0.35322	-0.65482	-0.14036	-0.5276173833	9.6370930215	-0.5635097223	0.004276056651999999	0.018936822316	-0.004886921888000001	0.02232999999999999	-1.14985	-0.39034	-8.00224	0.94144	14.1216	1.0044954354798912	32.80500000000001
3073	327760	0	-72	1340	-67	-29	112	55	-555	-2811	-1094	-77	1347	-91	35	16	-102	601	-1125	-240	-224	-48	480	33.33	1.000680977054034	32.26	1.0081618554157414	0.0	0.0	0.0	12.2271728515625	11	0	0.0	0.0	0.0	0.0	0.0276784135060498	0.0	0.0	-0.1367607266076586	0.5347958510999999	0.5670989562	9.6442714893	0.0	0.0	0.0	0.0	7	0.0	0.0	-0.5168496816	9.619146852	-0.4809573426	-0.5527420206	9.6693961266	-0.6532405698	-0.008857545922	0.034208453215999995	0.016798793989999998	0.010690141629999999	0.004886921888	-0.031154127036	-0.3219	-1.63038	-0.63452	0.34858	-0.6525	-0.1392	-0.5347958510999999	9.6442714893	-0.5670989562	0.0009162978539999991	0.019547687552	-0.007177666523	0.01333999999999999	-1.14144	-0.38686	-6.59008	-1.41216	14.1216	1.0044214162348877	32.795
3074	327865	0	-73	1344	-70	-30	96	58	-555	-2811	-1094	-76	1349	-100	34	10	-103	601	-1125	-240	-272	-16	544	33.34	1.0007599309153714	32.27	1.0081717246484083	0.0	0.0	0.0	12.2435302734375	11	0	0.0	0.0	0.0	0.0	0.0437977166410329	0.0	0.0	-0.1187012245595238	0.5347958510999999	0.6101697629999999	9.6658068927	0.0	0.0	0.0	0.0	7	0.0	0.0	-0.5240281494	9.6478607232	-0.502492746	-0.5455635528	9.683753062200001	-0.71784678	-0.00916297854	0.029321531328	0.017715091844	0.010384709011999999	0.0030543261799999997	-0.031459559654	-0.3219	-1.63038	-0.63452	0.34858	-0.6525	-0.1392	-0.5347958510999999	9.665806892700001	-0.610169763	0.0006108652359999994	0.016187928754	-0.006872233904999999	0.01333999999999999	-1.14144	-0.38686	-8.00224	-0.47072	16.00448	1.0044658277818899	32.80500000000001
3075	327971	0	-68	1343	-71	-23	92	58	-550	-2825	-1093	-72	1347	-96	46	9	-98	608	-1129	-211	-320	96	432	33.34	1.0006513693560326	32.28	1.0084184554650877	0.0	0.0	0.0	12.2598876953125	11	0	0.0	0.0	0.0	0.0	0.0469648507292315	0.0	0.0	-0.1170787966000838	0.5024927459999999	0.5994020613	9.655039191	0.0	0.0	0.0	0.0	7	0.0	0.0	-0.48813581040000004	9.6406822554	-0.5096712138	-0.5168496816	9.6693961266	-0.6891329088	-0.0070249502139999994	0.028099800855999998	0.017715091844	0.014049900427999999	0.002748893562	-0.029932396564	-0.319	-1.6385	-0.6339400000000001	0.35264	-0.65482	-0.12238	-0.502492746	9.655039191	-0.5994020613	0.0035124751069999997	0.015424347209	-0.0061086523599999994	0.01682	-1.14666	-0.37816000000000005	-9.4144	2.82432	12.70944	1.00453491241056	32.81
3076	328076	0	-69	1338	-71	-26	96	66	-550	-2825	-1093	-73	1347	-95	47	14	-97	608	-1129	-211	-224	0	432	33.34	1.00086849247471	32.26	1.0081026400197384	0.0	0.0	0.0	12.2762451171875	11	0	0.0	0.0	0.0	0.0	-0.0158119419188009	0.0	0.0	-0.1865303461396356	0.5096712137999999	0.5958128273999999	9.6370930215	0.0	0.0	0.0	0.0	7	0.0	0.0	-0.4953142782	9.6047899164	-0.5096712138	-0.5240281494	9.6693961266	-0.681954441	-0.007941248068	0.029321531328	0.020158552788	0.014355333045999999	0.004276056651999999	-0.029626963946	-0.319	-1.6385	-0.6339400000000001	0.35264	-0.65482	-0.12238	-0.5096712138	9.6370930215	-0.5958128274000001	0.0032070424889999996	0.016798793989999998	-0.004734205579000001	0.01682	-1.14666	-0.37816000000000005	-6.59008	0.0	12.70944	1.004485566247224	32.8
3077	328182	0	-60	1347	-74	-11	113	74	-541	-2839	-1110	-70	1346	-96	38	39	-102	610	-1128	-234	-176	-32	448	33.35	1.0007796693807056	32.26	1.0083691093017515	0.0	0.0	0.0	12.2435302734375	11	0	0.0	0.0	0.0	0.0	-0.1073289178362607	0.0	0.0	-0.2760157099962414	0.4666004069999999	0.610169763	9.6658068927	0.0	0.0	0.0	0.0	7	0.0	0.0	-0.430708068	9.6693961266	-0.5312066172000001	-0.502492746	9.6622176588	-0.6891329088	-0.003359758798	0.034513885833999995	0.022602013732	0.011606439484	0.011911872102	-0.031154127036	-0.31378	-1.64662	-0.6438	0.3538	-0.65424	-0.13572	-0.46660040700000005	9.665806892700001	-0.610169763	0.004123340343	0.023212878968	-0.004276056651999999	0.02001	-1.15043	-0.38976	-5.17792	-0.94144	13.18016	1.0045743893412284	32.805
3078	328287	0	-61	1344	-76	-10	117	67	-541	-2839	-1110	-71	1344	-94	45	24	-87	610	-1128	-234	-272	48	416	33.34	1.000917838638046	32.27	1.008013816925734	0.0	0.0	0.0	12.2598876953125	11	0	0.0	0.0	0.0	0.0	-0.181007960501034	0.0	0.0	-0.335066852223275	0.4737788747999999	0.6101697629999999	9.6478607232	0.0	0.0	0.0	0.0	7	0.0	0.0	-0.43788653580000003	9.6478607232	-0.5455635528	-0.5096712138	9.6478607232	-0.6747759732	-0.0030543261799999997	0.035735616306	0.020463985405999998	0.01374446781	0.007330382832	-0.026572637766	-0.31378	-1.64662	-0.6438	0.3538	-0.65424	-0.13572	-0.4737788748	9.6478607232	-0.610169763	0.005345070815	0.021532999569	-0.0030543261800000006	0.02001	-1.15043	-0.38976	-8.00224	1.41216	12.23872	1.0044658277818899	32.80500000000001
3079	328393	0	-64	1343	-71	-27	104	63	-540	-2828	-1066	-78	1344	-102	38	16	-94	589	-1127	-252	-208	64	512	33.35	1.00073032321737	32.27	1.0082901554404144	0.0	0.0	0.0	12.2435302734375	11	0	0.0	0.0	0.0	0.0	-0.2300580851631377	0.0	0.0	-0.3656361828649547	0.5096712137999999	0.6209374646999999	9.6442714893	0.0	0.0	0.0	0.0	7	0.0	0.0	-0.4594219392	9.6406822554	-0.5096712138	-0.5599204884	9.6478607232	-0.7322037156000001	-0.008246680686	0.031764992272	0.019242254934	0.011606439484	0.004886921888	-0.028710666091999997	-0.3132	-1.64024	-0.61828	0.34162	-0.65366	-0.14616	-0.5096712138	9.6442714893	-0.6209374647000001	0.0016798793990000001	0.01832595708	-0.004734205578999999	0.01421	-1.14695	-0.38222	-6.11936	1.88288	15.06304	1.0045102393288923	32.81
3080	328498	0	-66	1346	-75	-20	106	51	-540	-2828	-1066	-74	1347	-97	48	17	-109	589	-1127	-252	-224	-16	544	33.34	1.0008092770787071	32.29	1.008073032321737	0.0	0.0	0.0	12.2435302734375	11	0	0.0	0.0	0.0	0.0	-0.176527341661257	0.0	0.0	-0.2865277538362142	0.5024927459999999	0.6173482308	9.6658068927	0.0	0.0	0.0	0.0	7	0.0	0.0	-0.4737788748	9.6622176588	-0.538385085	-0.5312066172000001	9.6693961266	-0.6963113766	-0.0061086523599999994	0.032375857508	0.015577063518	0.014660765664	0.005192354505999999	-0.033292155361999996	-0.3132	-1.64024	-0.61828	0.34162	-0.65366	-0.14616	-0.502492746	9.665806892700001	-0.6173482308	0.004276056652	0.018784106007	-0.008857545921999999	0.01421	-1.14695	-0.38222	-6.59008	-0.47072	16.00448	1.004441154700222	32.815
3081	328603	0	-61	1343	-80	-26	73	60	-542	-2839	-1090	-71	1347	-98	44	-15	-101	598	-1122	-260	-192	-16	368	33.34	1.0008586232420429	32.27	1.0080927707870713	0.0	0.0	0.0	12.2435302734375	11	0	0.0	0.0	0.0	0.0	-0.1474654801733365	0.0	0.0	-0.2399448237359789	0.4737788747999999	0.6388836341999999	9.655039191	0.0	0.0	0.0	0.0	7	0.0	0.0	-0.43788653580000003	9.6406822554	-0.574277424	-0.5096712138	9.6693961266	-0.7034898444000001	-0.007941248068	0.022296581114	0.01832595708	0.013439035192	-0.00458148927	-0.030848694418	-0.31436000000000003	-1.64662	-0.6322	0.34684	-0.65076	-0.1508	-0.4737788748	9.655039191	-0.6388836342	0.002748893562	0.008857545922	-0.006261368668999999	0.016239999999999977	-1.14869	-0.39149999999999996	-5.64864	-0.47072	10.82656	1.004475697014557	32.80500000000001
3082	328709	0	-61	1345	-81	-27	92	63	-542	-2839	-1090	-78	1350	-97	35	-2	-110	598	-1122	-260	-160	-16	496	33.35	1.00073032321737	32.3	1.0083493708364175	0.0	0.0	0.0	12.2435302734375	11	0	0.0	0.0	0.0	0.0	-0.1847184424083451	0.0	0.0	-0.2675123919949733	0.4989035120999999	0.6388836341999999	9.672985360499998	0.0	0.0	0.0	0.0	7	0.0	0.0	-0.43788653580000003	9.655039191	-0.5814558918	-0.5599204884	9.69093153	-0.6963113766	-0.008246680686	0.028099800855999998	0.019242254934	0.010690141629999999	-0.000610865236	-0.033597587979999996	-0.31436000000000003	-1.64662	-0.6322	0.34684	-0.65076	-0.1508	-0.4989035121	9.6729853605	-0.6388836341999999	0.0012217304719999997	0.01374446781	-0.007177666522999998	0.016239999999999977	-1.14869	-0.39149999999999996	-4.7072	-0.47072	14.59232	1.0045398470268938	32.825
3083	328814	0	-65	1347	-80	-14	89	62	-527	-2836	-1107	-74	1343	-100	45	12	-94	617	-1141	-247	-320	0	512	33.36	1.0006908462867012	32.29	1.0082210708117445	0.0	0.0	0.0	12.2435302734375	11	0	0.0	0.0	0.0	0.0	-0.184302116807954	0.0	0.0	-0.2554068192042032	0.4989035120999999	0.6460621019999999	9.655039191	0.0	0.0	0.0	0.0	7	0.0	0.0	-0.466600407	9.6693961266	-0.574277424	-0.5312066172000001	9.6406822554	-0.71784678	-0.004276056651999999	0.027183503002	0.018936822316	0.01374446781	0.003665191416	-0.028710666091999997	-0.30566	-1.6448800000000001	-0.64206	0.35786	-0.66178	-0.14326	-0.49890351210000006	9.655039191	-0.646062102	0.004734205579	0.015424347209	-0.004886921887999999	0.026100000000000012	-1.15333	-0.39266	-9.4144	0.0	15.06304	1.0044559585492228	32.825
3084	328920	0	-65	1344	-78	-9	104	71	-527	-2836	-1107	-74	1347	-98	45	12	-96	617	-1141	-247	-192	-16	448	33.36	1.0006316308906982	32.29	1.0081125092524057	0.0	0.0	0.0	12.2762451171875	11	0	0.0	0.0	0.0	0.0	-0.1359718138365897	0.0	0.0	-0.1903090158645871	0.4989035120999999	0.6317051664	9.658628424899998	0.0	0.0	0.0	0.0	7	0.0	0.0	-0.466600407	9.6478607232	-0.5599204884	-0.5312066172000001	9.6693961266	-0.7034898444000001	-0.002748893562	0.031764992272	0.021685715878	0.01374446781	0.003665191416	-0.029321531328	-0.30566	-1.6448800000000001	-0.64206	0.35786	-0.66178	-0.14326	-0.49890351210000006	9.658628424900002	-0.6317051664	0.005497787124	0.017715091843999997	-0.003817907725	0.026100000000000012	-1.15333	-0.39266	-5.64864	-0.47072	13.18016	1.004372070071552	32.825
3085	329025	0	-65	1338	-70	-9	99	66	-550	-2831	-1110	-79	1344	-99	42	10	-93	608	-1114	-215	-208	64	512	33.36	1.00079940784604	32.3	1.00820133234641	0.0	0.0	0.0	12.2598876953125	11	0	0.0	0.0	0.0	0.0	-0.1463529827118392	0.0	0.0	-0.1969585919037798	0.5168496815999999	0.6065805290999999	9.6263253198	0.0	0.0	0.0	0.0	7	0.0	0.0	-0.466600407	9.6047899164	-0.502492746	-0.5670989562000001	9.6478607232	-0.7106683122	-0.002748893562	0.030237829182	0.020158552788	0.012828169956	0.0030543261799999997	-0.028405233473999997	-0.319	-1.64198	-0.6438	0.35264	-0.64612	-0.1247	-0.5168496816	9.6263253198	-0.6065805291	0.0050396381970000004	0.016646077680999998	-0.004123340343	0.01682	-1.14405	-0.38425000000000004	-6.11936	1.88288	15.06304	1.004500370096225	32.83
3086	329131	0	-74	1345	-71	-21	104	59	-550	-2831	-1110	-79	1350	-99	41	-5	-113	608	-1114	-215	-208	48	480	33.35	1.0008882309400444	32.28	1.0082112015790772	0.0	0.0	0.0	12.2762451171875	11	0	0.0	0.0	0.0	0.0	-0.1281395256275927	0.0	0.0	-0.1727637889889227	0.5491527866999999	0.6101697629999999	9.672985360499998	0.0	0.0	0.0	0.0	7	0.0	0.0	-0.5312066172000001	9.655039191	-0.5096712138	-0.5670989562000001	9.69093153	-0.7106683122	-0.006414084978	0.031764992272	0.018020524462	0.012522737337999999	-0.0015271630899999999	-0.034513885833999995	-0.319	-1.64198	-0.6438	0.35264	-0.64612	-0.1247	-0.5491527867000001	9.6729853605	-0.610169763	0.0030543261799999993	0.015118914591	-0.008246680685999997	0.01682	-1.14405	-0.38425000000000004	-6.11936	1.41216	14.1216	1.004549716259561	32.815
