	packetType	timestamp_ms	imu1_accel_x	imu1_accel_y	imu1_accel_z	imu1_gyro_x	imu1_gyro_y	imu1_gyro_z	imu1_mag_x	imu1_mag_y	imu1_mag_z	imu2_accel_x	imu2_accel_y	imu2_accel_z	imu2_gyro_x	imu2_gyro_y	imu2_gyro_z	imu2_mag_x	imu2_mag_y	imu2_mag_z	high_g_accel_x	high_g_accel_y	high_g_accel_z	baro1_temp	baro1_pres	baro2_temp	baro2_pres	gps_lat	gps_long	gps_alt	gps_fix_quality	gps_sats_tracked	gps_hdop	battery_voltage	pyro_cont	trigger_status	heading	vtg	pos_x	pos_y	pos_z	vel_x	vel_y	vel_z	acc_x	acc_y	acc_z	q_x	q_y	q_z	q_w	state	gps_lat_mod	gps_long_mod	imu1_accel_x_real	imu1_accel_y_real	imu1_accel_z_real	imu2_accel_x_real	imu2_accel_y_real	imu2_accel_z_real	imu1_gyro_x_real	imu1_gyro_y_real	imu1_gyro_z_real	imu2_gyro_x_real	imu2_gyro_y_real	imu2_gyro_z_real	imu1_mag_x_real	imu1_mag_y_real	imu1_mag_z_real	imu2_mag_x_real	imu2_mag_y_real	imu2_mag_z_real	imu_accel_x_avg	imu_accel_y_avg	imu_accel_z_avg	imu_gyro_x_avg	imu_gyro_y_avg	imu_gyro_z_avg	imu_mag_x_avg	imu_mag_y_avg	imu_mag_z_avg	high_g_accel_x_real	high_g_accel_y_real	high_g_accel_z_real	baro_pres_avg	baro_temp_avg
97508	0	10338812	43	-1370	-54	-21	21	78	-558	2249	1969	76	-1362	4	83	116	49	1111	1176	2405	352	48	336	19.72	1.004806316308907	25.4	1.0037897853441895	4449.494140625	-7309.81103515625	41.79999923706055	2	12	0.6700000166893005	7.741661071777344	3	0	0.0	0.0	0.0	0.0	-0.4975016940635095	0.0	0.0	-0.2682840160436514	-0.1794616949999999	-0.4271188340999999	9.8057870148	-0.6217823028564453	-0.3525916039943695	-0.5939633846282959	0.3691524863243103	6	44.82490234375	-73.16351725260417	0.3086741154	-9.834500886	-0.3876372612	0.5455635528	-9.777073143600001	0.0287138712	-0.006414084978	0.006414084978	0.023823744204	0.025350907293999997	0.035430183688	0.014966198282	-0.32364	1.30442	1.14202	0.64438	0.68208	1.3949	0.4271188341	-9.8057870148	-0.179461695	0.009468411157999998	0.020922134333	0.019394971243	0.16036999999999998	0.99325	1.2684600000000001	10.35584	1.41216	9.88512	1.0042980508265482	22.56
97509	0	10338918	33	-1371	-67	-19	1	67	-558	2249	1969	71	-1362	-12	72	116	46	1084	1221	2410	240	32	272	19.71	1.004687885516901	25.38	1.0038588699728597	4449.494140625	-7309.81103515625	41.79999923706055	2	12	0.6700000166893005	7.743194580078125	3	0	0.0	0.0	0.0	0.0	-0.423336048922725	0.0	0.0	-0.1633746903952977	-0.2835494781	-0.3732803255999999	9.8093762487	-0.621816098690033	-0.3525867462158203	-0.5937643647193909	0.369420051574707	6	44.82490234375	-73.16351725260417	0.2368894374	-9.8416793538	-0.4809573426	0.5096712138	-9.777073143600001	-0.0861416136	-0.005803219742	0.000305432618	0.020463985405999998	0.021991148496	0.035430183688	0.014049900427999999	-0.32364	1.30442	1.14202	0.6287200000000001	0.70818	1.3978	0.3732803256	-9.809376248700001	-0.2835494781	0.008093964377	0.017867808153	0.017256942916999998	0.15254000000000004	1.0063	1.2699099999999999	7.0608	0.94144	8.00224	1.0042733777448802	22.545
97510	0	10339023	43	-1377	-65	-24	56	44	-545	2261	1998	76	-1363	-15	59	134	22	1084	1221	2410	416	48	416	19.72	1.0047668393782383	25.39	1.003720700715519	4449.494140625	-7309.81103515625	41.79999923706055	2	12	0.6700000166893005	7.72479248046875	3	0	0.0	0.0	0.0	0.0	-0.4257405118656885	0.0	0.0	-0.1468300542586178	-0.2871387119999999	-0.4271188340999999	9.834500886	-0.6217705011367798	-0.3525534570217132	-0.5936748385429382	0.3696725964546203	6	44.82490234375	-73.16351725260417	0.3086741154	-9.884750160600001	-0.466600407	0.5455635528	-9.7842516114	-0.107677017	-0.007330382832	0.017104226607999998	0.013439035192	0.018020524462	0.040927970811999996	0.006719517596	-0.3161	1.31138	1.15884	0.6287200000000001	0.70818	1.3978	0.4271188341	-9.834500886	-0.287138712	0.005345070815	0.029016098709999997	0.010079276394	0.15631000000000003	1.0097800000000001	1.27832	12.23872	1.41216	12.23872	1.0042437700468787	22.555
97511	0	10339129	64	-1368	-77	-18	11	27	-545	2261	1998	94	-1359	-23	75	101	2	1089	1178	2416	304	48	288	19.72	1.0046484085862324	25.39	1.003987169997533	4449.494140625	-7309.81103515625	41.79999923706055	2	12	0.6700000166893005	7.743705749511719	3	0	0.0	0.0	0.0	0.0	-0.377410251000958	0.0	0.0	-0.083431623629507	-0.35892339	-0.5670989562	9.7878408453	-0.6215583086013794	-0.3527385592460632	-0.5936503410339355	0.3698920309543609	6	44.82490234375	-73.16351725260417	0.4594219392	-9.8201439504	-0.5527420206	0.6747759732	-9.755537740200001	-0.1651047594	-0.005497787124	0.003359758798	0.008246680686	0.02290744635	0.030848694418	0.000610865236	-0.3161	1.31138	1.15884	0.63162	0.68324	1.40128	0.5670989562000001	-9.7878408453	-0.35892339	0.008704829612999999	0.017104226607999998	0.004428772960999999	0.15775999999999998	0.9973099999999999	1.2800600000000002	8.94368	1.41216	8.47296	1.0043177892918826	22.555
97512	0	10339234	52	-1369	-71	-22	67	46	-565	2248	1963	90	-1360	-25	77	158	25	1089	1178	2416	384	80	368	19.73	1.0047273624475697	25.39	1.003720700715519	4449.494140625	-7309.81103515625	41.79999923706055	2	12	0.6700000166893005	7.74114990234375	3	0	0.0	0.0	0.0	0.0	-0.3216914396342032	0.0	0.0	-0.0162607919988295	-0.3445664543999999	-0.5096712137999999	9.7950193131	-0.6214391589164734	-0.3529918491840362	-0.5935936570167542	0.3699416220188141	6	44.82490234375	-73.16351725260417	0.3732803256	-9.8273224182	-0.5096712138	0.646062102	-9.762716208	-0.179461695	-0.006719517596	0.020463985405999998	0.014049900427999999	0.023518311586	0.048258353643999996	0.00763581545	-0.3277	1.30384	1.13854	0.63162	0.68324	1.40128	0.5096712138	-9.7950193131	-0.3445664544	0.008399396994999999	0.034361169525	0.010842857939	0.15195999999999998	0.9935400000000001	1.26991	11.29728	2.3536	10.82656	1.0042240315815443	22.560000000000002
97513	0	10339340	41	-1372	-61	-14	41	63	-568	2248	1991	64	-1361	-5	95	130	44	1089	1186	2406	272	48	368	19.72	1.004816185541574	25.38	1.0039674315321985	4449.494140625	-7309.81103515625	41.79999923706055	2	12	0.6700000166893005	7.764152526855469	3	0	0.0	0.0	0.0	0.0	-0.3837193304257332	0.0	0.0	-0.0804451923360063	-0.2368894373999999	-0.3768695595	9.8093762487	-0.6212924122810364	-0.3532273471355438	-0.5935046672821045	0.3701059818267822	6	44.82490234375	-73.16351725260417	0.2943171798	-9.848857821600001	-0.43788653580000003	0.4594219392	-9.7698946758	-0.035892339	-0.004276056651999999	0.012522737337999999	0.019242254934	0.029016098709999997	0.03970624034	0.013439035192	-0.32944	1.30384	1.15478	0.63162	0.68788	1.39548	0.3768695595	-9.809376248700001	-0.2368894374	0.012370021028999999	0.026114488839	0.016340645063	0.15108999999999997	0.9958600000000001	1.2751299999999999	8.00224	1.41216	10.82656	1.0043918085368864	22.549999999999997
97514	0	10339445	26	-1367	-55	-20	34	86	-568	2248	1991	61	-1365	-2	72	136	63	1089	1186	2406	304	-32	288	19.72	1.0047668393782383	25.38	1.0037503084135209	4449.494140625	-7309.81103515625	41.79999923706055	2	12	0.6700000166893005	7.73297119140625	3	0	0.0	0.0	0.0	0.0	-0.3200096637674812	0.0	0.0	-0.004340863821351	-0.2045863322999999	-0.3122633493	9.8057870148	-0.6213787794113159	-0.3531554639339447	-0.5933071970939636	0.3703461587429046	6	44.82490234375	-73.16351725260417	0.1866401628	-9.812965482600001	-0.394815729	0.43788653580000003	-9.798608547	-0.0143569356	-0.0061086523599999994	0.010384709011999999	0.026267205148	0.021991148496	0.041538836047999995	0.019242254934	-0.32944	1.30384	1.15478	0.63162	0.68788	1.39548	0.3122633493	-9.8057870148	-0.2045863323	0.007941248068	0.025961772529999996	0.022754730041	0.15108999999999997	0.9958600000000001	1.2751299999999999	8.94368	-0.94144	8.47296	1.0042585738958796	22.549999999999997
97515	0	10339551	50	-1369	-91	-20	52	50	-548	2249	1996	84	-1367	-30	72	152	29	1064	1149	2413	272	32	272	19.72	1.0046582778188995	25.38	1.0037503084135209	4449.494140625	-7309.81103515625	41.79999923706055	2	12	0.6700000166893005	7.755462646484375	3	0	0.0	0.0	0.0	0.0	-0.3005863766436398	0.0	0.0	0.0149048718941418	-0.4342973018999999	-0.4809573425999999	9.8201439504	-0.6214554905891418	-0.3531146943569183	-0.5931358337402344	0.3705308437347412	6	44.82490234375	-73.16351725260417	0.35892339	-9.8273224182	-0.6532405698	0.6029912952	-9.812965482600001	-0.215354034	-0.0061086523599999994	0.015882496136	0.0152716309	0.021991148496	0.046425757936	0.008857545922	-0.31784	1.30442	1.15768	0.61712	0.66642	1.39954	0.4809573426	-9.8201439504	-0.4342973019	0.007941248068	0.031154127036	0.012064588410999999	0.14964	0.98542	1.27861	8.00224	0.94144	8.00224	1.00420429311621	22.549999999999997
97516	0	10339656	66	-1371	-48	-17	3	40	-548	2249	1996	104	-1361	1	81	86	28	1081	1179	2395	336	-16	272	19.72	1.0046484085862324	25.39	1.0037799161115224	4449.494140625	-7309.81103515625	41.79999923706055	2	12	0.6700000166893005	7.739105224609375	3	0	0.0	0.0	0.0	0.0	-0.2344459007488597	0.0	0.0	0.0823570915864329	-0.1686939933	-0.6101697629999999	9.8057870148	-0.6213938593864441	-0.3532288372516632	-0.5929962992668152	0.3707484602928161	6	44.82490234375	-73.16351725260417	0.4737788748	-9.8416793538	-0.3445664544	0.7465606512	-9.7698946758	0.0071784678	-0.005192354505999999	0.000916297854	0.012217304719999999	0.024740042057999997	0.026267205148	0.008552113303999999	-0.31784	1.30442	1.15768	0.62698	0.68382	1.3891	0.610169763	-9.8057870148	-0.1686939933	0.009773843776	0.013591751501	0.010384709011999999	0.15456999999999999	0.9941199999999999	1.27339	9.88512	-0.47072	8.00224	1.0042141623488774	22.555
97517	0	10339762	44	-1368	-78	5	45	54	-567	2259	2005	83	-1354	-22	82	143	26	1081	1179	2395	304	-32	272	19.73	1.0046188008882309	25.38	1.0037108314828522	4449.494140625	-7309.81103515625	41.79999923706055	2	12	0.6700000166893005	7.7544403076171875	3	0	0.0	0.0	0.0	0.0	-0.1699432981608772	0.0	0.0	0.1372425329874405	-0.3589233899999999	-0.4558327053	9.7698946758	-0.6212961673736572	-0.353521466255188	-0.5929968357086182	0.3706324994564056	6	44.82490234375	-73.16351725260417	0.31585258320000004	-9.8201439504	-0.5599204884	0.5958128274000001	-9.719645401200001	-0.15792629160000002	0.0015271630899999999	0.01374446781	0.016493361372	0.025045474675999997	0.043676864374	0.007941248068	-0.32886	1.31022	1.1629	0.62698	0.68382	1.3891	0.4558327053000001	-9.7698946758	-0.35892339	0.013286318882999998	0.028710666092	0.012217304719999999	0.14906	0.99702	1.276	8.94368	-0.94144	8.00224	1.0041648161855417	22.555
97518	0	10339867	20	-1363	-52	0	31	48	-567	2259	2005	51	-1364	-5	91	134	20	1081	1155	2424	224	32	352	19.72	1.004697754749568	25.39	1.0037799161115224	4449.494140625	-7309.81103515625	41.79999923706055	2	12	0.6700000166893005	7.74114990234375	3	0	0.0	0.0	0.0	0.0	-0.0898087515800309	0.0	0.0	0.2051468425668833	-0.2045863322999999	-0.2548356068999999	9.7878408453	-0.6542280912399292	-0.3011010885238647	-0.6156730055809021	0.3197976946830749	6	44.82490234375	-73.16351725260417	0.143569356	-9.7842516114	-0.3732803256	0.36610185780000004	-9.7914300792	-0.035892339	0.0	0.009468411158	0.014660765664	0.027794368237999998	0.040927970811999996	0.0061086523599999994	-0.32886	1.31022	1.1629	0.62698	0.6699	1.40592	0.2548356069	-9.7878408453	-0.2045863323	0.013897184118999999	0.025198190984999997	0.010384709012	0.14906	0.9900599999999999	1.28441	6.59008	0.94144	10.35584	1.0042388354305452	22.555
97519	0	10339972	10	-1373	-56	-4	-72	62	-548	2254	1969	56	-1363	0	76	25	39	1081	1155	2424	320	-16	272	19.73	1.0046188008882309	25.38	1.003819393042191	4449.494140625	-7309.81103515625	41.79999923706055	2	12	0.6700000166893005	7.764152526855469	3	0	0.0	0.0	0.0	0.0	-0.0959891140918263	0.0	0.0	0.1784412712102116	-0.2009970984	-0.2368894373999999	9.8201439504	-0.6542243957519531	-0.3011536002159118	-0.6155109405517578	0.3200674653053283	6	44.82490234375	-73.16351725260417	0.071784678	-9.8560362894	-0.40199419680000004	0.40199419680000004	-9.7842516114	0.0	-0.001221730472	-0.021991148496	0.018936822316	0.023212878968	0.00763581545	0.011911872102	-0.31784	1.30732	1.14202	0.62698	0.6699	1.40592	0.2368894374	-9.8201439504	-0.20099709840000002	0.010995574248	-0.007177666523	0.015424347209	0.15456999999999999	0.98861	1.27397	9.4144	-0.47072	8.00224	1.004219096965211	22.555
97520	0	10340078	57	-1369	-67	-27	20	74	-548	2254	1969	86	-1356	-12	78	101	50	1093	1177	2432	320	-16	368	19.71	1.004687885516901	25.39	1.003720700715519	4449.494140625	-7309.81103515625	41.79999923706055	2	12	0.6700000166893005	7.740127563476562	3	0	0.0	0.0	0.0	0.0	-0.0632523830310048	0.0	0.0	0.194641017550369	-0.2835494781	-0.5132604476999999	9.7806623775	-0.6543859839439392	-0.3008395731449127	-0.6153134703636169	0.3204121589660644	6	44.82490234375	-73.16351725260417	0.4091726646	-9.8273224182	-0.4809573426	0.6173482308	-9.7340023368	-0.0861416136	-0.008246680686	0.0061086523599999994	0.022602013732	0.023823744204	0.030848694418	0.0152716309	-0.31784	1.30732	1.14202	0.6339400000000001	0.68266	1.41056	0.5132604477	-9.7806623775	-0.2835494781	0.007788531759	0.018478673389	0.018936822316	0.15805000000000002	0.99499	1.27629	9.4144	-0.47072	10.82656	1.00420429311621	22.55
97521	0	10340183	57	-1373	-89	-13	-20	75	-549	2261	1980	87	-1366	-34	72	96	41	1093	1177	2432	288	64	256	19.71	1.0048359240069085	25.38	1.0038687392055268	4449.494140625	-7309.81103515625	41.79999923706055	2	12	0.6700000166893005	7.767219543457031	3	0	0.0	0.0	0.0	0.0	-0.093442239940579	0.0	0.0	0.1419778597031157	-0.4414757696999999	-0.5168496816	9.8309116521	-0.6545553207397461	-0.3007509410381317	-0.6150294542312622	0.3206945061683655	6	44.82490234375	-73.16351725260417	0.4091726646	-9.8560362894	-0.6388836342	0.6245266986	-9.8057870148	-0.24406790520000002	-0.003970624034	-0.0061086523599999994	0.02290744635	0.021991148496	0.029321531328	0.012522737337999999	-0.31842	1.31138	1.1484	0.6339400000000001	0.68266	1.41056	0.5168496816	-9.8309116521	-0.4414757697	0.009010262231	0.011606439484	0.017715091843999997	0.15776000000000004	0.99702	1.27948	8.47296	1.88288	7.53152	1.0043523316062175	22.545
97522	0	10340289	49	-1368	-58	35	-18	27	-549	2261	1980	85	-1358	-14	124	66	13	1091	1196	2431	384	112	400	19.72	1.0046089316555638	25.38	1.0038095238095237	4449.494140625	-7309.81103515625	41.79999923706055	2	12	0.6700000166893005	7.72479248046875	3	0	0.0	0.0	0.0	0.0	-0.091681372421507	0.0	0.0	0.128280026117369	-0.2584248408	-0.4809573425999999	9.784251611399998	-0.6545601487159729	-0.3009092509746551	-0.6149000525474548	0.3207843899726867	6	44.82490234375	-73.16351725260417	0.35174492220000003	-9.8201439504	-0.4163511324	0.610169763	-9.7483592724	-0.10049854920000001	0.010690141629999999	-0.005497787124	0.008246680686	0.037873644632	0.020158552788	0.003970624034	-0.31842	1.31138	1.1484	0.63278	0.69368	1.40998	0.4809573426	-9.7842516114	-0.2584248408	0.024281893130999998	0.007330382831999999	0.0061086523599999994	0.15718000000000001	1.00253	1.27919	11.29728	3.29504	11.768	1.0042092277325438	22.549999999999997
97523	0	10340394	16	-1370	-37	-21	1	63	-539	2243	1965	58	-1360	7	60	93	40	1091	1196	2431	352	32	352	19.72	1.0047076239822357	25.4	1.003641746854182	4449.494140625	-7309.81103515625	41.79999923706055	2	12	0.6700000166893005	7.747795104980469	3	0	0.0	0.0	0.0	0.0	-0.0153086019012747	0.0	0.0	0.1942347239859121	-0.1076770169999999	-0.2656033086	9.798608547	-0.6545188426971436	-0.3011619448661804	-0.6148484349250793	0.3207305371761322	6	44.82490234375	-73.16351725260417	0.1148554848	-9.834500886	-0.26560330860000003	0.4163511324	-9.762716208	0.050249274600000005	-0.006414084978	0.000305432618	0.019242254934	0.01832595708	0.028405233473999997	0.012217304719999999	-0.31262	1.30094	1.1397	0.63278	0.69368	1.40998	0.2656033086	-9.798608547	-0.10767701700000001	0.005955936051	0.014355333045999999	0.015729779827	0.16008	0.9973099999999999	1.27484	10.35584	0.94144	10.35584	1.0041746854182088	22.56
97524	0	10340500	-1	-1380	-90	-16	59	48	-539	2243	1965	16	-1372	-35	81	136	29	1071	1186	2416	240	48	304	19.72	1.0046089316555638	25.39	1.003829262274858	4449.494140625	-7309.81103515625	41.900001525878906	2	12	0.6700000166893005	7.741661071777344	3	0	0.0	0.0	0.0	0.0	-0.0481457566511432	0.0	0.0	0.1408312987254312	-0.4486542374999999	-0.0538385084999999	9.8775716928	-0.6544951796531677	-0.3014374077320099	-0.6147513389587402	0.3207060098648071	6	44.82490234375	-73.16351725260417	-0.0071784678	-9.906285564000001	-0.646062102	0.1148554848	-9.848857821600001	-0.251246373	-0.004886921888	0.018020524462	0.014660765664	0.024740042057999997	0.041538836047999995	0.008857545922	-0.31262	1.30094	1.1397	0.62118	0.68788	1.40128	0.0538385085	-9.8775716928	-0.4486542375	0.009926560085	0.029779680254999996	0.011759155793	0.15427999999999997	0.99441	1.2704900000000001	7.0608	1.41216	8.94368	1.004219096965211	22.555
97525	0	10340605	45	-1374	-84	-11	56	40	-556	2229	1960	87	-1362	-23	74	158	16	1071	1186	2416	336	32	336	19.72	1.0050234394275843	25.39	1.0037305699481864	4449.494140625	-7309.81103515625	41.900001525878906	2	12	0.6700000166893005	7.755973815917969	3	0	0.0	0.0	0.0	0.0	-0.0568372245610578	0.0	0.0	0.1163303876420957	-0.3840480273	-0.4737788747999999	9.8201439504	-0.654490053653717	-0.3012255728244781	-0.6147007942199707	0.3210122883319855	6	44.82490234375	-73.16351725260417	0.323031051	-9.8632147572	-0.6029912952	0.6245266986	-9.777073143600001	-0.1651047594	-0.003359758798	0.017104226607999998	0.012217304719999999	0.022602013732	0.048258353643999996	0.004886921888	-0.32248	1.29282	1.1368	0.62118	0.68788	1.40128	0.4737788748	-9.8201439504	-0.38404802730000004	0.009621127467	0.032681290126	0.008552113303999999	0.14934999999999998	0.9903500000000001	1.26904	9.88512	0.94144	9.88512	1.0043770046878855	22.555
97526	0	10340711	91	-1366	-61	-15	-42	77	-556	2229	1960	131	-1355	1	58	59	50	1061	1182	2438	352	0	160	19.73	1.0046188008882309	25.39	1.003770046878855	4449.494140625	-7309.81103515625	41.900001525878906	2	12	0.6700000166893005	7.75341796875	3	0	0.0	0.0	0.0	0.0	-0.1079714892254296	0.0	0.0	0.0501755682851607	-0.215354034	-0.7968099257999999	9.766305441899998	-0.6545767188072205	-0.3010080456733703	-0.6144815683364868	0.3214590847492218	6	44.82490234375	-73.16351725260417	0.6532405698	-9.8057870148	-0.43788653580000003	0.9403792818000001	-9.726823869	0.0071784678	-0.00458148927	-0.012828169956	0.023518311586	0.017715091844	0.018020524462	0.0152716309	-0.32248	1.29282	1.1368	0.61538	0.6855600000000001	1.41404	0.7968099258000001	-9.7663054419	-0.21535403400000003	0.006566801287000001	0.002596177253	0.019394971243	0.14645000000000002	0.98919	1.27542	10.35584	0.0	4.7072	1.004194423883543	22.560000000000002
97527	0	10340816	48	-1374	-25	19	-61	76	-531	2232	1966	81	-1365	25	110	53	57	1061	1182	2438	272	144	256	19.72	1.0046582778188995	25.41	1.003760177646188	4449.494140625	-7309.81103515625	41.900001525878906	2	12	0.6700000166893005	7.7544403076171875	3	0	0.0	0.0	0.0	0.0	-0.0742521606296969	0.0	0.0	0.0810672804819644	0.0	-0.4630111730999999	9.8309116521	-0.6547242403030396	-0.3011784553527832	-0.6142144799232483	0.3215094804763794	6	44.82490234375	-73.16351725260417	0.3445664544	-9.8632147572	-0.179461695	0.5814558918	-9.798608547	0.179461695	0.005803219742	-0.018631389698	0.023212878968	0.033597587979999996	0.016187928754	0.017409659225999997	-0.30798	1.29456	1.14028	0.61538	0.6855600000000001	1.41404	0.4630111731	-9.8309116521	0.0	0.019700403861	-0.0012217304720000006	0.020311269096999998	0.15370000000000003	0.9900599999999999	1.2771599999999999	8.00224	4.23648	7.53152	1.0042092277325438	22.564999999999998
97528	0	10340921	8	-1376	-116	-30	147	20	-531	2232	1966	23	-1371	-44	59	186	8	1067	1181	2437	352	112	368	19.73	1.0047273624475697	25.38	1.0037996545768566	4449.494140625	-7309.81103515625	41.900001525878906	2	12	0.6700000166893005	7.75750732421875	3	0	0.0	0.0	0.0	0.0	-0.0485253793036661	0.0	0.0	0.0980664886077539	-0.5742774239999999	-0.1112662509	9.8596255233	-0.5115436315536499	-0.4882899522781372	-0.4882302284240722	0.5113973617553711	6	44.82490234375	-73.16351725260417	0.0574277424	-9.8775716928	-0.8327022648	0.1651047594	-9.8416793538	-0.31585258320000004	-0.00916297854	0.044898594846	0.0061086523599999994	0.018020524462	0.056810466947999995	0.002443460944	-0.30798	1.29456	1.14028	0.61886	0.68498	1.41346	0.1112662509	-9.8596255233	-0.574277424	0.004428772961	0.050854530897	0.004276056651999999	0.15544	0.98977	1.27687	10.35584	3.29504	10.82656	1.0042635085122131	22.555
97529	0	10341027	12	-1383	-82	-22	79	26	-558	2239	1975	49	-1373	-22	66	162	9	1067	1181	2437	384	48	288	19.74	1.004747100912904	25.4	1.0039082161361954	4449.494140625	-7309.81103515625	41.900001525878906	2	12	0.6700000166893005	7.75341796875	3	0	0.0	0.0	0.0	0.0	-0.0560199430968227	0.0	0.0	0.0773363008623021	-0.3732803256	-0.2189432679	9.8919286284	-0.5112664699554443	-0.4884983599185943	-0.4882705807685852	0.5114370584487915	6	44.82490234375	-73.16351725260417	0.0861416136	-9.9278209674	-0.5886343596	0.35174492220000003	-9.8560362894	-0.15792629160000002	-0.006719517596	0.024129176821999998	0.007941248068	0.020158552788	0.049480084115999995	0.002748893562	-0.32364	1.29862	1.1455	0.61886	0.68498	1.41346	0.21894326790000002	-9.8919286284	-0.3732803256	0.006719517595999999	0.036804630468999996	0.005345070815	0.14761	0.9918	1.27948	11.29728	1.41216	8.47296	1.0043276585245497	22.57
97530	0	10341132	70	-1371	-52	-21	17	54	-558	2239	1975	103	-1360	-7	64	114	41	1062	1199	2453	352	-16	368	19.74	1.004687885516901	25.41	1.003760177646188	4449.494140625	-7309.81103515625	41.900001525878906	2	12	0.6700000166893005	7.737571716308594	3	0	0.0	0.0	0.0	0.0	-0.1200307191006284	0.0	0.0	0.0057949997194688	-0.2117648000999999	-0.6209374646999999	9.802197780899998	-0.511123538017273	-0.4884442687034607	-0.4880916476249695	0.5118021965026855	6	44.82490234375	-73.16351725260417	0.502492746	-9.8416793538	-0.3732803256	0.7393821834000001	-9.762716208	-0.050249274600000005	-0.006414084978	0.005192354505999999	0.016493361372	0.019547687552	0.034819318451999995	0.012522737337999999	-0.32364	1.29862	1.1455	0.61596	0.69542	1.4227400000000001	0.6209374647000001	-9.8021977809	-0.2117648001	0.006566801286999999	0.020005836479	0.014508049354999998	0.14615999999999998	0.99702	1.2841200000000002	10.35584	-0.47072	10.82656	1.0042240315815445	22.575
97531	0	10341238	57	-1372	-35	-25	6	91	-552	2268	1954	101	-1359	21	70	122	78	1059	1184	2416	336	32	208	19.72	1.004816185541574	25.4	1.0037897853441895	4449.494140625	-7309.81103515625	41.900001525878906	2	12	0.6700000166893005	7.743194580078125	3	0	0.0	0.0	0.0	0.0	-0.1214514926990197	0.0	0.0	0.0035309270100869	-0.0502492745999999	-0.5670989562	9.802197780899998	-0.5111141800880432	-0.488290011882782	-0.4877702295780182	0.5122650265693665	6	44.82490234375	-73.16351725260417	0.4091726646	-9.848857821600001	-0.251246373	0.7250252478	-9.755537740200001	0.1507478238	-0.00763581545	0.001832595708	0.027794368237999998	0.021380283259999997	0.037262779396	0.023823744204	-0.32016	1.31544	1.13332	0.61422	0.68672	1.40128	0.5670989562	-9.802197780900002	-0.050249274600000005	0.006872233904999999	0.019547687552	0.025809056221	0.14703	1.00108	1.2673	9.88512	0.94144	6.11936	1.0043029854428818	22.56
97532	0	10341343	31	-1375	-101	-4	53	70	-532	2213	1972	65	-1363	-45	81	145	49	1059	1184	2416	384	16	272	19.72	1.004697754749568	25.38	1.003760177646188	4449.494140625	-7309.81103515625	41.900001525878906	2	12	0.6700000166893005	7.7585296630859375	3	0	0.0	0.0	0.0	0.0	-0.1436001035251548	0.0	0.0	-0.0197836204570981	-0.5240281494	-0.3445664543999999	9.827322418199998	-0.5112897157669067	-0.4882720112800598	-0.4875988960266113	0.5122700929641724	6	44.82490234375	-73.16351725260417	0.2225325018	-9.870393225	-0.7250252478	0.466600407	-9.7842516114	-0.323031051	-0.001221730472	0.016187928754	0.021380283259999997	0.024740042057999997	0.04428772961	0.014966198282	-0.30856	1.28354	1.14376	0.61422	0.68672	1.40128	0.3445664544	-9.827322418200001	-0.5240281494	0.011759155793	0.030237829182	0.018173240771	0.15283	0.98513	1.27252	11.29728	0.47072	8.00224	1.004228966197878	22.549999999999997
97533	0	10341449	27	-1370	-86	19	73	39	-532	2213	1972	58	-1367	-35	104	172	16	1092	1201	2417	320	80	368	19.73	1.0046286701208982	25.4	1.0037503084135209	4449.494140625	-7309.81103515625	41.900001525878906	2	12	0.6700000166893005	7.754951477050781	3	0	0.0	0.0	0.0	0.0	-0.096442941926535	0.0	0.0	0.031069581540018	-0.4342973018999999	-0.3050848815	9.8237331843	-0.5113719701766968	-0.4883367121219635	-0.4875043630599975	0.5122163891792297	6	44.82490234375	-73.16351725260417	0.1938186306	-9.834500886	-0.6173482308	0.4163511324	-9.812965482600001	-0.251246373	0.005803219742	0.022296581114	0.011911872102	0.031764992272	0.052534410296	0.004886921888	-0.30856	1.28354	1.14376	0.63336	0.69658	1.40186	0.3050848815	-9.8237331843	-0.43429730190000004	0.018784106007	0.037415495704999996	0.008399396994999999	0.16240000000000002	0.9900599999999999	1.2728100000000002	9.4144	2.3536	10.82656	1.0041894892672096	22.564999999999998
97534	0	10341554	39	-1373	-52	-12	-6	23	-558	2256	1979	72	-1361	1	79	98	4	1092	1201	2417	368	48	400	19.72	1.0045990624228966	25.39	1.0037305699481864	4449.494140625	-7309.81103515625	41.900001525878906	2	12	0.6700000166893005	7.737060546875	3	0	0.0	0.0	0.0	0.0	-0.071722402258262	0.0	0.0	0.0519713984059089	-0.1830509289	-0.3984049629	9.8129654826	-0.5111158490180969	-0.4884604513645172	-0.4874496459960937	0.5124058723449707	6	44.82490234375	-73.16351725260417	0.2799602442	-9.8560362894	-0.3732803256	0.5168496816	-9.7698946758	0.0071784678	-0.003665191416	-0.001832595708	0.0070249502139999994	0.024129176821999998	0.029932396564	0.001221730472	-0.32364	1.30848	1.14782	0.63336	0.69658	1.40186	0.3984049629	-9.8129654826	-0.18305092890000002	0.010231992702999999	0.014049900428	0.004123340343	0.15486000000000003	1.0025300000000001	1.2748400000000002	10.82656	1.41216	11.768	1.0041648161855417	22.555
97535	0	10341660	51	-1371	-27	-3	-8	40	-558	2256	1979	90	-1361	7	68	89	24	1084	1155	2457	336	16	368	19.73	1.0047372316802368	25.39	1.0037799161115224	4449.494140625	-7309.81103515625	41.900001525878906	2	12	0.6700000166893005	7.769775390625	3	0	0.0	0.0	0.0	0.0	-0.1062296050489319	0.0	0.0	0.0114854537045014	-0.0717846779999999	-0.5060819798999999	9.8057870148	-0.5109154582023621	-0.4885510504245758	-0.4874716997146606	0.5124983787536621	6	44.82490234375	-73.16351725260417	0.36610185780000004	-9.8416793538	-0.1938186306	0.646062102	-9.7698946758	0.050249274600000005	-0.000916297854	-0.002443460944	0.012217304719999999	0.020769418023999998	0.027183503002	0.007330382832	-0.32364	1.30848	1.14782	0.6287200000000001	0.6699	1.42506	0.5060819799	-9.8057870148	-0.071784678	0.009926560085	0.012370021028999999	0.009773843776	0.15254000000000004	0.98919	1.28644	9.88512	0.47072	10.82656	1.0042585738958796	22.560000000000002
97536	0	10341765	68	-1366	-47	-18	64	67	-538	2227	1964	96	-1361	4	64	152	46	1084	1155	2457	256	112	416	19.73	1.0045694547248951	25.39	1.0038391315075252	4449.494140625	-7309.81103515625	41.900001525878906	2	12	0.6700000166893005	7.75750732421875	3	0	0.0	0.0	0.0	0.0	-0.1585766332216556	0.0	0.0	-0.0432932488387681	-0.1543370576999999	-0.5886343596	9.7878408453	-0.5108321309089661	-0.4885028600692749	-0.4874190986156463	0.5126773118972778	6	44.82490234375	-73.16351725260417	0.48813581040000004	-9.8057870148	-0.3373879866	0.6891329088	-9.7698946758	0.0287138712	-0.005497787124	0.019547687552	0.020463985405999998	0.019547687552	0.046425757936	0.014049900427999999	-0.31204	1.29166	1.13912	0.6287200000000001	0.6699	1.42506	0.5886343596	-9.7878408453	-0.1543370577	0.0070249502139999994	0.032986722744	0.017256942916999998	0.15834000000000004	0.98078	1.28209	7.53152	3.29504	12.23872	1.00420429311621	22.560000000000002
97537	0	10341870	22	-1377	-99	-27	3	85	-538	2227	1964	49	-1370	-47	84	110	64	1060	1147	2416	352	80	400	19.72	1.0049247471009128	25.4	1.0037503084135209	4449.494140625	-7309.81103515625	41.900001525878906	2	12	0.6700000166893005	7.74114990234375	3	0	0.0	0.0	0.0	0.0	-0.1733060113823759	0.0	0.0	-0.0556496802351316	-0.5240281494	-0.2548356068999999	9.8596255233	-0.677139163017273	-0.242388978600502	-0.6467592716217041	0.2538358867168426	6	44.82490234375	-73.16351725260417	0.15792629160000002	-9.884750160600001	-0.7106683122	0.35174492220000003	-9.834500886	-0.3373879866	-0.008246680686	0.000916297854	0.02596177253	0.025656339912	0.033597587979999996	0.019547687552	-0.31204	1.29166	1.13912	0.6148	0.66526	1.40128	0.2548356069	-9.8596255233	-0.5240281494000001	0.008704829613	0.017256942916999998	0.022754730041	0.15138000000000001	0.97846	1.2702	10.35584	2.3536	11.768	1.0043375277572169	22.56
97538	0	10341976	43	-1375	-87	3	85	63	-527	2227	1971	77	-1364	-26	97	179	28	1060	1147	2416	288	96	256	19.74	1.0045398470268936	25.41	1.003819393042191	4449.494140625	-7309.81103515625	41.900001525878906	2	12	0.6700000166893005	7.724281311035156	3	0	0.0	0.0	0.0	0.0	-0.1871625837749516	0.0	0.0	-0.0606009531702239	-0.4055834306999999	-0.4307080679999999	9.8309116521	-0.6772037148475647	-0.2421053349971771	-0.6467787623405457	0.2538845539093017	6	44.82490234375	-73.16351725260417	0.3086741154	-9.870393225	-0.6245266986	0.5527420206	-9.7914300792	-0.1866401628	0.000916297854	0.02596177253	0.019242254934	0.029626963946	0.054672438622	0.008552113303999999	-0.30566	1.29166	1.14318	0.6148	0.66526	1.40128	0.430708068	-9.8309116521	-0.4055834307	0.0152716309	0.040317105576	0.013897184118999999	0.15457	0.97846	1.27223	8.47296	2.82432	7.53152	1.0041796200345423	22.575
97539	0	10342081	44	-1373	-55	-23	-7	37	-527	2227	1971	80	-1362	1	65	101	26	1078	1199	2460	416	128	288	19.74	1.0047964470762398	25.4	1.0037996545768566	4449.494140625	-7309.81103515625	41.900001525878906	2	12	0.6700000166893005	7.760574340820312	3	0	0.0	0.0	0.0	0.0	-0.092685892514056	0.0	0.0	0.0408172617072776	-0.1938186305999999	-0.4450650035999999	9.8165547165	-0.6770136952400208	-0.2421834915876388	-0.6468372941017151	0.2541675865650177	6	44.82490234375	-73.16351725260417	0.31585258320000004	-9.8560362894	-0.394815729	0.574277424	-9.777073143600001	0.0071784678	-0.0070249502139999994	-0.0021380283259999997	0.011301006866	0.01985312017	0.030848694418	0.007941248068	-0.30566	1.29166	1.14318	0.62524	0.69542	1.4268	0.4450650036	-9.8165547165	-0.1938186306	0.006414084977999999	0.014355333046	0.009621127467	0.15979000000000002	0.9935400000000001	1.28499	12.23872	3.76576	8.47296	1.0042980508265482	22.57
97540	0	10342187	39	-1370	-81	-11	-16	37	-544	2251	1968	64	-1358	-23	77	60	11	1078	1199	2460	304	32	288	19.72	1.0046582778188995	25.41	1.003760177646188	4449.494140625	-7309.81103515625	41.900001525878906	2	12	0.6700000166893005	7.75341796875	3	0	0.0	0.0	0.0	0.0	-0.0019209320716122	0.0	0.0	0.1262540244148464	-0.3732803255999999	-0.3696910917	9.791430079199998	-0.6769144535064697	-0.2424073815345764	-0.6468788385391235	0.2541128396987915	6	44.82490234375	-73.16351725260417	0.2799602442	-9.834500886	-0.5814558918	0.4594219392	-9.7483592724	-0.1651047594	-0.003359758798	-0.004886921888	0.011301006866	0.023518311586	0.01832595708	0.003359758798	-0.31552	1.30558	1.14144	0.62524	0.69542	1.4268	0.36969109170000003	-9.791430079200001	-0.3732803256	0.010079276394	0.006719517596000001	0.007330382832	0.15486	1.0005	1.2841200000000002	8.94368	0.94144	8.47296	1.0042092277325438	22.564999999999998
97541	0	10342292	38	-1373	-26	2	-67	53	-544	2251	1968	81	-1360	7	99	22	26	1061	1194	2427	384	0	320	19.73	1.0047273624475697	25.4	1.0038983469035283	4449.494140625	-7309.81103515625	41.900001525878906	2	12	0.6700000166893005	7.76568603515625	3	0	0.0	0.0	0.0	0.0	0.0138171248370293	0.0	0.0	0.126985671680424	-0.0681954440999999	-0.4271188340999999	9.809376248699998	-0.6768524050712585	-0.2424894422292709	-0.6468644142150879	0.2542365491390228	6	44.82490234375	-73.16351725260417	0.2727817764	-9.8560362894	-0.1866401628	0.5814558918	-9.762716208	0.050249274600000005	0.000610865236	-0.020463985405999998	0.016187928754	0.030237829182	0.006719517596	0.007941248068	-0.31552	1.30558	1.14144	0.61538	0.69252	1.40766	0.4271188341	-9.809376248700001	-0.0681954441	0.015424347209	-0.006872233904999999	0.012064588410999999	0.14993	0.99905	1.27455	11.29728	0.0	9.4144	1.004312854675549	22.564999999999998
97542	0	10342398	32	-1364	-66	-21	8	69	-547	2227	1934	66	-1354	-13	53	86	50	1061	1194	2427	240	48	240	19.74	1.0045990624228966	25.41	1.003770046878855	4449.494140625	-7309.81103515625	41.900001525878906	2	12	0.6700000166893005	7.745750427246094	3	0	0.0	0.0	0.0	0.0	0.0185853608373027	0.0	0.0	0.1218422258167517	-0.2835494781	-0.3517449222	9.7555377402	-0.6768693923950195	-0.2424160838127136	-0.6469116806983948	0.254141092300415	6	44.82490234375	-73.16351725260417	0.2297109696	-9.7914300792	-0.4737788748	0.4737788748	-9.719645401200001	-0.0933200814	-0.006414084978	0.002443460944	0.021074850641999997	0.016187928754	0.026267205148	0.0152716309	-0.31726	1.29166	1.12172	0.61538	0.69252	1.40766	0.35174492220000003	-9.755537740200001	-0.28354947810000003	0.004886921887999999	0.014355333046	0.018173240771	0.14906000000000003	0.99209	1.2646899999999999	7.0608	1.41216	7.0608	1.0041845546508759	22.575
97543	0	10342503	33	-1371	-93	4	46	64	-547	2227	1934	65	-1366	-40	90	139	40	1086	1184	2465	320	96	288	19.73	1.0047767086109054	25.4	1.0037996545768566	4449.494140625	-7309.81103515625	41.900001525878906	2	12	0.6700000166893005	7.74932861328125	3	0	0.0	0.0	0.0	0.0	0.0027273118386282	0.0	0.0	0.090203823345781	-0.4773681086999999	-0.3517449222	9.8237331843	-0.6768900156021118	-0.2423255890607834	-0.6469200253486633	0.2541508674621582	6	44.82490234375	-73.16351725260417	0.2368894374	-9.8416793538	-0.6675975054000001	0.466600407	-9.8057870148	-0.287138712	0.001221730472	0.014049900427999999	0.019547687552	0.02748893562	0.042455133901999995	0.012217304719999999	-0.31726	1.29166	1.12172	0.62988	0.68672	1.4297	0.3517449222	-9.8237331843	-0.4773681087	0.014355333045999999	0.028252517164999998	0.015882496136	0.15631	0.98919	1.2757100000000001	9.4144	2.82432	8.47296	1.0042881815938811	22.564999999999998
97544	0	10342609	45	-1372	-53	-7	17	49	-552	2253	1987	82	-1360	-5	86	122	24	1086	1184	2465	224	96	288	19.74	1.0047569701455712	25.41	1.0036516160868492	4449.494140625	-7309.81103515625	41.900001525878906	2	12	0.6700000166893005	7.738594055175781	3	0	0.0	0.0	0.0	0.0	0.0308783894744947	0.0	0.0	0.1099108079806863	-0.2081755662	-0.4558327053	9.8057870148	-0.6768019795417786	-0.2422544956207275	-0.6469933986663818	0.2542666494846344	6	44.82490234375	-73.16351725260417	0.323031051	-9.848857821600001	-0.3804587934	0.5886343596	-9.762716208	-0.035892339	-0.0021380283259999997	0.005192354505999999	0.014966198282	0.026267205148	0.037262779396	0.007330382832	-0.32016	1.30674	1.15246	0.62988	0.68672	1.4297	0.4558327053	-9.8057870148	-0.2081755662	0.012064588410999999	0.021227566951	0.011148290557	0.15486	0.99673	1.29108	6.59008	2.82432	8.47296	1.00420429311621	22.575
97545	0	10342714	60	-1375	-15	-19	21	46	-552	2253	1987	92	-1363	19	73	122	38	1104	1191	2435	464	48	352	19.74	1.004747100912904	25.4	1.003641746854182	4449.494140625	-7309.81103515625	41.900001525878906	2	12	0.6700000166893005	7.737060546875	3	0	0.0	0.0	0.0	0.0	0.0768736556477024	0.0	0.0	0.1446935367965308	0.0143569355999999	-0.5455635528	9.827322418199998	-0.6767178773880005	-0.2422675341367721	-0.6470333337783813	0.2543761432170868	6	44.82490234375	-73.16351725260417	0.430708068	-9.870393225	-0.107677017	0.6604190376	-9.7842516114	0.1363908882	-0.005803219742	0.006414084978	0.014049900427999999	0.022296581114	0.037262779396	0.011606439484	-0.32016	1.30674	1.15246	0.64032	0.69078	1.4123	0.5455635528	-9.827322418200001	0.014356935600000002	0.008246680686	0.021838432187	0.012828169955999998	0.16008	0.99876	1.28238	13.65088	1.41216	10.35584	1.004194423883543	22.57
97546	0	10342819	46	-1369	-61	-14	54	51	-537	2250	1974	71	-1356	-13	81	135	27	1099	1200	2407	256	0	256	19.74	1.0048457932395756	25.41	1.003760177646188	4449.494140625	-7309.81103515625	41.900001525878906	2	12	0.6700000166893005	7.73297119140625	3	0	0.0	0.0	0.0	0.0	0.0635890124527038	0.0	0.0	0.1133534683430496	-0.2656033086	-0.4199403663	9.7806623775	-0.676701545715332	-0.2422941029071808	-0.6470584273338318	0.254330426454544	6	44.82490234375	-73.16351725260417	0.3302095188	-9.8273224182	-0.43788653580000003	0.5096712138	-9.7340023368	-0.0933200814	-0.004276056651999999	0.016493361372	0.015577063518	0.024740042057999997	0.041233403429999996	0.008246680686	-0.31146	1.305	1.14492	0.63742	0.696	1.39606	0.4199403663	-9.7806623775	-0.26560330860000003	0.010231992702999999	0.028863382400999997	0.011911872102	0.16297999999999999	1.0005	1.2704900000000001	7.53152	0.0	7.53152	1.0043029854428818	22.575
97547	0	10342925	34	-1370	-98	-16	16	44	-537	2250	1974	72	-1363	-45	75	126	24	1099	1200	2407	352	-48	272	19.73	1.0047372316802368	25.41	1.003819393042191	4449.494140625	-7309.81103515625	41.900001525878906	2	12	0.6700000166893005	7.7452392578125	3	0	0.0	0.0	0.0	0.0	-0.0003791258129249	0.0	0.0	0.0346186496861902	-0.5132604477	-0.3804587934	9.809376248699998	-0.6115272045135498	-0.3693959414958954	-0.5824480652809143	0.38773113489151	6	44.82490234375	-73.16351725260417	0.24406790520000002	-9.834500886	-0.7034898444000001	0.5168496816	-9.7842516114	-0.323031051	-0.004886921888	0.004886921888	0.013439035192	0.02290744635	0.038484509868	0.007330382832	-0.31146	1.305	1.14492	0.63742	0.696	1.39606	0.3804587934	-9.809376248700001	-0.5132604477	0.009010262231	0.021685715878	0.010384709012	0.16297999999999999	1.0005	1.2704900000000001	10.35584	-1.41216	8.00224	1.004278312361214	22.57
97548	0	10343030	42	-1373	-62	6	-36	50	-538	2245	1978	70	-1370	-13	106	57	28	1110	1207	2413	288	128	256	19.73	1.0047273624475697	25.41	1.0039180853688623	4449.494140625	-7309.81103515625	41.900001525878906	2	12	0.6700000166893005	7.75750732421875	3	0	0.0	0.0	0.0	0.0	-0.0698009518473146	0.0	0.0	-0.0415844113859875	-0.2691925424999999	-0.4019941967999999	9.845268587699998	-0.6115816831588745	-0.3693051338195801	-0.582430899143219	0.3877575695514679	6	44.82490234375	-73.16351725260417	0.3014956476	-9.8560362894	-0.4450650036	0.502492746	-9.834500886	-0.0933200814	0.001832595708	-0.010995574248	0.0152716309	0.032375857508	0.017409659225999997	0.008552113303999999	-0.31204	1.3021	1.14724	0.6438	0.70006	1.39954	0.40199419680000004	-9.845268587700001	-0.2691925425	0.017104226607999998	0.0032070424889999987	0.011911872102	0.16588000000000003	1.00108	1.27339	8.47296	3.76576	7.53152	1.004322723908216	22.57
97549	0	10343136	45	-1370	-51	-15	-6	63	-538	2245	1978	81	-1358	-7	76	104	39	1110	1207	2413	336	48	336	19.73	1.0047372316802368	25.41	1.0039674315321985	4449.494140625	-7309.81103515625	41.900001525878906	2	12	0.6700000166893005	7.740638732910156	3	0	0.0	0.0	0.0	0.0	-0.1564721909319512	0.0	0.0	-0.127263673568081	-0.2081755662	-0.4522434713999999	9.791430079199998	-0.6116185188293457	-0.3691346347332001	-0.582467794418335	0.3878063857555389	6	44.82490234375	-73.16351725260417	0.323031051	-9.834500886	-0.36610185780000004	0.5814558918	-9.7483592724	-0.050249274600000005	-0.00458148927	-0.001832595708	0.019242254934	0.023212878968	0.031764992272	0.011911872102	-0.31204	1.3021	1.14724	0.6438	0.70006	1.39954	0.4522434714	-9.791430079200001	-0.20817556620000002	0.009315694849	0.014966198282	0.015577063518	0.16588000000000003	1.00108	1.27339	9.88512	1.41216	9.88512	1.0043523316062175	22.57
97550	0	10343241	50	-1375	-73	-20	10	64	-539	2274	1988	82	-1357	-9	63	121	58	1077	1141	2400	400	80	336	19.73	1.0047273624475697	25.41	1.003720700715519	4449.494140625	-7309.81103515625	41.900001525878906	2	12	0.6700000166893005	7.74932861328125	3	0	0.0	0.0	0.0	0.0	-0.1642264481295658	0.0	0.0	-0.1214871939727468	-0.2943171798	-0.4737788747999999	9.8057870148	-0.6115674376487732	-0.369021862745285	-0.5825222730636597	0.387912392616272	6	44.82490234375	-73.16351725260417	0.35892339	-9.870393225	-0.5240281494	0.5886343596	-9.7411808046	-0.0646062102	-0.0061086523599999994	0.0030543261799999997	0.019547687552	0.019242254934	0.036957346778	0.017715091844	-0.31262	1.31892	1.15304	0.62466	0.66178	1.392	0.4737788748	-9.8057870148	-0.2943171798	0.006566801287	0.020005836479	0.018631389698	0.15602	0.9903500000000001	1.27252	11.768	2.3536	9.88512	1.0042240315815443	22.57
97551	0	10343347	28	-1375	-88	5	-36	52	-530	2250	1973	58	-1361	-28	88	29	34	1077	1141	2400	352	112	368	19.73	1.0045201085615594	25.41	1.0037108314828522	4449.494140625	-7309.81103515625	41.900001525878906	2	12	0.6700000166893005	7.743194580078125	3	0	0.0	0.0	0.0	0.0	-0.2110960812034337	0.0	0.0	-0.1555139345912752	-0.4163511324	-0.3086741154	9.8201439504	-0.6115220785140991	-0.3690314292907715	-0.5825120210647583	0.3879900872707367	6	44.82490234375	-73.16351725260417	0.20099709840000002	-9.870393225	-0.6317051664000001	0.4163511324	-9.7698946758	-0.20099709840000002	0.0015271630899999999	-0.010995574248	0.015882496136	0.026878070384	0.008857545922	0.010384709011999999	-0.3074	1.305	1.14434	0.62466	0.66178	1.392	0.3086741154	-9.8201439504	-0.41635113240000005	0.014202616736999999	-0.0010690141629999999	0.013133602573999998	0.15863	0.98339	1.26817	10.35584	3.29504	10.82656	1.0041154700222057	22.57
97552	0	10343452	13	-1373	-47	15	-37	37	-530	2250	1973	42	-1365	-1	106	54	15	1113	1170	2435	336	-16	240	19.74	1.004806316308907	25.41	1.003760177646188	4449.494140625	-7309.81103515625	41.900001525878906	2	12	0.6700000166893005	7.726837158203125	3	0	0.0	0.0	0.0	0.0	-0.2331841633306271	0.0	0.0	-0.160455702093307	-0.1722832271999999	-0.1974078644999999	9.827322418199998	-0.6115711331367493	-0.3689612150192261	-0.5825716257095337	0.3878899812698364	6	44.82490234375	-73.16351725260417	0.0933200814	-9.8560362894	-0.3373879866	0.3014956476	-9.798608547	-0.0071784678	0.00458148927	-0.011301006866	0.011301006866	0.032375857508	0.016493361372	0.00458148927	-0.3074	1.305	1.14434	0.64554	0.6786	1.4123	0.19740786450000003	-9.827322418200001	-0.1722832272	0.018478673389	0.0025961772529999993	0.007941248068	0.16907	0.9918	1.27832	9.88512	-0.47072	7.0608	1.0042832469775473	22.575
97553	0	10343558	44	-1372	-33	-2	-11	60	-564	2243	1979	67	-1363	10	106	106	36	1113	1170	2435	240	64	352	19.74	1.0046385393535653	25.41	1.003770046878855	4449.494140625	-7309.81103515625	41.900001525878906	2	12	0.6700000166893005	7.743194580078125	3	0	0.0	0.0	0.0	0.0	-0.2350559764113598	0.0	0.0	-0.1425402283337294	-0.0825523797	-0.3984049628999999	9.8165547165	-0.6117327213287354	-0.3687734007835388	-0.5825601816177368	0.3878311514854431	6	44.82490234375	-73.16351725260417	0.31585258320000004	-9.848857821600001	-0.2368894374	0.4809573426	-9.7842516114	0.071784678	-0.000610865236	-0.003359758798	0.01832595708	0.032375857508	0.032375857508	0.010995574248	-0.32712	1.30094	1.14782	0.64554	0.6786	1.4123	0.39840496290000005	-9.8165547165	-0.08255237970000001	0.015882496136	0.014508049354999998	0.014660765664	0.15921	0.98977	1.2800600000000002	7.0608	1.88288	10.35584	1.00420429311621	22.575
97554	0	10343663	31	-1373	-98	-42	89	57	-564	2243	1979	69	-1362	-30	33	179	29	1110	1219	2426	320	0	320	19.75	1.0047076239822357	25.41	1.003622008388848	4449.494140625	-7309.81103515625	41.900001525878906	2	12	0.6700000166893005	7.743705749511719	3	0	0.0	0.0	0.0	0.0	-0.241655985782885	0.0	0.0	-0.1311566538381463	-0.4594219391999999	-0.3589233899999999	9.8165547165	-0.6118459105491638	-0.3686160445213318	-0.5826394557952881	0.3876830339431762	6	44.82490234375	-73.16351725260417	0.2225325018	-9.8560362894	-0.7034898444000001	0.4953142782	-9.777073143600001	-0.215354034	-0.012828169956	0.027183503002	0.017409659225999997	0.010079276394	0.054672438622	0.008857545922	-0.32712	1.30094	1.14782	0.6438	0.70702	1.40708	0.35892339	-9.8165547165	-0.4594219392	-0.0013744467810000004	0.040927970811999996	0.013133602573999998	0.15834	1.0039799999999999	1.27745	9.4144	0.0	9.4144	1.0041648161855419	22.58
97555	0	10343768	20	-1377	-85	-22	75	56	-571	2232	1989	66	-1362	-34	70	181	45	1110	1219	2426	240	32	416	19.74	1.0045891931902295	25.41	1.003770046878855	4449.494140625	-7309.81103515625	41.900001525878906	2	12	0.6700000166893005	7.743194580078125	3	0	0.0	0.0	0.0	0.0	-0.1723354301962033	0.0	0.0	-0.0471258765177985	-0.4271188340999999	-0.3086741154	9.8309116521	-0.6117464303970337	-0.3686387538909912	-0.5826951265335083	0.3877348303794861	6	44.82490234375	-73.16351725260417	0.143569356	-9.884750160600001	-0.610169763	0.4737788748	-9.777073143600001	-0.24406790520000002	-0.006719517596	0.02290744635	0.017104226607999998	0.021380283259999997	0.055283303857999996	0.01374446781	-0.33118	1.29456	1.15362	0.6438	0.70702	1.40708	0.3086741154	-9.830911652100001	-0.4271188341	0.007330382831999998	0.039095375104	0.015424347209	0.15631000000000003	1.0007899999999998	1.28035	7.0608	0.94144	12.23872	1.0041796200345423	22.575
97556	0	10343874	14	-1371	-40	-8	79	37	-571	2232	1989	52	-1362	4	90	160	13	1084	1172	2445	416	80	400	19.74	1.0046484085862324	25.41	1.0036614853195165	4449.494140625	-7309.81103515625	41.900001525878906	2	12	0.6700000166893005	7.7380828857421875	3	0	0.0	0.0	0.0	0.0	-0.1605757479475235	0.0	0.0	-0.0273112818787601	-0.1292124203999999	-0.2368894373999999	9.8093762487	-0.5921043753623962	-0.3987939357757568	-0.5578811764717102	0.4232547283172607	6	44.82490234375	-73.16351725260417	0.10049854920000001	-9.8416793538	-0.287138712	0.3732803256	-9.777073143600001	0.0287138712	-0.002443460944	0.024129176821999998	0.011301006866	0.02748893562	0.048869218879999995	0.003970624034	-0.33118	1.29456	1.15362	0.6287200000000001	0.67976	1.4181	0.2368894374	-9.809376248700001	-0.1292124204	0.012522737337999999	0.036499197851	0.00763581545	0.14877000000000004	0.98716	1.28586	12.23872	2.3536	11.768	1.0041549469528745	22.575
97557	0	10343979	45	-1374	-61	-19	63	38	-567	2251	1978	84	-1358	3	50	152	8	1084	1172	2445	320	80	432	19.73	1.0045793239575622	25.4	1.0037404391808538	4449.494140625	-7309.81103515625	41.900001525878906	2	12	0.6700000166893005	7.747795104980469	3	0	0.0	0.0	0.0	0.0	-0.1767705009506023	0.0	0.0	-0.0405858527937411	-0.2081755662	-0.4630111730999999	9.8057870148	-0.5921072959899902	-0.3986191749572754	-0.5579940676689148	0.4232664108276367	6	44.82490234375	-73.16351725260417	0.323031051	-9.8632147572	-0.43788653580000003	0.6029912952	-9.7483592724	0.0215354034	-0.005803219742	0.019242254934	0.011606439484	0.0152716309	0.046425757936	0.002443460944	-0.32886	1.30558	1.14724	0.6287200000000001	0.67976	1.4181	0.46301117310000006	-9.8057870148	-0.20817556620000002	0.004734205579	0.032834006435	0.0070249502139999994	0.14993000000000004	0.9926699999999999	1.28267	9.4144	2.3536	12.70944	1.0041598815692079	22.564999999999998
97558	0	10344085	65	-1363	-75	-9	59	68	-567	2251	1978	103	-1351	-22	95	140	35	1072	1184	2396	240	112	288	19.74	1.0045398470268936	25.42	1.0037404391808538	4449.494140625	-7309.81103515625	41.900001525878906	2	12	0.6700000166893005	7.752906799316406	3	0	0.0	0.0	0.0	0.0	-0.0832593918509826	0.0	0.0	0.0610951750220489	-0.3481556883	-0.6029912951999999	9.7411808046	-0.5923138856887817	-0.3984086215496063	-0.5580139756202698	0.4231491684913635	6	44.82490234375	-73.16351725260417	0.466600407	-9.7842516114	-0.538385085	0.7393821834000001	-9.6981099978	-0.15792629160000002	-0.002748893562	0.018020524462	0.020769418023999998	0.029016098709999997	0.042760566519999994	0.010690141629999999	-0.32886	1.30558	1.14724	0.62176	0.68672	1.38968	0.6029912952	-9.741180804599999	-0.34815568830000004	0.013133602573999998	0.030390545490999996	0.015729779827	0.14645	0.99615	1.2684600000000001	7.0608	3.29504	8.47296	1.0041401431038737	22.58
97559	0	10344190	48	-1368	-37	16	57	88	-538	2247	1991	79	-1356	3	109	134	67	1072	1184	2396	304	128	224	19.72	1.0047668393782383	25.41	1.0036713545521836	4449.494140625	-7309.81103515625	41.900001525878906	2	12	0.6700000166893005	7.749839782714844	3	0	0.0	0.0	0.0	0.0	-0.0830369830782449	0.0	0.0	0.0532540852089241	-0.1220339526	-0.4558327053	9.7770731436	-0.5925151705741882	-0.3982021510601043	-0.5579753518104553	0.4231127500534057	6	44.82490234375	-73.16351725260417	0.3445664544	-9.8201439504	-0.26560330860000003	0.5670989562000001	-9.7340023368	0.0215354034	0.004886921888	0.017409659225999997	0.026878070384	0.033292155361999996	0.040927970811999996	0.020463985405999998	-0.31204	1.30326	1.15478	0.62176	0.68672	1.38968	0.45583270530000003	-9.7770731436	-0.12203395260000002	0.019089538625	0.029168815018999997	0.023671027895	0.15486	0.99499	1.27223	8.94368	3.76576	6.59008	1.004219096965211	22.564999999999998
97560	0	10344296	35	-1374	-77	-35	76	67	-538	2247	1991	65	-1358	-25	59	176	47	1083	1179	2436	288	160	352	19.74	1.0046484085862324	25.41	1.003829262274858	4449.494140625	-7309.81103515625	41.900001525878906	2	12	0.6700000166893005	7.741661071777344	3	0	0.0	0.0	0.0	0.0	-0.1494557907017382	0.0	0.0	-0.019865618943844	-0.3661018578	-0.3589233899999999	9.8057870148	-0.5925828814506531	-0.3979246318340301	-0.5580483675003052	0.4231827855110168	6	44.82490234375	-73.16351725260417	0.251246373	-9.8632147572	-0.5527420206	0.466600407	-9.7483592724	-0.179461695	-0.010690141629999999	0.023212878968	0.020463985405999998	0.018020524462	0.053756140768	0.014355333045999999	-0.31204	1.30326	1.15478	0.62814	0.68382	1.41288	0.35892339	-9.8057870148	-0.3661018578	0.003665191416000001	0.038484509868	0.017409659225999997	0.15805000000000002	0.9935400000000001	1.28383	8.47296	4.7072	10.35584	1.0042388354305452	22.575
97561	0	10344401	58	-1371	-102	-39	39	44	-566	2231	1984	88	-1360	-50	63	138	14	1074	1188	2419	352	96	304	19.73	1.0046681470515668	25.41	1.0037108314828522	4449.494140625	-7309.81103515625	41.900001525878906	2	12	0.6700000166893005	7.759552001953125	3	0	0.0	0.0	0.0	0.0	-0.090187878228825	0.0	0.0	0.0455461754596629	-0.5455635528	-0.5240281494	9.802197780899998	-0.5925422310829163	-0.397746205329895	-0.5581315159797668	0.4232974946498871	6	44.82490234375	-73.16351725260417	0.4163511324	-9.8416793538	-0.7322037156000001	0.6317051664000001	-9.762716208	-0.35892339	-0.011911872102	0.011911872102	0.013439035192	0.019242254934	0.042149701283999995	0.004276056651999999	-0.32828	1.29398	1.15072	0.62292	0.68904	1.40302	0.5240281494000001	-9.8021977809	-0.5455635528	0.003665191416	0.027030786693	0.008857545921999999	0.14732	0.9915099999999999	1.27687	10.35584	2.82432	8.94368	1.0041894892672096	22.57
97562	0	10344507	52	-1370	-42	1	-57	30	-566	2231	1984	87	-1364	4	89	29	6	1074	1188	2419	352	48	272	19.74	1.0045990624228966	25.41	1.0037799161115224	4449.494140625	-7309.81103515625	41.900001525878906	2	12	0.6700000166893005	7.733482360839844	3	0	0.0	0.0	0.0	0.0	-0.1132571620434323	0.0	0.0	0.0165781571768553	-0.1363908881999999	-0.4989035120999999	9.8129654826	-0.5924513936042786	-0.3977766335010528	-0.5582032799720764	0.4233016967773437	6	44.82490234375	-73.16351725260417	0.3732803256	-9.834500886	-0.3014956476	0.6245266986	-9.7914300792	0.0287138712	0.000305432618	-0.017409659225999997	0.00916297854	0.027183503002	0.008857545922	0.001832595708	-0.32828	1.29398	1.15072	0.62292	0.68904	1.40302	0.4989035121	-9.8129654826	-0.1363908882	0.01374446781	-0.0042760566519999986	0.005497787124	0.14732	0.9915099999999999	1.27687	10.35584	1.41216	8.00224	1.0041894892672096	22.575
97563	0	10344612	22	-1372	-63	-1	-2	51	-550	2241	2001	58	-1359	-5	94	74	32	1085	1175	2466	352	48	368	19.73	1.004678016284234	25.42	1.0038884776708612	4449.494140625	-7309.81103515625	41.900001525878906	2	12	0.6700000166893005	7.744728088378906	3	0	0.0	0.0	0.0	0.0	-0.105934137434997	0.0	0.0	0.0199771117786343	-0.2440679052	-0.2871387119999999	9.802197780899998	-0.5924841165542603	-0.3978427946567535	-0.5582953095436096	0.4230722784996032	6	44.82490234375	-73.16351725260417	0.15792629160000002	-9.848857821600001	-0.45224347140000004	0.4163511324	-9.755537740200001	-0.035892339	-0.000305432618	-0.000610865236	0.015577063518	0.028710666091999997	0.022602013732	0.009773843776	-0.319	1.29978	1.16058	0.6293	0.6815	1.43028	0.287138712	-9.802197780900002	-0.24406790520000002	0.014202616736999999	0.010995574248	0.012675453646999998	0.15514999999999998	0.99064	1.29543	10.35584	1.41216	10.82656	1.0042832469775476	22.575000000000003
97564	0	10344718	17	-1376	-63	6	76	62	-550	2241	2001	51	-1364	-7	86	148	39	1085	1175	2466	320	48	336	19.75	1.0047569701455712	25.41	1.003720700715519	4449.494140625	-7309.81103515625	41.900001525878906	2	12	0.6700000166893005	7.739105224609375	3	0	0.0	0.0	0.0	0.0	-0.1351616173578804	0.0	0.0	-0.012854966190742	-0.2512463729999999	-0.2440679052	9.834500886	-0.5924937725067139	-0.397750049829483	-0.5584562420845032	0.4229335188865661	6	44.82490234375	-73.16351725260417	0.12203395260000001	-9.8775716928	-0.45224347140000004	0.36610185780000004	-9.7914300792	-0.050249274600000005	0.001832595708	0.023212878968	0.018936822316	0.026267205148	0.045204027464	0.011911872102	-0.319	1.29978	1.16058	0.6293	0.6815	1.43028	0.24406790520000002	-9.834500886	-0.251246373	0.014049900428	0.034208453215999995	0.015424347209	0.15514999999999998	0.99064	1.29543	9.4144	1.41216	9.88512	1.0042388354305452	22.58
97565	0	10344823	41	-1374	-41	-11	40	69	-549	2256	1979	64	-1364	2	76	133	32	1118	1201	2411	240	64	240	19.75	1.0046582778188995	25.41	1.0038095238095237	4449.494140625	-7309.81103515625	41.900001525878906	2	12	0.6700000166893005	7.726837158203125	3	0	0.0	0.0	0.0	0.0	-0.1365946022470882	0.0	0.0	-0.0122404506492049	-0.1399801221	-0.3768695595	9.8273224182	-0.5926433205604553	-0.3974442183971405	-0.5584836006164551	0.4229751229286194	6	44.82490234375	-73.16351725260417	0.2943171798	-9.8632147572	-0.2943171798	0.4594219392	-9.7914300792	0.0143569356	-0.003359758798	0.012217304719999999	0.021074850641999997	0.023212878968	0.040622538193999996	0.009773843776	-0.31842	1.30848	1.14782	0.64844	0.69658	1.39838	0.3768695595	-9.8273224182	-0.1399801221	0.009926560085	0.026419921457	0.015424347209	0.16501000000000002	1.0025300000000001	1.2731	7.0608	1.88288	7.0608	1.0042339008142116	22.58
97566	0	10344928	65	-1366	-76	-40	-17	56	-549	2256	1979	94	-1365	-22	55	96	38	1118	1201	2411	288	-16	288	19.74	1.004687885516901	25.41	1.0037108314828522	4449.494140625	-7309.81103515625	41.900001525878906	2	12	0.6700000166893005	7.763641357421875	3	0	0.0	0.0	0.0	0.0	-0.1559945637596651	0.0	0.0	-0.0286096559323051	-0.3517449222	-0.5706881900999999	9.802197780899998	-0.6329246759414673	-0.3300723135471344	-0.6109805107116699	0.3422885537147522	6	44.82490234375	-73.16351725260417	0.466600407	-9.8057870148	-0.5455635528	0.6747759732	-9.798608547	-0.15792629160000002	-0.012217304719999999	-0.005192354505999999	0.017104226607999998	0.016798793989999998	0.029321531328	0.011606439484	-0.31842	1.30848	1.14782	0.64844	0.69658	1.39838	0.5706881901	-9.8021977809	-0.35174492220000003	0.0022907446349999996	0.012064588411	0.014355333045999999	0.16501000000000002	1.0025300000000001	1.2731	8.47296	-0.47072	8.47296	1.0041993584998767	22.575
97567	0	10345034	44	-1367	-87	-8	-15	50	-559	2260	1980	78	-1363	-35	102	79	30	1085	1191	2422	288	96	304	19.75	1.0047076239822357	25.42	1.003631877621515	4449.494140625	-7309.81103515625	41.900001525878906	2	12	0.6700000166893005	7.739105224609375	3	0	0.0	0.0	0.0	0.0	-0.0722573140612878	0.0	0.0	0.0605068309769217	-0.4378865358	-0.4378865358	9.798608547	-0.6330007910728455	-0.3299731314182281	-0.6109879612922668	0.3422300815582275	6	44.82490234375	-73.16351725260417	0.31585258320000004	-9.812965482600001	-0.6245266986	0.5599204884	-9.7842516114	-0.251246373	-0.002443460944	-0.00458148927	0.0152716309	0.031154127036	0.024129176821999998	0.00916297854	-0.32422	1.3108	1.1484	0.6293	0.69078	1.40476	0.43788653580000003	-9.798608547	-0.43788653580000003	0.014355333045999999	0.009773843776	0.012217304719999999	0.15253999999999998	1.0007899999999998	1.27658	8.47296	2.82432	8.94368	1.0041697508018754	22.585
97568	0	10345139	38	-1372	-54	6	43	39	-559	2260	1980	80	-1363	-14	107	146	25	1085	1191	2422	464	-16	320	19.75	1.0046681470515668	25.41	1.0036614853195165	4449.494140625	-7309.81103515625	41.900001525878906	2	12	0.6700000166893005	7.74932861328125	3	0	0.0	0.0	0.0	0.0	-0.0287085070726606	0.0	0.0	0.0960441119334067	-0.2440679052	-0.4235296001999999	9.8165547165	-0.6330667734146118	-0.3299194276332855	-0.6111117601394653	0.3419387638568878	6	44.82490234375	-73.16351725260417	0.2727817764	-9.848857821600001	-0.3876372612	0.574277424	-9.7842516114	-0.10049854920000001	0.001832595708	0.013133602574	0.011911872102	0.032681290126	0.044593162228	0.00763581545	-0.32422	1.3108	1.1484	0.6293	0.69078	1.40476	0.4235296002	-9.8165547165	-0.24406790520000002	0.017256942916999998	0.028863382401	0.009773843776	0.15253999999999998	1.0007899999999998	1.27658	13.65088	-0.47072	9.4144	1.0041648161855417	22.58
97569	0	10345245	32	-1373	-68	-14	142	53	-569	2254	1954	72	-1363	-8	63	227	26	1076	1214	2425	336	-48	336	19.74	1.004806316308907	25.41	1.0036614853195165	4449.494140625	-7309.81103515625	41.900001525878906	2	12	0.6700000166893005	7.739105224609375	3	0	0.0	0.0	0.0	0.0	0.0015124611597759	0.0	0.0	0.1183795051398906	-0.2727817764	-0.3732803256	9.8201439504	-0.6330364346504211	-0.3298187851905823	-0.6113523244857788	0.3416617214679718	6	44.82490234375	-73.16351725260417	0.2297109696	-9.8560362894	-0.48813581040000004	0.5168496816	-9.7842516114	-0.0574277424	-0.004276056651999999	0.043371431756	0.016187928754	0.019242254934	0.069333204286	0.007941248068	-0.33002	1.30732	1.13332	0.62408	0.70412	1.4065	0.3732803256	-9.8201439504	-0.2727817764	0.007483099141	0.056352318021	0.012064588410999999	0.14703	1.00572	1.26991	9.88512	-1.41216	9.88512	1.0042339008142118	22.575
97570	0	10345350	59	-1374	-40	-42	40	72	-569	2254	1954	100	-1365	5	72	145	55	1076	1214	2425	336	-16	272	19.75	1.0047569701455712	25.41	1.0038687392055268	4449.494140625	-7309.81103515625	41.900001525878906	2	12	0.6700000166893005	7.7615966796875	3	0	0.0	0.0	0.0	0.0	0.0030662970278808	0.0	0.0	0.1048135901709562	-0.1256231864999999	-0.5706881900999999	9.8309116521	-0.6329752802848816	-0.3296539187431335	-0.6114869117736816	0.3416934311389923	6	44.82490234375	-73.16351725260417	0.4235296002	-9.8632147572	-0.287138712	0.71784678	-9.798608547	0.035892339	-0.012828169956	0.012217304719999999	0.021991148496	0.021991148496	0.04428772961	0.016798793989999998	-0.33002	1.30732	1.13332	0.62408	0.70412	1.4065	0.5706881901	-9.8309116521	-0.1256231865	0.00458148927	0.028252517164999998	0.019394971243	0.14703	1.00572	1.26991	9.88512	-0.47072	8.00224	1.004312854675549	22.58
97571	0	10345456	46	-1366	-67	-24	-3	79	-535	2253	2007	82	-1363	-7	60	104	56	1104	1158	2414	368	16	368	19.75	1.0047569701455712	25.42	1.0037897853441895	4449.494140625	-7309.81103515625	41.900001525878906	2	12	0.6700000166893005	7.737060546875	3	0	0.0	0.0	0.0	0.0	-0.0331420195034183	0.0	0.0	0.0545586074672795	-0.2656033086	-0.4594219391999999	9.7950193131	-0.6330426931381226	-0.3294590711593628	-0.6114601492881775	0.3418043851852417	6	44.82490234375	-73.16351725260417	0.3302095188	-9.8057870148	-0.4809573426	0.5886343596	-9.7842516114	-0.050249274600000005	-0.007330382832	-0.000916297854	0.024129176821999998	0.01832595708	0.031764992272	0.017104226607999998	-0.3103	1.30674	1.16406	0.64032	0.67164	1.40012	0.45942193919999996	-9.7950193131	-0.26560330860000003	0.005497787124	0.015424347209	0.020616701714999998	0.16501	0.98919	1.2820900000000002	10.82656	0.47072	10.82656	1.0042733777448802	22.585
97572	0	10345561	53	-1372	-86	-13	23	41	-536	2255	1997	79	-1358	-27	67	116	20	1104	1158	2414	240	176	384	19.74	1.0046385393535653	25.42	1.0038391315075252	4449.49462890625	-7309.81103515625	41.900001525878906	2	12	0.6700000166893005	7.75341796875	3	0	0.0	0.0	0.0	0.0	-0.0477222967795395	0.0	0.0	0.0334818079336674	-0.4055834306999999	-0.4737788747999999	9.798608547	-0.6330416202545166	-0.3293101787567138	-0.6115497350692749	0.341789573431015	6	44.824910481770836	-73.16351725260417	0.3804587934	-9.848857821600001	-0.6173482308	0.5670989562000001	-9.7483592724	-0.1938186306	-0.003970624034	0.0070249502139999994	0.012522737337999999	0.020463985405999998	0.035430183688	0.0061086523599999994	-0.31088	1.3079	1.15826	0.64032	0.67164	1.40012	0.4737788748	-9.798608547	-0.4055834307	0.008246680686	0.021227566951	0.009315694848999998	0.16472	0.98977	1.27919	7.0608	5.17792	11.29728	1.0042388354305452	22.58
97573	0	10345667	53	-1363	-65	5	41	39	-536	2255	1997	89	-1363	-12	93	144	15	1070	1159	2402	400	80	336	19.75	1.0046681470515668	25.41	1.0038095238095237	4449.49462890625	-7309.81103515625	41.900001525878906	2	12	0.6700000166893005	7.759040832519531	3	0	0.0	0.0	0.0	0.0	-0.0271641178780295	0.0	0.0	0.0492941840113642	-0.2763710103	-0.5096712137999999	9.784251611399998	-0.6329514980316162	-0.329287588596344	-0.6117371320724487	0.3416429162025451	6	44.824910481770836	-73.16351725260417	0.3804587934	-9.7842516114	-0.466600407	0.6388836342	-9.7842516114	-0.0861416136	0.0015271630899999999	0.012522737337999999	0.011911872102	0.028405233473999997	0.043982296992	0.00458148927	-0.31088	1.3079	1.15826	0.6206	0.67222	1.39316	0.5096712138	-9.7842516114	-0.2763710103	0.014966198281999998	0.028252517164999998	0.008246680686	0.15486000000000003	0.99006	1.2757100000000001	11.768	2.3536	9.88512	1.0042388354305452	22.58
97574	0	10345772	18	-1377	-72	-9	-48	65	-548	2260	1983	57	-1359	-10	82	51	36	1070	1159	2402	416	80	432	19.75	1.0045201085615594	25.41	1.0036713545521836	4449.49462890625	-7309.81103515625	41.900001525878906	2	12	0.6700000166893005	7.75341796875	3	0	0.0	0.0	0.0	0.0	-0.0001053265176948	0.0	0.0	0.0731910673036866	-0.2943171798	-0.2691925424999999	9.8201439504	-0.6329976320266724	-0.3293865025043487	-0.6118029952049255	0.3413439691066742	6	44.824910481770836	-73.16351725260417	0.1292124204	-9.884750160600001	-0.5168496816	0.4091726646	-9.755537740200001	-0.071784678	-0.002748893562	-0.014660765664	0.01985312017	0.025045474675999997	0.015577063518	0.010995574248	-0.31784	1.3108	1.15014	0.6206	0.67222	1.39316	0.2691925425	-9.820143950400002	-0.2943171798	0.011148290556999998	0.00045814892699999957	0.015424347209	0.15138000000000001	0.99151	1.27165	12.23872	2.3536	12.70944	1.0040957315568715	22.58
97575	0	10345877	-2	-1367	-87	-5	-17	68	-548	2260	1983	21	-1363	-26	90	78	55	1104	1206	2417	432	64	400	19.74	1.0046484085862324	25.4	1.0037009622501851	4449.49462890625	-7309.81103515625	41.79999923706055	2	12	0.6700000166893005	7.737060546875	3	0	0.0	0.0	0.0	0.0	-0.045628972323074	0.0	0.0	0.0221189035048986	-0.4055834306999999	-0.0681954440999999	9.798608547	-0.6779871582984924	-0.2316456437110901	-0.6551231741905212	0.2397651523351669	6	44.824910481770836	-73.16351725260417	-0.0143569356	-9.812965482600001	-0.6245266986	0.1507478238	-9.7842516114	-0.1866401628	-0.0015271630899999999	-0.005192354505999999	0.020769418023999998	0.02748893562	0.023823744204	0.016798793989999998	-0.31784	1.3108	1.15014	0.64032	0.69948	1.40186	0.0681954441	-9.798608547	-0.4055834307	0.012980886265	0.009315694849	0.018784106007	0.16124	1.00514	1.276	12.70944	1.88288	11.768	1.0041746854182088	22.57
97576	0	10345983	40	-1374	-28	1	-47	58	-553	2248	1954	82	-1367	13	73	45	30	1100	1202	2435	288	64	352	19.75	1.0046582778188995	25.41	1.003878608438194	4449.49462890625	-7309.81103515625	41.79999923706055	2	12	0.6700000166893005	7.7483062744140625	3	0	0.0	0.0	0.0	0.0	-0.1187102687571697	0.0	0.0	-0.0562932373922413	-0.0538385085	-0.4378865358	9.8380901199	-0.6781054735183716	-0.2310365587472915	-0.6552202701568604	0.2397530823945999	6	44.824910481770836	-73.16351725260417	0.287138712	-9.8632147572	-0.20099709840000002	0.5886343596	-9.812965482600001	0.0933200814	0.000305432618	-0.014355333045999999	0.017715091844	0.022296581114	0.01374446781	0.00916297854	-0.32074	1.30384	1.13332	0.638	0.69716	1.4123	0.43788653580000003	-9.8380901199	-0.05383850850000001	0.011301006866	-0.0003054326179999997	0.013439035192000001	0.15863	1.0005000000000002	1.2728100000000002	8.47296	1.88288	10.35584	1.004268443128547	22.58
97577	0	10346088	56	-1378	-69	-18	-36	57	-553	2248	1954	90	-1360	-17	59	61	31	1100	1202	2435	416	0	304	19.74	1.0047964470762398	25.41	1.0037108314828522	4449.49462890625	-7309.81103515625	41.79999923706055	2	12	0.6700000166893005	7.775909423828125	3	0	0.0	0.0	0.0	0.0	-0.0996102899567428	0.0	0.0	-0.0300327104333078	-0.3086741154	-0.5240281494	9.827322418199998	-0.6782540678977966	-0.2305649518966674	-0.655301570892334	0.2395644634962082	6	44.824910481770836	-73.16351725260417	0.40199419680000004	-9.8919286284	-0.4953142782	0.646062102	-9.762716208	-0.12203395260000001	-0.005497787124	-0.010995574248	0.017409659225999997	0.018020524462	0.018631389698	0.009468411158	-0.32074	1.30384	1.13332	0.638	0.69716	1.4123	0.5240281494000001	-9.827322418200001	-0.3086741154	0.006261368669	0.003817907725	0.013439035191999998	0.15863	1.0005000000000002	1.2728100000000002	12.23872	0.0	8.94368	1.004253639279546	22.575
97578	0	10346194	47	-1373	-74	4	-27	52	-542	2268	1978	83	-1369	-22	111	59	36	1107	1190	2429	320	64	288	19.75	1.0046286701208982	25.41	1.0036614853195165	4449.49462890625	-7309.81103515625	41.79999923706055	2	12	0.6700000166893005	7.75341796875	3	0	0.0	0.0	0.0	0.0	-0.0443538465269836	0.0	0.0	0.0331976276506744	-0.3445664544	-0.4666004069999999	9.8416793538	-0.6781977415084839	-0.2305094003677368	-0.6554260849952698	0.2394364923238754	6	44.824910481770836	-73.16351725260417	0.3373879866	-9.8560362894	-0.5312066172000001	0.5958128274000001	-9.8273224182	-0.15792629160000002	0.001221730472	-0.008246680686	0.015882496136	0.033903020597999996	0.018020524462	0.010995574248	-0.31436000000000003	1.31544	1.14724	0.64206	0.6902	1.40882	0.46660040700000005	-9.8416793538	-0.34456645440000006	0.017562375534999997	0.004886921888000001	0.013439035192	0.16384999999999997	1.00282	1.27803	9.4144	1.88288	8.47296	1.0041450777202074	22.58
97579	0	10346299	30	-1370	-43	4	8	54	-542	2268	1978	56	-1360	4	101	106	39	1107	1190	2429	384	48	320	19.75	1.0047076239822357	25.41	1.003720700715519	4449.49462890625	-7309.81103515625	41.79999923706055	2	12	0.6700000166893005	7.726837158203125	3	0	0.0	0.0	0.0	0.0	0.0358464890548925	0.0	0.0	0.1130658844161132	-0.1399801220999999	-0.3086741154	9.798608547	-0.6782315969467163	-0.2303464561700821	-0.6555922031402588	0.2390428185462951	6	44.824910481770836	-73.16351725260417	0.215354034	-9.834500886	-0.3086741154	0.40199419680000004	-9.762716208	0.0287138712	0.001221730472	0.002443460944	0.016493361372	0.030848694418	0.032375857508	0.011911872102	-0.31436000000000003	1.31544	1.14724	0.64206	0.6902	1.40882	0.3086741154	-9.798608547	-0.1399801221	0.016035212445	0.017409659225999997	0.014202616736999999	0.16384999999999997	1.00282	1.27803	11.29728	1.41216	9.4144	1.0042141623488774	22.58
97580	0	10346405	13	-1375	-73	-15	64	47	-527	2244	1993	50	-1365	-28	77	194	26	1086	1152	2410	336	80	336	19.75	1.00486553170491	25.4	1.0037404391808538	4449.49462890625	-7309.81103515625	41.79999923706055	2	12	0.6700000166893005	7.759552001953125	3	0	0.0	0.0	0.0	0.0	0.0541390119462419	0.0	0.0	0.1177939595610213	-0.3625126239	-0.2261217356999999	9.834500886	-0.6782712936401367	-0.2301866114139557	-0.6557375192642212	0.2386848181486129	6	44.824910481770836	-73.16351725260417	0.0933200814	-9.870393225	-0.5240281494	0.35892339	-9.798608547	-0.20099709840000002	-0.00458148927	0.019547687552	0.014355333045999999	0.023518311586	0.059253927892	0.007941248068	-0.30566	1.30152	1.15594	0.62988	0.66816	1.3978	0.2261217357	-9.834500886	-0.3625126239	0.009468411158	0.039400807722	0.011148290557	0.16211	0.9848399999999999	1.27687	9.88512	2.3536	9.88512	1.004302985442882	22.575
97581	0	10346510	42	-1367	-33	-27	15	52	-527	2244	1993	78	-1365	12	69	88	20	1086	1152	2410	288	32	256	19.74	1.0045891931902295	25.41	1.003829262274858	4449.49462890625	-7309.81103515625	41.900001525878906	2	12	0.6700000166893005	7.7421722412109375	3	0	0.0	0.0	0.0	0.0	0.0711739010888707	0.0	0.0	0.1242676938595637	-0.0753739118999999	-0.4307080679999999	9.8057870148	-0.6781379580497742	-0.2300086170434951	-0.6559792757034302	0.2385713011026382	6	44.824910481770836	-73.16351725260417	0.3014956476	-9.812965482600001	-0.2368894374	0.5599204884	-9.798608547	0.0861416136	-0.008246680686	0.00458148927	0.015882496136	0.021074850641999997	0.026878070384	0.0061086523599999994	-0.30566	1.30152	1.15594	0.62988	0.66816	1.3978	0.430708068	-9.8057870148	-0.0753739119	0.006414084977999999	0.015729779827	0.010995574248	0.16211	0.9848399999999999	1.27687	8.47296	0.94144	7.53152	1.0042092277325438	22.575
97582	0	10346616	66	-1374	-63	-52	18	49	-547	2237	1950	94	-1363	-23	21	121	28	1105	1179	2395	240	32	320	19.75	1.0046582778188995	25.41	1.003720700715519	4449.49462890625	-7309.81103515625	41.900001525878906	2	12	0.6700000166893005	7.759552001953125	3	0	0.0	0.0	0.0	0.0	0.0498034838602317	0.0	0.0	0.0915215475320641	-0.3086741154	-0.5742774239999999	9.8237331843	-0.6780745387077332	-0.2297602146863937	-0.656194806098938	0.2383980304002761	6	44.824910481770836	-73.16351725260417	0.4737788748	-9.8632147572	-0.45224347140000004	0.6747759732	-9.7842516114	-0.1651047594	-0.015882496136	0.005497787124	0.014966198282	0.006414084978	0.036957346778	0.008552113303999999	-0.31726	1.29746	1.131	0.6409	0.68382	1.3891	0.574277424	-9.8237331843	-0.3086741154	-0.004734205578999999	0.021227566951	0.011759155793	0.16182000000000002	0.99064	1.2600500000000001	7.0608	0.94144	9.4144	1.0041894892672092	22.58
97583	0	10346721	54	-1377	-61	-10	61	61	-547	2237	1950	81	-1362	-10	72	146	40	1105	1179	2395	336	-16	272	19.75	1.0047174932149026	25.42	1.0038391315075252	4449.49462890625	-7309.81103515625	41.900001525878906	2	12	0.6700000166893005	7.74114990234375	3	0	0.0	0.0	0.0	0.0	-0.0544507045191044	0.0	0.0	-0.0231351835349136	-0.2548356068999999	-0.4845465764999999	9.8309116521	-0.677955687046051	-0.2296445667743683	-0.6564103364944458	0.2382541298866272	6	44.824910481770836	-73.16351725260417	0.3876372612	-9.884750160600001	-0.43788653580000003	0.5814558918	-9.777073143600001	-0.071784678	-0.0030543261799999997	0.018631389698	0.018631389698	0.021991148496	0.044593162228	0.012217304719999999	-0.31726	1.29746	1.131	0.6409	0.68382	1.3891	0.4845465765	-9.830911652100001	-0.2548356069	0.009468411158	0.031612275963	0.015424347209	0.16182000000000002	0.99064	1.2600500000000001	9.88512	-0.47072	8.00224	1.004278312361214	22.585
97584	0	10346826	54	-1377	-60	-13	80	45	-542	2255	2007	93	-1362	-7	79	167	21	1091	1166	2417	352	128	400	19.75	1.0048260547742414	25.42	1.0038391315075252	4449.49462890625	-7309.81103515625	41.900001525878906	2	12	0.6700000166893005	7.738594055175781	3	0	0.0	0.0	0.0	0.0	-0.1765147567646989	0.0	0.0	-0.1472390899139808	-0.2404786712999999	-0.5276173833	9.8309116521	-0.6778712272644043	-0.2295082509517669	-0.6566566824913025	0.2379466444253921	6	44.824910481770836	-73.16351725260417	0.3876372612	-9.884750160600001	-0.430708068	0.6675975054000001	-9.777073143600001	-0.050249274600000005	-0.003970624034	0.024434609439999998	0.01374446781	0.024129176821999998	0.051007247206	0.006414084978	-0.31436000000000003	1.3079	1.16406	0.63278	0.67628	1.40186	0.5276173833000001	-9.830911652100001	-0.2404786713	0.010079276394	0.037720928323	0.010079276394	0.15921	0.99209	1.28296	10.35584	3.76576	11.768	1.0043325931408833	22.585
97585	0	10346932	66	-1367	-36	4	144	48	-542	2255	2007	96	-1359	6	89	221	22	1091	1166	2417	384	112	352	19.74	1.004697754749568	25.41	1.003819393042191	4449.49462890625	-7309.81103515625	41.900001525878906	2	12	0.6700000166893005	7.746261596679687	3	0	0.0	0.0	0.0	0.0	-0.1529287917118363	0.0	0.0	-0.1081179845452996	-0.107677017	-0.5814558918	9.784251611399998	-0.6964597702026367	-0.1928379088640213	-0.6606346964836121	0.2032711803913116	6	44.824910481770836	-73.16351725260417	0.4737788748	-9.812965482600001	-0.2584248408	0.6891329088	-9.755537740200001	0.0430708068	0.001221730472	0.043982296992	0.014660765664	0.027183503002	0.067500608578	0.006719517596	-0.31436000000000003	1.3079	1.16406	0.63278	0.67628	1.40186	0.5814558918	-9.784251611400002	-0.107677017	0.014202616736999999	0.055741452785	0.01069014163	0.15921	0.99209	1.28296	11.29728	3.29504	10.35584	1.0042585738958794	22.575
97586	0	10347037	41	-1371	-70	-25	-35	52	-543	2266	1979	75	-1363	-10	71	62	27	1082	1168	2399	304	112	320	19.74	1.004806316308907	25.41	1.004026646928201	4449.49462890625	-7309.81103515625	41.900001525878906	2	12	0.6700000166893005	7.745750427246094	3	0	0.0	0.0	0.0	0.0	-0.2950395692223422	0.0	0.0	-0.2448867046020571	-0.2871387119999999	-0.4163511324	9.8129654826	-0.6964722275733948	-0.1927711367607116	-0.660702109336853	0.2030727863311767	6	44.824910481770836	-73.16351725260417	0.2943171798	-9.8416793538	-0.502492746	0.538385085	-9.7842516114	-0.071784678	-0.00763581545	-0.010690141629999999	0.015882496136	0.021685715878	0.018936822316	0.008246680686	-0.31494	1.3142800000000001	1.14782	0.62756	0.67744	1.39142	0.4163511324	-9.8129654826	-0.287138712	0.007024950214	0.0041233403430000004	0.012064588410999999	0.15631	0.9958600000000001	1.2696200000000002	8.94368	3.29504	9.4144	1.004416481618554	22.575
97587	0	10347143	36	-1371	-69	-16	-32	55	-543	2266	1979	56	-1363	-10	73	75	39	1082	1168	2399	384	112	288	19.75	1.0046681470515668	25.41	1.003878608438194	4449.49462890625	-7309.81103515625	41.900001525878906	2	12	0.6700000166893005	7.7452392578125	3	0	0.0	0.0	0.0	0.0	-0.3350939889663221	0.0	0.0	-0.2579543163675209	-0.2835494781	-0.3302095188	9.8129654826	-0.6965168118476868	-0.1925569027662277	-0.660780668258667	0.2028672397136688	6	44.824910481770836	-73.16351725260417	0.2584248408	-9.8416793538	-0.4953142782	0.40199419680000004	-9.7842516114	-0.071784678	-0.004886921888	-0.009773843776	0.016798793989999998	0.022296581114	0.02290744635	0.011911872102	-0.31494	1.3142800000000001	1.14782	0.62756	0.67744	1.39142	0.33020951880000005	-9.8129654826	-0.28354947810000003	0.008704829613	0.006566801287	0.014355333045999999	0.15631	0.9958600000000001	1.2696200000000002	11.29728	3.29504	8.47296	1.0042733777448805	22.58
97588	0	10347248	29	-1367	-68	-15	-11	33	-576	2235	1958	63	-1358	-11	77	82	15	1094	1174	2454	384	-32	272	19.75	1.004875400937577	25.41	1.0038687392055268	4449.49462890625	-7309.81103515625	41.900001525878906	2	12	0.6700000166893005	7.723770141601562	3	0	0.0	0.0	0.0	0.0	-0.3871694301473452	0.0	0.0	-0.2837360062175752	-0.2835494781	-0.3302095188	9.7806623775	-0.6964224576950073	-0.1923394352197647	-0.6610013842582703	0.2026782780885696	6	44.824910481770836	-73.16351725260417	0.2081755662	-9.812965482600001	-0.48813581040000004	0.45224347140000004	-9.7483592724	-0.07896314580000001	-0.00458148927	-0.003359758798	0.010079276394	0.023518311586	0.025045474675999997	0.00458148927	-0.33408	1.2963	1.13564	0.63452	0.68092	1.42332	0.33020951880000005	-9.7806623775	-0.28354947810000003	0.009468411158	0.010842857938999998	0.007330382832	0.15022	0.98861	1.27948	11.29728	-0.94144	8.00224	1.004372070071552	22.58
97589	0	10347354	49	-1370	-68	-10	-22	33	-576	2235	1958	82	-1358	-13	74	60	20	1094	1174	2454	352	64	288	19.75	1.004816185541574	25.42	1.0037897853441895	4449.49462890625	-7309.81103515625	41.900001525878906	2	12	0.6700000166893005	7.75341796875	3	0	0.0	0.0	0.0	0.0	-0.4137483520883796	0.0	0.0	-0.2811329645379921	-0.2907279459	-0.4701896409	9.791430079199998	-0.696354329586029	-0.1921394914388656	-0.6611929535865784	0.202477365732193	6	44.824910481770836	-73.16351725260417	0.35174492220000003	-9.834500886	-0.48813581040000004	0.5886343596	-9.7483592724	-0.0933200814	-0.0030543261799999997	-0.006719517596	0.010079276394	0.022602013732	0.01832595708	0.0061086523599999994	-0.33408	1.2963	1.13564	0.63452	0.68092	1.42332	0.47018964090000004	-9.791430079200001	-0.2907279459	0.009773843776	0.005803219742	0.008093964377	0.15022	0.98861	1.27948	10.35584	1.88288	8.47296	1.0043029854428818	22.585
97590	0	10347459	49	-1377	-56	-11	-39	71	-551	2268	1959	75	-1360	-15	79	59	50	1094	1191	2395	432	64	336	19.75	1.0048260547742414	25.41	1.003720700715519	4449.49462890625	-7309.81103515625	41.900001525878906	2	12	0.6700000166893005	7.739105224609375	3	0	0.0	0.0	0.0	0.0	-0.3629121111938688	0.0	0.0	-0.1960854962570994	-0.2548356068999999	-0.4450650035999999	9.8237331843	-0.6962894797325134	-0.1920081675052642	-0.6613501906394958	0.2023112624883651	6	44.824910481770836	-73.16351725260417	0.35174492220000003	-9.884750160600001	-0.40199419680000004	0.538385085	-9.762716208	-0.107677017	-0.003359758798	-0.011911872102	0.021685715878	0.024129176821999998	0.018020524462	0.0152716309	-0.31958	1.31544	1.13622	0.63452	0.69078	1.3891	0.4450650036	-9.8237331843	-0.2548356069	0.010384709011999999	0.0030543261800000006	0.018478673389	0.15747	1.00311	1.26266	12.70944	1.88288	9.88512	1.0042733777448802	22.58
97591	0	10347565	11	-1368	-61	-1	-60	57	-556	2254	1976	51	-1362	0	86	46	40	1108	1180	2417	432	-16	336	19.75	1.0048359240069085	25.42	1.0037897853441895	4449.49462890625	-7309.81103515625	41.900001525878906	2	12	0.6700000166893005	7.741661071777344	3	0	0.0	0.0	0.0	0.0	-0.3375368512529929	0.0	0.0	-0.1497717232876524	-0.2189432679	-0.2225325018	9.798608547	-0.6963424682617188	-0.1918730288743972	-0.661404550075531	0.2020789682865142	6	44.824910481770836	-73.16351725260417	0.07896314580000001	-9.8201439504	-0.43788653580000003	0.36610185780000004	-9.777073143600001	0.0	-0.000305432618	-0.01832595708	0.017409659225999997	0.026267205148	0.014049900427999999	0.012217304719999999	-0.32248	1.30732	1.14608	0.64264	0.6844	1.40186	0.22253250180000003	-9.798608547	-0.21894326790000002	0.012980886265	-0.0021380283260000006	0.014813481972999998	0.16008	0.99586	1.27397	12.70944	-0.47072	9.88512	1.004312854675549	22.585
97592	0	10347670	11	-1370	-65	-12	-1	47	-556	2254	1976	48	-1364	-9	72	77	26	1108	1180	2417	416	80	416	19.75	1.0048852701702442	25.42	1.0037404391808538	4449.49462890625	-7309.81103515625	41.900001525878906	2	12	0.6700000166893005	7.75341796875	3	0	0.0	0.0	0.0	0.0	-0.3502306948440838	0.0	0.0	-0.1487820702685273	-0.2656033086	-0.2117648000999999	9.8129654826	-0.6963792443275452	-0.1915898770093917	-0.6615370512008667	0.201786994934082	6	44.824910481770836	-73.16351725260417	0.07896314580000001	-9.834500886	-0.466600407	0.3445664544	-9.7914300792	-0.0646062102	-0.003665191416	-0.000305432618	0.014355333045999999	0.021991148496	0.023518311586	0.007941248068	-0.32248	1.30732	1.14608	0.64264	0.6844	1.40186	0.2117648001	-9.8129654826	-0.2656033086	0.00916297854	0.011606439484	0.011148290557	0.16008	0.99586	1.27397	12.23872	2.3536	12.23872	1.004312854675549	22.585
97593	0	10347775	46	-1370	-51	-25	-9	51	-557	2234	1990	78	-1360	-2	83	89	26	1102	1209	2407	400	32	272	19.74	1.0047964470762398	25.42	1.0038391315075252	4449.49462890625	-7309.81103515625	41.900001525878906	2	12	0.6700000166893005	7.743194580078125	3	0	0.0	0.0	0.0	0.0	-0.348669749759365	0.0	0.0	-0.1307368383684576	-0.1902293967	-0.4450650036	9.798608547	-0.6963489055633545	-0.1912547349929809	-0.6616899967193604	0.2017082720994949	6	44.824910481770836	-73.16351725260417	0.3302095188	-9.834500886	-0.36610185780000004	0.5599204884	-9.762716208	-0.0143569356	-0.00763581545	-0.002748893562	0.015577063518	0.025350907293999997	0.027183503002	0.007941248068	-0.32306	1.29572	1.1542000000000001	0.63916	0.70122	1.39606	0.4450650036	-9.798608547	-0.19022939670000003	0.008857545921999999	0.012217304719999999	0.011759155793	0.15804999999999997	0.99847	1.27513	11.768	0.94144	8.00224	1.0043177892918824	22.58
97594	0	10347881	58	-1363	-55	-10	-11	52	-557	2234	1990	92	-1364	-7	77	98	31	1102	1209	2407	384	80	384	19.75	1.0047174932149026	25.41	1.0036713545521836	4449.49462890625	-7309.81103515625	41.79999923706055	2	12	0.6700000166893005	7.75341796875	3	0	0.0	0.0	0.0	0.0	-0.23176718450359	0.0	0.0	0.0066442134956194	-0.2225325017999999	-0.538385085	9.7878408453	-0.69643235206604	-0.1909542828798294	-0.6617789268493652	0.2014128863811493	6	44.824910481770836	-73.16351725260417	0.4163511324	-9.7842516114	-0.394815729	0.6604190376	-9.7914300792	-0.050249274600000005	-0.0030543261799999997	-0.003359758798	0.015882496136	0.023518311586	0.029932396564	0.009468411158	-0.32306	1.29572	1.1542000000000001	0.63916	0.70122	1.39606	0.538385085	-9.7878408453	-0.2225325018	0.010231992702999999	0.013286318883	0.012675453646999998	0.15804999999999997	0.99847	1.27513	11.29728	2.3536	11.29728	1.004194423883543	22.58
97595	0	10347986	31	-1366	-52	-12	-20	71	-544	2253	1961	72	-1362	1	92	84	41	1090	1187	2436	272	-16	240	19.75	1.0048260547742414	25.41	1.003720700715519	4449.49462890625	-7309.81103515625	41.79999923706055	2	12	0.6700000166893005	7.747795104980469	3	0	0.0	0.0	0.0	0.0	-0.2373882747728914	0.0	0.0	-0.0008882456457252	-0.1830509289	-0.3696910917	9.7914300792	-0.6050549149513245	-0.381081610918045	-0.5702103972434998	0.4044075608253479	6	44.824910481770836	-73.16351725260417	0.2225325018	-9.8057870148	-0.3732803256	0.5168496816	-9.777073143600001	0.0071784678	-0.003665191416	-0.0061086523599999994	0.021685715878	0.028099800855999998	0.025656339912	0.012522737337999999	-0.31552	1.30674	1.13738	0.6322	0.68846	1.41288	0.36969109170000003	-9.791430079200001	-0.18305092890000002	0.012217304719999999	0.009773843776000001	0.017104226607999998	0.15833999999999998	0.9976	1.2751299999999999	8.00224	-0.47072	7.0608	1.0042733777448802	22.58
97596	0	10348092	14	-1382	-81	-21	-12	55	-544	2253	1961	45	-1364	-30	76	109	35	1090	1187	2436	336	-16	192	19.75	1.0046188008882309	25.42	1.0038391315075252	4449.49462890625	-7309.81103515625	41.79999923706055	2	12	0.6700000166893005	7.760063171386719	3	0	0.0	0.0	0.0	0.0	-0.2190344248286155	0.0	0.0	0.0175790409783809	-0.3984049628999999	-0.2117648000999999	9.8560362894	-0.6051658987998962	-0.3809984028339386	-0.5703662633895874	0.4041001498699188	6	44.824910481770836	-73.16351725260417	0.10049854920000001	-9.9206424996	-0.5814558918	0.323031051	-9.7914300792	-0.215354034	-0.006414084978	-0.003665191416	0.016798793989999998	0.023212878968	0.033292155361999996	0.010690141629999999	-0.31552	1.30674	1.13738	0.6322	0.68846	1.41288	0.2117648001	-9.856036289399999	-0.3984049629	0.008399396994999999	0.014813481972999998	0.013744467809999997	0.15833999999999998	0.9976	1.2751299999999999	9.88512	-0.47072	5.64864	1.004228966197878	22.585
97597	0	10348197	29	-1370	-66	-17	38	39	-539	2240	1967	65	-1362	-8	84	128	16	1094	1173	2422	272	16	272	19.76	1.0046385393535653	25.42	1.0037404391808538	4449.49462890625	-7309.81103515625	41.79999923706055	2	12	0.6700000166893005	7.744728088378906	3	0	0.0	0.0	0.0	0.0	-0.157681225985813	0.0	0.0	0.0799867113669986	-0.2656033086	-0.3373879865999999	9.8057870148	-0.6051348447799683	-0.3808508217334747	-0.5705872178077698	0.403973788022995	6	44.824910481770836	-73.16351725260417	0.2081755662	-9.834500886	-0.4737788748	0.466600407	-9.777073143600001	-0.0574277424	-0.005192354505999999	0.011606439484	0.011911872102	0.025656339912	0.039095375104	0.004886921888	-0.31262	1.2992	1.14086	0.63452	0.6803400000000001	1.40476	0.3373879866	-9.8057870148	-0.26560330860000003	0.010231992703	0.025350907293999997	0.008399396994999999	0.16094999999999998	0.98977	1.27281	8.00224	0.47072	8.00224	1.0041894892672096	22.590000000000003
97598	0	10348303	41	-1375	-40	-9	22	52	-539	2240	1967	77	-1363	4	96	123	23	1094	1173	2422	432	48	336	19.75	1.0047273624475697	25.43	1.0038687392055268	4449.49462890625	-7309.81103515625	41.79999923706055	2	12	0.6700000166893005	7.745750427246094	3	0	0.0	0.0	0.0	0.0	-0.1115717865159282	0.0	0.0	0.1188589114766451	-0.1292124203999999	-0.4235296001999999	9.827322418199998	-0.6052703261375427	-0.3806513249874115	-0.5707464218139648	0.4037338197231293	6	44.824910481770836	-73.16351725260417	0.2943171798	-9.870393225	-0.287138712	0.5527420206	-9.7842516114	0.0287138712	-0.002748893562	0.006719517596	0.015882496136	0.029321531328	0.037568212014	0.0070249502139999994	-0.31262	1.2992	1.14086	0.63452	0.6803400000000001	1.40476	0.42352960019999997	-9.827322418200001	-0.1292124204	0.013286318883	0.022143864805	0.011453723175	0.16094999999999998	0.98977	1.27281	12.70944	1.41216	9.88512	1.0042980508265482	22.59
97599	0	10348408	45	-1371	-63	-25	40	61	-518	2240	1982	83	-1357	-11	81	124	40	1070	1188	2424	336	-16	272	19.75	1.004678016284234	25.41	1.003720700715519	4449.49462890625	-7309.81103515625	41.79999923706055	2	12	0.6700000166893005	7.7452392578125	3	0	0.0	0.0	0.0	0.0	-0.1133481493200791	0.0	0.0	0.1055166520461237	-0.2656033086	-0.4594219391999999	9.7914300792	-0.6055351495742798	-0.3803322613239288	-0.5708275437355042	0.40352264046669	6	44.824910481770836	-73.16351725260417	0.323031051	-9.8416793538	-0.45224347140000004	0.5958128274000001	-9.7411808046	-0.07896314580000001	-0.00763581545	0.012217304719999999	0.018631389698	0.024740042057999997	0.037873644632	0.012217304719999999	-0.30044	1.2992	1.14956	0.6206	0.68904	1.40592	0.4594219392000001	-9.791430079200001	-0.26560330860000003	0.008552113303999999	0.025045474675999997	0.015424347209	0.16008000000000003	0.9941199999999999	1.27774	9.88512	-0.47072	8.00224	1.0041993584998765	22.58
97600	0	10348514	57	-1368	-82	-12	60	68	-518	2240	1982	90	-1364	-26	65	143	41	1070	1188	2424	400	-32	256	19.75	1.004559585492228	25.41	1.003829262274858	4449.49462890625	-7309.81103515625	41.900001525878906	2	12	0.6700000166893005	7.739105224609375	3	0	0.0	0.0	0.0	0.0	-0.0872579396329075	0.0	0.0	0.1244220372383524	-0.3876372611999999	-0.5276173833	9.8057870148	-0.6058094501495361	-0.3800195455551147	-0.5709232687950134	0.4032700359821319	6	44.824910481770836	-73.16351725260417	0.4091726646	-9.8201439504	-0.5886343596	0.646062102	-9.7914300792	-0.1866401628	-0.003665191416	0.01832595708	0.020769418023999998	0.01985312017	0.043676864374	0.012522737337999999	-0.30044	1.2992	1.14956	0.6206	0.68904	1.40592	0.5276173833	-9.8057870148	-0.38763726119999997	0.008093964377	0.031001410727000002	0.016646077680999998	0.16008000000000003	0.9941199999999999	1.27774	11.768	-0.94144	7.53152	1.004194423883543	22.58
97601	0	10348619	58	-1371	-77	-11	56	58	-500	2244	1962	91	-1364	-23	71	135	37	1102	1177	2429	368	-48	320	19.75	1.004678016284234	25.42	1.003641746854182	4449.49462890625	-7309.81103515625	41.900001525878906	2	12	0.6700000166893005	7.740638732910156	3	0	0.0	0.0	0.0	0.0	-0.1130679926562932	0.0	0.0	0.0858604047703491	-0.35892339	-0.5347958510999999	9.8165547165	-0.6059785485267639	-0.3797603547573089	-0.5710314512252808	0.4031069576740265	6	44.824910481770836	-73.16351725260417	0.4163511324	-9.8416793538	-0.5527420206	0.6532405698	-9.7914300792	-0.1651047594	-0.003359758798	0.017104226607999998	0.017715091844	0.021685715878	0.041233403429999996	0.011301006866	-0.29	1.30152	1.13796	0.63916	0.68266	1.40882	0.5347958510999999	-9.8165547165	-0.35892339	0.00916297854	0.029168815018999997	0.014508049355	0.17457999999999999	0.99209	1.27339	10.82656	-1.41216	9.4144	1.0041598815692079	22.585
97602	0	10348725	40	-1371	-69	-18	36	52	-500	2244	1962	77	-1367	-24	73	133	32	1102	1177	2429	304	32	240	19.75	1.004549716259561	25.41	1.0036516160868492	4449.49462890625	-7309.81103515625	41.900001525878906	2	12	0.6700000166893005	7.752906799316406	3	0	0.0	0.0	0.0	0.0	-0.1310071616529804	0.0	0.0	0.0624952490558662	-0.3337987527	-0.4199403663	9.8273224182	-0.6060048341751099	-0.3796645104885101	-0.5711957812309265	0.40292489528656	6	44.824910481770836	-73.16351725260417	0.287138712	-9.8416793538	-0.4953142782	0.5527420206	-9.812965482600001	-0.1722832272	-0.005497787124	0.010995574248	0.015882496136	0.022296581114	0.040622538193999996	0.009773843776	-0.29	1.30152	1.13796	0.63916	0.68266	1.40882	0.4199403663	-9.827322418200001	-0.33379875270000003	0.008399396994999999	0.025809056221	0.012828169955999998	0.17457999999999999	0.99209	1.27339	8.94368	0.94144	7.0608	1.004100666173205	22.58
97603	0	10348830	38	-1374	-53	5	42	61	-528	2264	1950	75	-1364	1	99	134	27	1092	1180	2472	416	96	416	19.75	1.0046188008882309	25.43	1.003819393042191	4449.49462890625	-7309.81103515625	41.79999923706055	2	12	0.6700000166893005	7.743194580078125	3	0	0.0	0.0	0.0	0.0	-0.0989267610967729	0.0	0.0	0.0903105715469312	-0.1866401628	-0.4055834306999999	9.8273224182	-0.6060836911201477	-0.3795366883277893	-0.5713467597961426	0.4027126729488373	6	44.824910481770836	-73.16351725260417	0.2727817764	-9.8632147572	-0.3804587934	0.538385085	-9.7914300792	0.0071784678	0.0015271630899999999	0.012828169956	0.018631389698	0.030237829182	0.040927970811999996	0.008246680686	-0.30624	1.31312	1.131	0.63336	0.6844	1.43376	0.4055834307	-9.8273224182	-0.1866401628	0.015882496136	0.026878070384	0.013439035192	0.16356	0.9987600000000001	1.2823799999999999	12.23872	2.82432	12.23872	1.004219096965211	22.59
97604	0	10348935	41	-1373	-66	-7	6	53	-528	2264	1950	77	-1359	-10	83	107	24	1092	1180	2472	288	32	352	19.76	1.0046385393535653	25.41	1.003770046878855	4449.49462890625	-7309.81103515625	41.79999923706055	2	12	0.6700000166893005	7.755462646484375	3	0	0.0	0.0	0.0	0.0	-0.109416145234455	0.0	0.0	0.0719787353445298	-0.2727817764	-0.4235296001999999	9.8057870148	-0.6439208388328552	-0.318105936050415	-0.6091744899749756	0.3362753391265869	6	44.824910481770836	-73.16351725260417	0.2943171798	-9.8560362894	-0.4737788748	0.5527420206	-9.755537740200001	-0.071784678	-0.0021380283259999997	0.001832595708	0.016187928754	0.025350907293999997	0.032681290126	0.007330382832	-0.30624	1.31312	1.131	0.63336	0.6844	1.43376	0.42352960019999997	-9.8057870148	-0.2727817764	0.011606439484	0.017256942916999998	0.011759155793	0.16356	0.9987600000000001	1.2823799999999999	8.47296	0.94144	10.35584	1.00420429311621	22.585
97605	0	10349041	39	-1369	-49	-12	3	59	-547	2254	1969	72	-1368	2	88	99	41	1101	1193	2434	288	0	320	19.76	1.0046385393535653	25.42	1.0037404391808538	4449.49462890625	-7309.81103515625	41.79999923706055	2	12	0.6700000166893005	7.7452392578125	3	0	0.0	0.0	0.0	0.0	-0.1026944013267492	0.0	0.0	0.0748948957094105	-0.1686939932999999	-0.3984049629	9.8237331843	-0.6439940333366394	-0.3178820312023163	-0.6092740893363953	0.3361662924289703	6	44.824910481770836	-73.16351725260417	0.2799602442	-9.8273224182	-0.35174492220000003	0.5168496816	-9.8201439504	0.0143569356	-0.003665191416	0.000916297854	0.018020524462	0.026878070384	0.030237829182	0.012522737337999999	-0.31726	1.30732	1.14202	0.63858	0.69194	1.41172	0.3984049629	-9.8237331843	-0.1686939933	0.011606439484	0.015577063518	0.0152716309	0.16066000000000003	0.99963	1.2768700000000002	8.47296	0.0	9.4144	1.0041894892672096	22.590000000000003
97606	0	10349146	42	-1370	-80	-33	50	37	-547	2254	1969	76	-1357	-16	67	141	16	1101	1193	2434	368	16	384	19.75	1.004875400937577	25.42	1.0037404391808538	4449.49462890625	-7309.81103515625	41.900001525878906	2	12	0.6700000166893005	7.738594055175781	3	0	0.0	0.0	0.0	0.0	-0.096405786704563	0.0	0.0	0.0709478679680298	-0.3445664543999999	-0.4235296001999999	9.7878408453	-0.6440420746803284	-0.317659467458725	-0.6094581484794617	0.3359511196613312	6	44.824910481770836	-73.16351725260417	0.3014956476	-9.834500886	-0.574277424	0.5455635528	-9.7411808046	-0.1148554848	-0.010079276394	0.0152716309	0.011301006866	0.020463985405999998	0.043065999138	0.004886921888	-0.31726	1.30732	1.14202	0.63858	0.69194	1.41172	0.4235296002	-9.7878408453	-0.3445664544	0.005192354505999999	0.029168815019	0.008093964377	0.16066000000000003	0.99963	1.2768700000000002	10.82656	0.47072	11.29728	1.0043079200592153	22.585
97607	0	10349252	43	-1374	-81	-24	4	49	-562	2260	2004	76	-1356	-31	76	103	24	1122	1200	2443	384	32	320	19.75	1.004678016284234	25.43	1.0038095238095237	4449.49462890625	-7309.81103515625	41.900001525878906	2	12	0.6700000166893005	7.735015869140625	3	0	0.0	0.0	0.0	0.0	-0.1258227730105356	0.0	0.0	0.0316927452183906	-0.4019941967999999	-0.4271188340999999	9.798608547	-0.6439933776855469	-0.3175150752067566	-0.6096709370613098	0.3357946276664734	6	44.824910481770836	-73.16351725260417	0.3086741154	-9.8632147572	-0.5814558918	0.5455635528	-9.7340023368	-0.2225325018	-0.007330382832	0.001221730472	0.014966198282	0.023212878968	0.031459559654	0.007330382832	-0.32596	1.3108	1.16232	0.65076	0.696	1.41694	0.4271188341	-9.798608547	-0.40199419680000004	0.007941248068	0.016340645063	0.011148290557	0.1624	1.0034	1.28963	11.29728	0.94144	9.4144	1.004243770046879	22.59
97608	0	10349357	40	-1371	-47	-5	-25	46	-562	2260	2004	75	-1358	3	89	67	28	1103	1226	2421	288	-32	288	19.75	1.004678016284234	25.42	1.003947693066864	4449.49462890625	-7309.81103515625	41.900001525878906	2	12	0.6700000166893005	7.743194580078125	3	0	0.0	0.0	0.0	0.0	-0.148465435579396	0.0	0.0	0.0056654191508786	-0.1579262916	-0.4127618984999999	9.7950193131	-0.6440088152885437	-0.3173362612724304	-0.6098344922065735	0.335637092590332	6	44.824910481770836	-73.16351725260417	0.287138712	-9.8416793538	-0.3373879866	0.538385085	-9.7483592724	0.0215354034	-0.0015271630899999999	-0.00763581545	0.014049900427999999	0.027183503002	0.020463985405999998	0.008552113303999999	-0.32596	1.3108	1.16232	0.63974	0.71108	1.40418	0.4127618985	-9.7950193131	-0.15792629160000002	0.012828169956	0.006414084977999999	0.011301006866	0.15688999999999997	1.01094	1.28325	8.47296	-0.94144	8.47296	1.004312854675549	22.585
97609	0	10349463	49	-1371	-34	-18	22	62	-564	2224	1959	82	-1360	4	71	116	37	1103	1226	2421	256	48	352	19.76	1.0048457932395756	25.43	1.0039082161361954	4449.49462890625	-7309.81103515625	41.900001525878906	2	12	0.6700000166893005	7.7421722412109375	3	0	0.0	0.0	0.0	0.0	-0.2494368438916948	0.0	0.0	-0.0996547897378487	-0.107677017	-0.4701896409	9.802197780899998	-0.6440907120704651	-0.3170540928840637	-0.6099722385406494	0.3354962170124054	6	44.824910481770836	-73.16351725260417	0.35174492220000003	-9.8416793538	-0.24406790520000002	0.5886343596	-9.762716208	0.0287138712	-0.005497787124	0.006719517596	0.018936822316	0.021685715878	0.035430183688	0.011301006866	-0.32712	1.28992	1.13622	0.63974	0.71108	1.40418	0.47018964090000004	-9.8021977809	-0.10767701700000001	0.008093964377	0.021074850642	0.015118914591	0.15630999999999998	1.0005	1.2702	7.53152	1.41216	10.35584	1.0043770046878855	22.595
97610	0	10349568	39	-1378	-72	-21	10	48	-562	2251	1959	73	-1362	-26	73	120	39	1106	1208	2418	352	176	336	19.75	1.0046188008882309	25.43	1.0038588699728597	4449.49462890625	-7309.81103515625	41.900001525878906	2	12	0.6700000166893005	7.75750732421875	3	0	0.0	0.0	0.0	0.0	-0.3047602234696931	0.0	0.0	-0.145412245853194	-0.3517449222	-0.4019941968	9.834500886	-0.6441762447357178	-0.3168411552906036	-0.6100983619689941	0.335303783416748	6	44.824910481770836	-73.16351725260417	0.2799602442	-9.8919286284	-0.5168496816	0.5240281494	-9.777073143600001	-0.1866401628	-0.006414084978	0.0030543261799999997	0.014660765664	0.022296581114	0.03665191416	0.011911872102	-0.32596	1.30558	1.13622	0.64148	0.70064	1.40244	0.4019941968	-9.834500886	-0.3517449222	0.007941248068	0.01985312017	0.013286318883	0.15776	1.00311	1.26933	10.35584	5.17792	9.88512	1.0042388354305452	22.59
97611	0	10349674	39	-1374	-80	-12	3	48	-562	2251	1959	73	-1367	-32	63	101	23	1106	1208	2418	336	0	368	19.75	1.0047273624475697	25.42	1.0038391315075252	4449.49462890625	-7309.81103515625	41.900001525878906	2	12	0.6700000166893005	7.75341796875	3	0	0.0	0.0	0.0	0.0	-0.3352973435037182	0.0	0.0	-0.1622660943742861	-0.4019941967999999	-0.4019941968	9.8380901199	-0.6441642045974731	-0.3166757524013519	-0.6103014349937439	0.3351137042045593	6	44.824910481770836	-73.16351725260417	0.2799602442	-9.8632147572	-0.574277424	0.5240281494	-9.812965482600001	-0.2297109696	-0.003665191416	0.000916297854	0.014660765664	0.019242254934	0.030848694418	0.0070249502139999994	-0.32596	1.30558	1.13622	0.64148	0.70064	1.40244	0.4019941968	-9.8380901199	-0.40199419680000004	0.007788531759	0.015882496136	0.010842857939	0.15776	1.00311	1.26933	9.88512	0.0	10.82656	1.0042832469775473	22.585
97612	0	10349779	37	-1371	-63	-21	4	47	-563	2249	1926	75	-1364	-5	94	98	23	1086	1181	2430	320	80	336	19.75	1.0046681470515668	25.42	1.0038490007401923	4449.49462890625	-7309.81103515625	41.900001525878906	2	12	0.6700000166893005	7.713546752929687	3	0	0.0	0.0	0.0	0.0	-0.3258605723778021	0.0	0.0	-0.1357387979629604	-0.2440679052	-0.4019941967999999	9.8165547165	-0.6441097259521484	-0.3165292143821716	-0.6104945540428162	0.3350051343441009	6	44.824910481770836	-73.16351725260417	0.26560330860000003	-9.8416793538	-0.45224347140000004	0.538385085	-9.7914300792	-0.035892339	-0.006414084978	0.001221730472	0.014355333045999999	0.028710666091999997	0.029932396564	0.0070249502139999994	-0.32654	1.30442	1.11708	0.62988	0.68498	1.4094	0.40199419680000004	-9.8165547165	-0.24406790520000002	0.011148290556999998	0.015577063518	0.010690141629999999	0.15167	0.9946999999999999	1.2632400000000001	9.4144	2.3536	9.88512	1.0042585738958796	22.585
97613	0	10349884	52	-1365	-53	-15	42	59	-563	2249	1926	80	-1359	-1	75	134	44	1086	1181	2430	304	112	320	19.76	1.0047372316802368	25.42	1.0038983469035283	4449.49462890625	-7309.81103515625	41.79999923706055	2	12	0.6700000166893005	7.7380828857421875	3	0	0.0	0.0	0.0	0.0	-0.2752643989416743	0.0	0.0	-0.0700702486586998	-0.1938186305999999	-0.4737788747999999	9.7770731436	-0.6441497802734375	-0.3163038492202759	-0.6106552481651306	0.3348479866981506	6	44.824910481770836	-73.16351725260417	0.3732803256	-9.798608547	-0.3804587934	0.574277424	-9.755537740200001	-0.0071784678	-0.00458148927	0.012828169956	0.018020524462	0.02290744635	0.040927970811999996	0.013439035192	-0.32654	1.30442	1.11708	0.62988	0.68498	1.4094	0.4737788748	-9.777073143600001	-0.19381863059999999	0.00916297854	0.026878070384	0.015729779827	0.15167	0.9946999999999999	1.2632400000000001	8.94368	3.29504	9.4144	1.0043177892918824	22.590000000000003
97614	0	10349990	48	-1373	-59	-10	45	61	-555	2250	1944	85	-1367	1	91	126	43	1091	1197	2403	368	64	272	19.74	1.004697754749568	25.43	1.0038095238095237	4449.49462890625	-7309.81103515625	41.79999923706055	2	12	0.6700000166893005	7.739105224609375	3	0	0.0	0.0	0.0	0.0	-0.243992695066888	0.0	0.0	-0.0292725666561114	-0.2081755662	-0.4773681086999999	9.834500886	-0.6227482557296753	-0.3547995984554291	-0.5870574712753296	0.3763845562934875	6	44.824910481770836	-73.16351725260417	0.3445664544	-9.8560362894	-0.4235296002	0.610169763	-9.812965482600001	0.0071784678	-0.0030543261799999997	0.01374446781	0.018631389698	0.027794368237999998	0.038484509868	0.013133602574	-0.3219	1.305	1.12752	0.63278	0.69426	1.39374	0.4773681087	-9.834500886	-0.20817556620000002	0.012370021028999999	0.026114488839	0.015882496136	0.15544	0.99963	1.26063	10.82656	1.88288	8.00224	1.0042536392795458	22.585
97615	0	10350095	27	-1371	-69	-29	-16	58	-555	2250	1944	65	-1361	-23	68	87	35	1091	1197	2403	336	-16	304	19.75	1.0048260547742414	25.43	1.0039180853688623	4449.49462890625	-7309.81103515625	41.79999923706055	2	12	0.6700000166893005	7.74114990234375	3	0	0.0	0.0	0.0	0.0	-0.3182070254213603	0.0	0.0	-0.1043673960406735	-0.3302095188	-0.3302095187999999	9.8057870148	-0.6228342652320862	-0.3546712398529053	-0.587164044380188	0.3761970400810241	6	44.824910481770836	-73.16351725260417	0.1938186306	-9.8416793538	-0.4953142782	0.466600407	-9.7698946758	-0.1651047594	-0.008857545922	-0.004886921888	0.017715091844	0.020769418023999998	0.026572637766	0.010690141629999999	-0.3219	1.305	1.12752	0.63278	0.69426	1.39374	0.3302095188	-9.8057870148	-0.3302095188	0.005955936050999999	0.010842857939	0.014202616737	0.15544	0.99963	1.26063	9.88512	-0.47072	8.94368	1.0043720700715517	22.59
97616	0	10350201	27	-1373	-72	-18	-5	57	-558	2227	1974	67	-1371	-22	78	82	31	1092	1212	2443	400	32	208	19.76	1.00500370096225	25.42	1.0037897853441895	4449.49462890625	-7309.81103515625	41.79999923706055	2	12	0.6700000166893005	7.75750732421875	3	0	0.0	0.0	0.0	0.0	-0.3081303979958046	0.0	0.0	-0.0846934836734854	-0.3373879866	-0.3373879865999999	9.8488578216	-0.6228485703468323	-0.3545212149620056	-0.5873084664344788	0.3760891854763031	6	44.824910481770836	-73.16351725260417	0.1938186306	-9.8560362894	-0.5168496816	0.4809573426	-9.8416793538	-0.15792629160000002	-0.005497787124	-0.0015271630899999999	0.017409659225999997	0.023823744204	0.025045474675999997	0.009468411158	-0.32364	1.29166	1.14492	0.63336	0.70296	1.41694	0.3373879866	-9.8488578216	-0.3373879866	0.009162978539999998	0.011759155793	0.013439035191999998	0.15486000000000003	0.99731	1.2809300000000001	11.768	0.94144	6.11936	1.0043967431532197	22.590000000000003
97617	0	10350306	38	-1373	-68	-18	-13	39	-558	2227	1974	76	-1362	-12	76	92	25	1092	1212	2443	352	48	288	19.76	1.0046385393535653	25.44	1.0038391315075252	4449.49462890625	-7309.81103515625	41.79999923706055	2	12	0.6700000166893005	7.737060546875	3	0	0.0	0.0	0.0	0.0	-0.2331524692604341	0.0	0.0	0.0022260078628274	-0.2871387119999999	-0.4091726645999999	9.8165547165	-0.6227115988731384	-0.354335069656372	-0.5875270366668701	0.3761501014232635	6	44.824910481770836	-73.16351725260417	0.2727817764	-9.8560362894	-0.48813581040000004	0.5455635528	-9.777073143600001	-0.0861416136	-0.005497787124	-0.003970624034	0.011911872102	0.023212878968	0.028099800855999998	0.00763581545	-0.32364	1.29166	1.14492	0.63336	0.70296	1.41694	0.4091726646	-9.8165547165	-0.287138712	0.008857545921999999	0.012064588410999999	0.009773843776	0.15486000000000003	0.99731	1.2809300000000001	10.35584	1.41216	8.47296	1.0042388354305452	22.6
97618	0	10350412	57	-1375	-50	-22	-7	66	-538	2229	1989	95	-1360	6	89	105	46	1069	1192	2454	416	112	432	19.76	1.0045398470268936	25.44	1.0036812237848507	4449.49462890625	-7309.81103515625	41.79999923706055	2	12	0.6700000166893005	7.76568603515625	3	0	0.0	0.0	0.0	0.0	-0.1764172674700174	0.0	0.0	0.0640064828326283	-0.1579262916	-0.5455635527999999	9.8165547165	-0.6227710843086243	-0.3540935218334198	-0.5876312255859375	0.3761164844036102	6	44.824910481770836	-73.16351725260417	0.4091726646	-9.870393225	-0.35892339	0.681954441	-9.762716208	0.0430708068	-0.006719517596	-0.0021380283259999997	0.020158552788	0.027183503002	0.03207042489	0.014049900427999999	-0.31204	1.29282	1.15362	0.62002	0.69136	1.42332	0.5455635528	-9.8165547165	-0.1579262916	0.010231992702999999	0.014966198282	0.017104226607999998	0.15399000000000002	0.99209	1.28847	12.23872	3.29504	12.70944	1.0041105354058721	22.6
97619	0	10350517	34	-1369	-64	8	40	65	-538	2229	1989	69	-1362	-18	92	129	44	1069	1192	2454	368	16	352	19.76	1.0047964470762398	25.42	1.0037996545768566	4449.49462890625	-7309.81103515625	41.79999923706055	2	12	0.6700000166893005	7.747283935546875	3	0	0.0	0.0	0.0	0.0	-0.1661116283572838	0.0	0.0	0.0695475377600718	-0.2943171798	-0.3696910917	9.802197780899998	-0.6229721903800964	-0.3538915812969208	-0.5877817869186401	0.3757379055023193	6	44.824910481770836	-73.16351725260417	0.24406790520000002	-9.8273224182	-0.4594219392	0.4953142782	-9.777073143600001	-0.1292124204	0.002443460944	0.012217304719999999	0.01985312017	0.028099800855999998	0.039400807722	0.013439035192	-0.31204	1.29282	1.15362	0.62002	0.69136	1.42332	0.36969109170000003	-9.8021977809	-0.2943171798	0.0152716309	0.025809056221	0.016646077680999998	0.15399000000000002	0.99209	1.28847	10.82656	0.47072	10.35584	1.0042980508265482	22.590000000000003
97620	0	10350623	29	-1371	-76	-19	15	52	-547	2237	1968	56	-1361	-26	74	116	34	1069	1199	2446	320	64	336	19.76	1.004687885516901	25.43	1.003819393042191	4449.49462890625	-7309.81103515625	41.79999923706055	2	12	0.6700000166893005	7.748817443847656	3	0	0.0	0.0	0.0	0.0	-0.2076764908309186	0.0	0.0	0.0219225937537737	-0.3661018577999999	-0.3050848815	9.8057870148	-0.6230694651603699	-0.3537681996822357	-0.5879027247428894	0.3755037188529968	6	44.824910481770836	-73.16351725260417	0.2081755662	-9.8416793538	-0.5455635528	0.40199419680000004	-9.7698946758	-0.1866401628	-0.005803219742	0.00458148927	0.015882496136	0.022602013732	0.035430183688	0.010384709011999999	-0.31726	1.29746	1.14144	0.62002	0.69542	1.41868	0.3050848815	-9.8057870148	-0.36610185780000004	0.008399396994999999	0.020005836479000002	0.013133602573999998	0.15138000000000001	0.99644	1.28006	9.4144	1.88288	9.88512	1.004253639279546	22.595
97621	0	10350728	33	-1375	-77	-19	37	51	-547	2237	1968	75	-1364	-14	73	141	28	1069	1199	2446	336	32	304	19.76	1.0046385393535653	25.42	1.0038490007401923	4449.49462890625	-7309.81103515625	41.79999923706055	2	12	0.6700000166893005	7.764152526855469	3	0	0.0	0.0	0.0	0.0	-0.1858611481900655	0.0	0.0	0.0410057578106695	-0.3266202849	-0.3876372611999999	9.8309116521	-0.6230196356773376	-0.3535947501659393	-0.588113009929657	0.375420480966568	6	44.824910481770836	-73.16351725260417	0.2368894374	-9.870393225	-0.5527420206	0.538385085	-9.7914300792	-0.10049854920000001	-0.005803219742	0.011301006866	0.015577063518	0.022296581114	0.043065999138	0.008552113303999999	-0.31726	1.29746	1.14144	0.62002	0.69542	1.41868	0.3876372612	-9.8309116521	-0.3266202849	0.008246680686	0.027183503002000002	0.012064588410999999	0.15138000000000001	0.99644	1.28006	9.88512	0.94144	8.94368	1.004243770046879	22.590000000000003
97622	0	10350833	55	-1367	-55	-28	52	55	-556	2251	1979	83	-1361	-3	68	138	28	1095	1202	2437	288	80	384	19.76	1.0047372316802368	25.44	1.0037897853441895	4449.49462890625	-7309.81103515625	41.70000076293945	2	12	0.6700000166893005	7.746261596679687	3	0	0.0	0.0	0.0	0.0	-0.1235325316296706	0.0	0.0	0.1001044317014182	-0.2081755661999999	-0.4953142781999999	9.7914300792	-0.6229099035263062	-0.3533845543861389	-0.5883375406265259	0.3754485547542572	6	44.824910481770836	-73.16351725260417	0.394815729	-9.812965482600001	-0.394815729	0.5958128274000001	-9.7698946758	-0.0215354034	-0.008552113303999999	0.015882496136	0.016798793989999998	0.020769418023999998	0.042149701283999995	0.008552113303999999	-0.32248	1.30558	1.14782	0.6351	0.69716	1.41346	0.49531427820000007	-9.791430079200001	-0.2081755662	0.0061086523599999994	0.029016098709999997	0.012675453646999998	0.15631	1.00137	1.28064	8.47296	2.3536	11.29728	1.0042635085122131	22.6
97623	0	10350939	57	-1370	-44	-21	24	63	-556	2251	1979	94	-1359	2	64	126	34	1099	1179	2450	304	96	304	19.76	1.0048457932395756	25.44	1.0037305699481864	4449.49462890625	-7309.81103515625	41.70000076293945	2	12	0.6700000166893005	7.7452392578125	3	0	0.0	0.0	0.0	0.0	-0.1817986639318965	0.0	0.0	0.0309342859139891	-0.1507478237999999	-0.5419743188999999	9.7950193131	-0.6170554757118225	-0.3612579107284546	-0.5867948532104492	0.3800093531608581	6	44.824910481770836	-73.16351725260417	0.4091726646	-9.834500886	-0.31585258320000004	0.6747759732	-9.755537740200001	0.0143569356	-0.006414084978	0.007330382832	0.019242254934	0.019547687552	0.038484509868	0.010384709011999999	-0.32248	1.30558	1.14782	0.63742	0.68382	1.421	0.5419743189	-9.795019313100001	-0.1507478238	0.006566801286999999	0.02290744635	0.014813481973	0.15747	0.9946999999999999	1.28441	8.94368	2.82432	8.94368	1.0042881815938811	22.6
97624	0	10351044	53	-1368	-64	-14	26	55	-541	2251	1984	82	-1364	-16	88	129	28	1099	1179	2450	320	16	336	19.76	1.0047964470762398	25.43	1.0037108314828522	4449.49462890625	-7309.81103515625	41.70000076293945	2	12	0.6700000166893005	7.733482360839844	3	0	0.0	0.0	0.0	0.0	-0.152750185623687	0.0	0.0	0.0552844004456752	-0.2871387119999999	-0.4845465765	9.8057870148	-0.6171182990074158	-0.3611741960048675	-0.5868812799453735	0.3798534870147705	6	44.824910481770836	-73.16351725260417	0.3804587934	-9.8201439504	-0.4594219392	0.5886343596	-9.7914300792	-0.1148554848	-0.004276056651999999	0.007941248068	0.016798793989999998	0.026878070384	0.039400807722	0.008552113303999999	-0.31378	1.30558	1.15072	0.63742	0.68382	1.421	0.4845465765	-9.8057870148	-0.287138712	0.011301006866	0.023671027895	0.012675453646999998	0.16182	0.9946999999999999	1.28586	9.4144	0.47072	9.88512	1.004253639279546	22.595
97625	0	10351150	42	-1370	-53	-4	21	52	-541	2251	1984	73	-1359	0	86	119	34	1122	1196	2415	240	-64	320	19.76	1.0047865778435727	25.43	1.003770046878855	4449.49462890625	-7309.81103515625	41.70000076293945	2	12	0.6700000166893005	7.763641357421875	3	0	0.0	0.0	0.0	0.0	-0.2038071789874667	0.0	0.0	-0.0037989291861033	-0.1902293967	-0.4127618985	9.7950193131	-0.6172379851341248	-0.3610945045948028	-0.5869260430335999	0.3796654343605041	6	44.824910481770836	-73.16351725260417	0.3014956476	-9.834500886	-0.3804587934	0.5240281494	-9.755537740200001	0.0	-0.001221730472	0.006414084978	0.015882496136	0.026267205148	0.036346481542	0.010384709011999999	-0.31378	1.30558	1.15072	0.65076	0.69368	1.4007	0.4127618985	-9.795019313100001	-0.1902293967	0.012522737338	0.02138028326	0.013133602573999998	0.16849	0.99963	1.2757100000000001	7.0608	-1.88288	9.4144	1.004278312361214	22.595
97626	0	10351255	42	-1371	-62	-21	13	56	-522	2267	1974	77	-1360	-6	65	113	30	1122	1196	2415	336	32	336	19.75	1.004678016284234	25.43	1.003878608438194	4449.49462890625	-7309.81103515625	41.70000076293945	2	12	0.6700000166893005	7.759552001953125	3	0	0.0	0.0	0.0	0.0	-0.1642786850930379	0.0	0.0	0.0362115956636634	-0.2440679052	-0.4271188340999999	9.802197780899998	-0.6173080205917358	-0.3609352111816406	-0.5870673656463623	0.379484474658966	6	44.824910481770836	-73.16351725260417	0.3014956476	-9.8416793538	-0.4450650036	0.5527420206	-9.762716208	-0.0430708068	-0.006414084978	0.003970624034	0.017104226607999998	0.01985312017	0.034513885833999995	0.00916297854	-0.30276000000000003	1.31486	1.14492	0.65076	0.69368	1.4007	0.4271188341	-9.8021977809	-0.2440679052	0.006719517595999999	0.019242254933999996	0.013133602573999998	0.174	1.00427	1.27281	9.88512	0.94144	9.88512	1.004278312361214	22.59
97627	0	10351361	37	-1368	-66	-18	30	51	-522	2267	1974	76	-1363	-15	57	109	32	1102	1170	2429	320	144	288	19.76	1.0048457932395756	25.45	1.0037503084135209	4449.49462890625	-7309.81103515625	41.70000076293945	2	12	0.6700000166893005	7.7258148193359375	3	0	0.0	0.0	0.0	0.0	-0.1506522916972088	0.0	0.0	0.0461046358994845	-0.2907279458999999	-0.4055834306999999	9.802197780899998	-0.6173407435417175	-0.360821932554245	-0.5871651768684387	0.3793877363204956	6	44.824910481770836	-73.16351725260417	0.26560330860000003	-9.8201439504	-0.4737788748	0.5455635528	-9.7842516114	-0.107677017	-0.005497787124	0.00916297854	0.015577063518	0.017409659225999997	0.033292155361999996	0.009773843776	-0.30276000000000003	1.31486	1.14492	0.63916	0.6786	1.40882	0.4055834307	-9.8021977809	-0.2907279459	0.005955936050999999	0.021227566950999997	0.012675453646999998	0.16819999999999996	0.9967299999999999	1.27687	9.4144	4.23648	8.47296	1.0042980508265482	22.605
97628	0	10351466	36	-1376	-70	-6	7	50	-556	2218	1940	76	-1365	-17	75	100	36	1102	1170	2429	272	96	224	19.76	1.0045891931902295	25.43	1.003770046878855	4449.49462890625	-7309.81103515625	41.70000076293945	2	12	0.6700000166893005	7.7288818359375	3	0	0.0	0.0	0.0	0.0	-0.1427239172802655	0.0	0.0	0.050080630187039	-0.3122633493	-0.4019941967999999	9.8380901199	-0.6173034906387329	-0.3606830239295959	-0.587264358997345	0.3794269859790802	6	44.824910481770836	-73.16351725260417	0.2584248408	-9.8775716928	-0.502492746	0.5455635528	-9.798608547	-0.12203395260000001	-0.001832595708	0.0021380283259999997	0.0152716309	0.02290744635	0.0305432618	0.010995574248	-0.32248	1.28644	1.1252	0.63916	0.6786	1.40882	0.40199419680000004	-9.8380901199	-0.31226334930000005	0.010537425321	0.016340645063	0.013133602574	0.15833999999999998	0.9825200000000001	1.26701	8.00224	2.82432	6.59008	1.0041796200345423	22.595
97629	0	10351572	33	-1372	-62	-4	12	43	-554	2223	1956	72	-1365	-7	78	108	31	1116	1180	2453	400	112	336	19.76	1.0047964470762398	25.44	1.003829262274858	4449.49462890625	-7309.81103515625	41.70000076293945	2	12	0.6700000166893005	7.749839782714844	3	0	0.0	0.0	0.0	0.0	-0.1648234596324461	0.0	0.0	0.0210678774557364	-0.2476571390999999	-0.3768695595	9.8237331843	-0.6172487139701843	-0.3606031537055969	-0.5874297022819519	0.3793359696865082	6	44.824910481770836	-73.16351725260417	0.2368894374	-9.848857821600001	-0.4450650036	0.5168496816	-9.798608547	-0.050249274600000005	-0.001221730472	0.003665191416	0.013133602574	0.023823744204	0.032986722744	0.009468411158	-0.32132	1.28934	1.13448	0.64728	0.6844	1.4227400000000001	0.3768695595	-9.8237331843	-0.2476571391	0.011301006866	0.018325957079999997	0.011301006866	0.16297999999999999	0.9868699999999999	1.27861	11.768	3.29504	9.88512	1.0043128546755489	22.6
97630	0	10351677	44	-1368	-54	-17	2	48	-554	2223	1956	83	-1366	-4	79	117	30	1116	1180	2453	240	128	384	19.75	1.0047767086109054	25.45	1.0038588699728597	4449.49462890625	-7309.81103515625	41.70000076293945	2	12	0.6700000166893005	7.739616394042969	3	0	0.0	0.0	0.0	0.0	-0.1825456500331923	0.0	0.0	-0.0003875375646141	-0.2081755662	-0.4558327053	9.8129654826	-0.6172844171524048	-0.3605088591575622	-0.5875495076179504	0.3791819512844085	6	44.824910481770836	-73.16351725260417	0.31585258320000004	-9.8201439504	-0.3876372612	0.5958128274000001	-9.8057870148	-0.0287138712	-0.005192354505999999	0.000610865236	0.014660765664	0.024129176821999998	0.035735616306	0.00916297854	-0.32132	1.28934	1.13448	0.64728	0.6844	1.4227400000000001	0.4558327053000001	-9.8129654826	-0.20817556620000002	0.009468411158	0.018173240771	0.011911872102	0.16297999999999999	0.9868699999999999	1.27861	7.0608	3.76576	11.29728	1.0043177892918824	22.6
97631	0	10351782	38	-1377	-61	-9	8	64	-575	2252	1960	77	-1356	-3	80	112	48	1093	1220	2451	288	96	320	19.76	1.0049050086355786	25.43	1.003819393042191	4449.49462890625	-7309.81103515625	41.70000076293945	2	12	0.6700000166893005	7.737060546875	3	0	0.0	0.0	0.0	0.0	-0.1997965774563011	0.0	0.0	-0.0175344683331943	-0.2297109695999999	-0.4127618985	9.8093762487	-0.617396891117096	-0.360373854637146	-0.5876361727714539	0.3789926469326019	6	44.824910481770836	-73.16351725260417	0.2727817764	-9.884750160600001	-0.43788653580000003	0.5527420206	-9.7340023368	-0.0215354034	-0.002748893562	0.002443460944	0.019547687552	0.024434609439999998	0.034208453215999995	0.014660765664	-0.3335	1.30616	1.1368	0.6339400000000001	0.7076	1.42158	0.4127618985	-9.809376248700001	-0.2297109696	0.010842857938999998	0.018325957079999997	0.017104226607999998	0.15022000000000002	1.00688	1.27919	8.47296	2.82432	9.4144	1.0043622008388848	22.595
97632	0	10351888	35	-1371	-80	-19	22	58	-575	2252	1960	67	-1359	-30	72	106	37	1093	1220	2451	272	32	288	19.75	1.0048359240069085	25.44	1.0037404391808538	4449.49462890625	-7309.81103515625	41.59999847412109	2	12	0.6700000166893005	7.747795104980469	3	0	0.0	0.0	0.0	0.0	-0.1628340739776416	0.0	0.0	0.0218865896900289	-0.3948157289999999	-0.3661018577999999	9.798608547	-0.6174831986427307	-0.3602392673492431	-0.5877079367637634	0.3788688778877258	6	44.824910481770836	-73.16351725260417	0.251246373	-9.8416793538	-0.574277424	0.4809573426	-9.755537740200001	-0.215354034	-0.005803219742	0.006719517596	0.017715091844	0.021991148496	0.032375857508	0.011301006866	-0.3335	1.30616	1.1368	0.6339400000000001	0.7076	1.42158	0.36610185780000004	-9.798608547	-0.394815729	0.008093964377	0.019547687552	0.014508049355	0.15022000000000002	1.00688	1.27919	8.00224	0.94144	8.47296	1.0042881815938811	22.595
97633	0	10351993	44	-1372	-70	-19	14	46	-568	2228	1972	79	-1362	-15	79	121	28	1093	1160	2468	336	32	368	19.77	1.0047076239822357	25.45	1.0038490007401923	4449.49462890625	-7309.81103515625	41.59999847412109	2	12	0.6700000166893005	7.7421722412109375	3	0	0.0	0.0	0.0	0.0	-0.2242872403305703	0.0	0.0	-0.0430709238445079	-0.3050848814999999	-0.4414757696999999	9.8129654826	-0.6387991905212402	-0.3255637586116791	-0.6070860028266907	0.3426230847835541	6	44.824910481770836	-73.16351725260417	0.31585258320000004	-9.848857821600001	-0.502492746	0.5670989562000001	-9.777073143600001	-0.107677017	-0.005803219742	0.004276056651999999	0.014049900427999999	0.024129176821999998	0.036957346778	0.008552113303999999	-0.32944	1.29224	1.14376	0.6339400000000001	0.6728	1.43144	0.4414757697	-9.812965482600001	-0.3050848815	0.009162978539999998	0.020616701714999998	0.011301006866	0.15225000000000002	0.9825200000000001	1.2876	9.88512	0.94144	10.82656	1.004278312361214	22.61
97634	0	10352099	55	-1367	-48	1	26	48	-568	2228	1972	75	-1361	4	87	120	34	1093	1160	2468	352	64	352	19.76	1.0047372316802368	25.44	1.0037305699481864	4449.49462890625	-7309.81103515625	41.59999847412109	2	12	0.6700000166893005	7.746772766113281	3	0	0.0	0.0	0.0	0.0	-0.246032839919835	0.0	0.0	-0.0601664178307191	-0.1579262916	-0.4666004069999999	9.7914300792	-0.6388034820556641	-0.3254728019237518	-0.6071925163269043	0.3425126075744629	6	44.824910481770836	-73.16351725260417	0.394815729	-9.812965482600001	-0.3445664544	0.538385085	-9.7698946758	0.0287138712	0.000305432618	0.007941248068	0.014660765664	0.026572637766	0.03665191416	0.010384709011999999	-0.32944	1.29224	1.14376	0.6339400000000001	0.6728	1.43144	0.46660040700000005	-9.791430079200001	-0.1579262916	0.013439035192	0.022296581114	0.012522737337999999	0.15225000000000002	0.9825200000000001	1.2876	10.35584	1.88288	10.35584	1.0042339008142116	22.6
97635	0	10352204	44	-1368	-47	3	37	53	-546	2232	1967	75	-1366	4	93	133	29	1078	1145	2430	224	96	288	19.76	1.0047964470762398	25.44	1.0036812237848507	4449.49462890625	-7309.81103515625	41.59999847412109	2	12	0.6700000166893005	7.755462646484375	3	0	0.0	0.0	0.0	0.0	-0.2391721558819952	0.0	0.0	-0.0432923956524378	-0.1543370576999999	-0.4271188340999999	9.8129654826	-0.6388696432113647	-0.3254172801971435	-0.6072770953178406	0.342291921377182	6	44.824910481770836	-73.16351725260417	0.31585258320000004	-9.8201439504	-0.3373879866	0.538385085	-9.8057870148	0.0287138712	0.000916297854	0.011301006866	0.016187928754	0.028405233473999997	0.040622538193999996	0.008857545922	-0.31668	1.29456	1.14086	0.62524	0.6641	1.4094	0.42711883410000007	-9.8129654826	-0.1543370577	0.014660765663999998	0.025961772529999996	0.012522737337999999	0.15428	0.97933	1.2751299999999999	6.59008	2.82432	8.47296	1.0042388354305452	22.6
97636	0	10352310	27	-1368	-59	-31	17	54	-546	2232	1967	58	-1355	-5	70	116	37	1078	1145	2430	304	112	352	19.77	1.004806316308907	25.44	1.0037799161115224	4449.49462890625	-7309.81103515625	41.59999847412109	2	12	0.6700000166893005	7.72479248046875	3	0	0.0	0.0	0.0	0.0	-0.2926388462074914	0.0	0.0	-0.0948027383979853	-0.2297109695999999	-0.3050848815	9.773483909699998	-0.6389801502227783	-0.3252955377101898	-0.6073502898216248	0.3420714139938354	6	44.824910481770836	-73.16351725260417	0.1938186306	-9.8201439504	-0.4235296002	0.4163511324	-9.726823869	-0.035892339	-0.009468411158	0.005192354505999999	0.016493361372	0.021380283259999997	0.035430183688	0.011301006866	-0.31668	1.29456	1.14086	0.62524	0.6641	1.4094	0.3050848815	-9.773483909700001	-0.2297109696	0.005955936050999999	0.020311269097	0.013897184118999999	0.15428	0.97933	1.2751299999999999	8.94368	3.29504	10.35584	1.0042931162102147	22.605
97637	0	10352415	30	-1375	-80	-14	55	55	-546	2256	1959	65	-1363	-24	65	144	38	1111	1184	2426	288	128	288	19.75	1.0048359240069085	25.45	1.0038490007401923	4449.49462890625	-7309.81103515625	41.59999847412109	2	12	0.6700000166893005	7.735015869140625	3	0	0.0	0.0	0.0	0.0	-0.3423635346853098	0.0	0.0	-0.1375005659501018	-0.3732803255999999	-0.3409772204999999	9.827322418199998	-0.6391063928604126	-0.325107216835022	-0.6074020862579346	0.3419226109981537	6	44.824910481770836	-73.16351725260417	0.215354034	-9.870393225	-0.574277424	0.466600407	-9.7842516114	-0.1722832272	-0.004276056651999999	0.016798793989999998	0.016798793989999998	0.01985312017	0.043982296992	0.011606439484	-0.31668	1.30848	1.13622	0.64438	0.68672	1.40708	0.3409772205	-9.827322418200001	-0.3732803256	0.007788531759	0.030390545491	0.014202616736999999	0.16384999999999997	0.9976	1.2716500000000002	8.47296	3.76576	8.47296	1.0043424623735504	22.6
97638	0	10352521	54	-1371	-82	-14	60	50	-546	2256	1959	95	-1362	-24	82	150	32	1079	1156	2431	336	64	336	19.76	1.0046385393535653	25.44	1.0037897853441895	4449.49462890625	-7309.81103515625	41.59999847412109	2	12	0.6700000166893005	7.737060546875	3	0	0.0	0.0	0.0	0.0	-0.339787184558981	0.0	0.0	-0.1173602409732844	-0.3804587934	-0.5347958510999999	9.8093762487	-0.6393238306045532	-0.3247568309307098	-0.6074510216712952	0.3417620360851288	6	44.824910481770836	-73.16351725260417	0.3876372612	-9.8416793538	-0.5886343596	0.681954441	-9.777073143600001	-0.1722832272	-0.004276056651999999	0.01832595708	0.0152716309	0.025045474675999997	0.0458148927	0.009773843776	-0.31668	1.30848	1.13622	0.62582	0.67048	1.40998	0.5347958511	-9.809376248700001	-0.3804587934	0.010384709011999999	0.03207042489	0.012522737337999999	0.15457	0.98948	1.2731	9.88512	1.88288	9.88512	1.0042141623488774	22.6
