timestampMs pressurePa tempK accelX accelY accelZ gyroX gyroY gyroZ imuTemp battV altitudeM velocityMS accelerationMSS unfiltAlt flightState drogueCont drogueFired mainCont mainFired
745234 100129 -9.077 0.021972656 -1.0 0.03 1.13 -0.03 0.18 0.0 0.0 2.0372 0.0895 0.0 2.071 0 0 0 0 0
745254 100130 -9.083 0.0234375 -1.0 0.03 1.01 -0.18 0.24 0.0 0.0 1.9527 0.0799 0.0 2.053 0 0 0 0 0
745275 100133 -9.086 0.015136719 -1.0 0.04 1.16 -0.03 0.24 0.0 0.0 1.699 0.0517 0.0 1.9954 0 0 0 0 0
745295 100131 -9.083 0.022949218 -1.0 0.02 1.07 0.06 0.12 0.0 0.0 1.8681 0.0414 0.0 1.9752 0 0 0 0 0
745316 100128 -9.088 0.010742188 -1.0 0.03 0.91 0.09 0.21 0.0 0.0 2.1218 0.0529 0.0 2.0006 0 0 0 0 0
745336 100130 -9.092 0.018066406 -1.0 0.03 1.16 0.09 0.21 0.0 0.0 1.9527 0.0492 0.0 1.9936 0 0 0 0 0
745357 100131 -9.077 0.020507812 -1.0 0.01 1.13 -0.03 0.15 0.0 0.0 1.8681 0.0395 0.0 1.9737 0 0 0 0 0
745377 100131 -9.077 0.012207032 -1.0 0.03 1.13 0.09 0.15 0.0 0.0 1.8681 0.0303 0.0 1.9568 0 0 0 0 0
745398 100128 -9.085 0.017089843 -1.01 0.02 1.07 -0.03 0.3 0.0 0.0 2.1218 0.0448 0.0 1.985 0 0 0 0 0
745418 100129 -9.079 0.008789063 -1.0 0.03 0.98 0.06 0.15 0.0 0.0 2.0372 0.0483 0.0 1.9947 0 0 0 0 0
745439 100131 -9.086 0.025878906 -1.0 0.02 1.01 0.15 0.24 0.0 0.0 1.8681 0.0387 0.0 1.9745 0 0 0 0 0
745459 100128 -9.079 0.019042968 -1.0 0.03 1.16 0.0 0.18 0.0 0.0 2.1218 0.0506 0.0 1.9999 0 0 0 0 0
745480 100127 -9.086 0.018066406 -1.0 0.03 1.13 0.06 0.24 0.0 0.0 2.2063 0.0666 0.0 2.0355 0 0 0 0 0
745500 100127 -9.079 0.014160157 -1.0 0.03 1.04 -0.03 0.18 0.0 0.0 2.2063 0.0796 0.0 2.0654 0 0 0 0 0
745521 100131 -9.068 0.022460937 -1.0 0.01 1.1 0.12 0.3 0.0 0.0 1.8681 0.0639 0.0 2.0341 0 0 0 0 0
745541 100132 -9.088 0.010253907 -1.0 0.03 0.95 0.09 0.18 0.0 0.0 1.7836 0.0438 0.0 1.9934 0 0 0 0 0
745562 100128 -9.075 0.017578125 -1.0 0.03 1.04 0.0 0.27 0.0 0.0 2.1218 0.0542 0.0 2.0158 0 0 0 0 0
745582 100125 -9.075 0.017089843 -1.0 0.01 1.07 0.18 0.18 0.0 0.0 2.3728 0.0836 0.0 2.0767 0 0 0 0 0
745603 100128 -9.075 0.016113281 -1.0 0.02 1.13 0.03 0.21 0.0 0.0 2.1218 0.0876 0.0 2.086 0 0 0 0 0
745623 100133 -9.066 0.016113281 -1.0 0.04 1.28 0.0 0.15 0.0 0.0 1.699 0.056 0.0 2.023 0 0 0 0 0
745644 100128 -9.056 0.016601562 -1.0 0.01 1.25 -0.06 0.12 0.0 0.0 2.1218 0.0646 0.0 2.0407 0 0 0 0 0
745664 100127 -9.077 0.017578125 -1.0 0.02 1.01 0.15 0.18 0.0 0.0 2.2063 0.0778 0.0 2.0697 0 0 0 0 0
745684 100132 -9.083 0.007324219 -1.0 0.02 1.01 0.09 0.15 0.0 0.0 1.7836 0.0553 0.0 2.0234 0 0 0 0 0
745705 100134 -9.073 0.019042968 -1.0 0.03 1.1 0.12 0.27 0.0 0.0 1.6145 0.0232 0.0 1.9561 0 0 0 0 0
745725 100132 -9.062 0.021484375 -1.0 0.04 1.1 0.0 0.03 0.0 0.0 1.7836 0.01 0.0 1.9277 0 0 0 0 0
745746 100127 -9.075 0.011230469 -1.0 0.02 1.07 0.06 0.24 0.0 0.0 2.2063 0.0327 0.0 1.9745 0 0 0 0 0
745766 100125 -9.083 0.014648438 -1.0 0.02 1.16 0.18 0.18 0.0 0.0 2.3728 0.0642 0.0 2.0418 0 0 0 0 0
745787 100133 -9.079 0.020996093 -1.0 0.03 1.07 0.03 0.27 0.0 0.0 1.699 0.0373 0.0 1.9858 0 0 0 0 0
745807 100133 -9.073 0.018066406 -1.0 0.03 1.01 -0.06 0.15 0.0 0.0 1.699 0.0143 0.0 1.9386 0 0 0 0 0
745828 100131 -9.075 0.006347656 -1.0 0.02 0.95 0.09 0.3 0.0 0.0 1.8681 0.0085 0.0 1.9271 0 0 0 0 0
745848 100130 -9.06 0.012695313 -1.0 0.04 1.04 -0.03 0.12 0.0 0.0 1.9527 0.0102 0.0 1.9315 0 0 0 0 0
745869 100132 -9.083 0.020996093 -1.0 0.04 0.95 -0.09 0.27 0.0 0.0 1.7836 -0.0023 0.0 1.907 0 0 0 0 0
745889 100129 -9.079 0.021972656 -1.0 0.02 0.85 0.06 0.15 0.0 0.0 2.0372 0.0087 0.0 1.9287 0 0 0 0 0
745910 100131 -9.056 0.020019531 -1.0 0.02 1.1 0.06 0.15 0.0 0.0 1.8681 0.0035 0.0 1.9188 0 0 0 0 0
745930 100129 -9.073 0.009765625 -1.0 0.03 1.16 -0.09 0.27 0.0 0.0 2.0372 0.0129 0.0 1.9386 0 0 0 0 0
745951 100129 -9.064 0.015625 -1.0 0.02 1.07 0.0 0.24 0.0 0.0 2.0372 0.0214 0.0 1.9554 0 0 0 0 0
745971 100130 -9.062 0.022949218 -1.0 0.03 1.04 0.18 0.18 0.0 0.0 1.9527 0.0212 0.0 1.9554 0 0 0 0 0
745992 100131 -9.053 0.009765625 -1.0 0.03 0.98 0.09 0.27 0.0 0.0 1.8681 0.0134 0.0 1.9412 0 0 0 0 0
746012 100134 -9.071 0.016601562 -1.0 0.03 1.04 0.03 0.15 0.0 0.0 1.6145 -0.0123 0.0 1.8868 0 0 0 0 0
746033 100132 -9.049 0.021972656 -1.0 0.01 0.85 0.18 0.24 0.0 0.0 1.7836 -0.0198 0.0 1.8693 0 0 0 0 0
746053 100130 -9.058 0.017578125 -1.0 0.03 0.91 0.06 0.3 0.0 0.0 1.9527 -0.0135 0.0 1.8828 0 0 0 0 0
746074 100131 -9.047 0.010253907 -1.0 0.04 1.1 -0.03 0.24 0.0 0.0 1.8681 -0.0147 0.0 1.8801 0 0 0 0 0
746094 100134 -9.045 0.025390625 -1.0 0.03 1.04 -0.03 0.12 0.0 0.0 1.6145 -0.036 0.0 1.8354 0 0 0 0 0
746115 100132 -9.053 0.017089843 -1.0 0.02 1.07 0.0 0.24 0.0 0.0 1.7836 -0.0403 0.0 1.8259 0 0 0 0 0
746135 100132 -9.058 0.010742188 -1.0 0.02 1.13 -0.06 0.24 0.0 0.0 1.7836 -0.0434 0.0 1.818 0 0 0 0 0
746156 100131 -9.045 0.019042968 -1.0 0.03 1.07 -0.03 0.12 0.0 0.0 1.8681 -0.0389 0.0 1.8255 0 0 0 0 0
746176 100127 -9.051 0.016601562 -1.0 0.04 1.1 -0.03 0.12 0.0 0.0 2.2063 -0.0088 0.0 1.8884 0 0 0 0 0
746196 100128 -9.045 0.016113281 -1.0 0.01 0.98 0.15 0.15 0.0 0.0 2.1218 0.0099 0.0 1.9273 0 0 0 0 0
746217 100131 -9.047 0.021972656 -1.0 0.03 1.19 -0.06 0.18 0.0 0.0 1.8681 0.0056 0.0 1.9176 0 0 0 0 0
746237 100130 -9.045 0.012695313 -1.0 0.03 1.1 0.06 0.24 0.0 0.0 1.9527 0.0082 0.0 1.9236 0 0 0 0 0
746258 100132 -9.045 0.021972656 -1.0 0.04 0.91 0.0 0.21 0.0 0.0 1.7836 -0.0032 0.0 1.9003 0 0 0 0 0
746278 100132 -9.047 0.008789063 -1.0 0.03 0.82 0.09 0.3 0.0 0.0 1.7836 -0.0134 0.0 1.8807 0 0 0 0 0
746299 100132 -9.056 0.021484375 -1.0 0.03 1.01 0.15 0.24 0.0 0.0 1.7836 -0.0208 0.0 1.8642 0 0 0 0 0
746319 100135 -9.058 0.024902343 -1.0 0.02 1.1 0.15 0.24 0.0 0.0 1.5325 -0.0472 0.0 1.8083 0 0 0 0 0
746340 100130 -9.039 0.013671876 -1.0 0.02 1.04 -0.12 0.21 0.0 0.0 1.9527 -0.0363 0.0 1.8315 0 0 0 0 0
746360 100129 -9.038 0.021972656 -1.0 0.03 1.1 0.21 0.21 0.0 0.0 2.0372 -0.0193 0.0 1.8652 0 0 0 0 0
746381 100134 -9.043 0.016601562 -1.0 0.01 1.01 0.15 0.18 0.0 0.0 1.6145 -0.0384 0.0 1.8228 0 0 0 0 0
746401 100133 -9.045 0.022460937 -1.0 0.03 1.25 0.03 0.27 0.0 0.0 1.699 -0.0486 0.0 1.8013 0 0 0 0 0
746422 100129 -9.049 0.022460937 -1.0 0.03 0.98 0.06 0.21 0.0 0.0 2.0372 -0.0297 0.0 1.8398 0 0 0 0 0
746442 100131 -9.041 0.020507812 -1.0 0.01 1.01 0.21 0.21 0.0 0.0 1.8681 -0.0269 0.0 1.8439 0 0 0 0 0
746463 100134 -9.051 0.010253907 -1.0 0.03 1.07 -0.09 0.24 0.0 0.0 1.6145 -0.0461 0.0 1.805 0 0 0 0 0
746483 100128 -9.06 0.024414062 -1.0 0.03 0.95 0.12 0.3 0.0 0.0 2.1218 -0.0205 0.0 1.857 0 0 0 0 0
746504 100131 -9.043 0.017089843 -1.0 0.03 1.01 0.06 0.18 0.0 0.0 1.8681 -0.0197 0.0 1.8585 0 0 0 0 0
746524 100127 -9.064 0.015136719 -1.0 0.04 0.98 0.03 0.09 0.0 0.0 2.2063 0.0081 0.0 1.9163 0 0 0 0 0
746545 100126 -9.034 0.015136719 -1.0 0.01 1.16 -0.03 0.27 0.0 0.0 2.2882 0.038 0.0 1.9787 0 0 0 0 0
746565 100132 -9.054 0.013671876 -1.0 0.02 0.91 0.18 0.24 0.0 0.0 1.7836 0.0225 0.0 1.9468 0 0 0 0 0
746586 100129 -9.049 0.024414062 -1.0 0.03 1.07 -0.06 0.18 0.0 0.0 2.0372 0.0302 0.0 1.9624 0 0 0 0 0
746606 100131 -9.049 0.01953125 -1.0 0.03 1.04 0.18 0.24 0.0 0.0 1.8681 0.0231 0.0 1.9472 0 0 0 0 0
746627 100130 -9.066 0.009765625 -1.0 0.03 1.1 0.0 0.12 0.0 0.0 1.9527 0.0229 0.0 1.9486 0 0 0 0 0
746647 100129 -9.049 0.021484375 -1.0 0.03 0.88 0.18 0.4 0.0 0.0 2.0372 0.0303 0.0 1.9639 0 0 0 0 0
746668 100129 -9.032 0.015136719 -1.0 0.04 1.22 0.03 0.21 0.0 0.0 2.0372 0.0356 0.0 1.9768 0 0 0 0 0
746688 100132 -9.041 0.020996093 -1.0 0.02 0.98 -0.06 0.27 0.0 0.0 1.7836 0.0208 0.0 1.9452 0 0 0 0 0
746708 100126 -9.041 0.018066406 -1.0 0.03 1.1 0.09 0.27 0.0 0.0 2.2882 0.0481 0.0 2.003 0 0 0 0 0
746729 100128 -9.043 0.020507812 -1.0 0.03 1.07 0.15 0.18 0.0 0.0 2.1218 0.0578 0.0 2.0239 0 0 0 0 0
746749 100132 -9.043 0.021484375 -1.0 0.02 0.95 0.18 0.18 0.0 0.0 1.7836 0.039 0.0 1.9848 0 0 0 0 0
746770 100129 -9.041 0.020019531 -1.0 0.03 1.07 0.12 0.27 0.0 0.0 2.0372 0.0433 0.0 1.9944 0 0 0 0 0
746790 100128 -9.049 0.018066406 -1.0 0.02 1.07 -0.03 0.21 0.0 0.0 2.1218 0.0542 0.0 2.0166 0 0 0 0 0
746811 100131 -9.028 0.017578125 -1.0 0.02 1.1 -0.03 0.18 0.0 0.0 1.8681 0.0421 0.0 1.9929 0 0 0 0 0
746831 100130 -9.049 0.020996093 -1.0 0.04 0.98 0.12 0.09 0.0 0.0 1.9527 0.0386 0.0 1.987 0 0 0 0 0
746852 100130 -9.038 0.01953125 -1.0 0.02 1.13 0.0 0.27 0.0 0.0 1.9527 0.036 0.0 1.9821 0 0 0 0 0
746872 100130 -9.017 0.020019531 -1.0 0.02 1.01 -0.09 0.21 0.0 0.0 1.9527 0.0341 0.0 1.9779 0 0 0 0 0
746893 100127 -9.039 0.014160157 -0.99 0.02 0.95 -0.12 0.12 0.0 0.0 2.2063 0.0513 0.0 2.0168 0 0 0 0 0
746913 100129 -9.034 0.01953125 -1.0 0.02 1.16 0.09 0.34 0.0 0.0 2.0372 0.0526 0.0 2.0213 0 0 0 0 0
746934 100128 -9.03 0.023925781 -1.0 0.02 1.04 0.15 0.18 0.0 0.0 2.1218 0.0614 0.0 2.0392 0 0 0 0 0
746954 100132 -9.022 0.016113281 -1.0 0.03 0.88 0.03 0.27 0.0 0.0 1.7836 0.0408 0.0 1.9977 0 0 0 0 0
746975 100133 -9.03 0.009277344 -1.0 0.03 1.1 0.03 0.21 0.0 0.0 1.699 0.0164 0.0 1.9485 0 0 0 0 0
746995 100129 -9.041 0.020996093 -1.0 0.02 1.01 0.09 0.3 0.0 0.0 2.0372 0.0241 0.0 1.9637 0 0 0 0 0
747016 100129 -9.041 0.018066406 -1.0 0.03 1.01 0.18 0.34 0.0 0.0 2.0372 0.0301 0.0 1.9765 0 0 0 0 0
747036 100134 -9.051 0.009277344 -1.0 0.03 1.16 0.0 0.15 0.0 0.0 1.6145 0.0008 0.0 1.9165 0 0 0 0 0
747057 100131 -9.03 0.019042968 -1.0 0.02 0.95 -0.06 0.18 0.0 0.0 1.8681 -0.0032 0.0 1.9085 0 0 0 0 0
747077 100127 -9.032 0.026367187 -1.0 0.03 1.01 0.18 0.15 0.0 0.0 2.2063 0.0205 0.0 1.9582 0 0 0 0 0
747098 100131 -9.032 0.015625 -1.0 0.01 1.1 0.06 0.15 0.0 0.0 1.8681 0.0141 0.0 1.9436 0 0 0 0 0
747118 100128 -9.03 0.018066406 -1.0 0.03 1.13 0.0 0.12 0.0 0.0 2.1218 0.0284 0.0 1.9737 0 0 0 0 0
747139 100131 -9.03 0.018066406 -1.0 0.04 1.07 0.0 0.24 0.0 0.0 1.8681 0.0193 0.0 1.9566 0 0 0 0 0
747159 100131 -9.028 0.019042968 -1.0 0.03 1.01 0.03 0.12 0.0 0.0 1.8681 0.0127 0.0 1.9422 0 0 0 0 0
747180 100131 -9.034 0.015625 -1.0 0.02 1.07 0.09 0.24 0.0 0.0 1.8681 0.0069 0.0 1.9301 0 0 0 0 0
747200 100136 -9.013 0.021484375 -1.0 0.03 1.16 -0.03 0.09 0.0 0.0 1.448 -0.0319 0.0 1.8495 0 0 0 0 0
747220 100128 -9.024 0.024414062 -1.0 0.03 1.01 -0.06 0.15 0.0 0.0 2.1218 -0.0101 0.0 1.8944 0 0 0 0 0
747241 100130 -9.034 0.015136719 -0.99 0.03 1.16 -0.09 0.18 0.0 0.0 1.9527 -0.0065 0.0 1.904 0 0 0 0 0
747261 100128 -9.028 0.011230469 -1.0 0.03 1.01 0.06 0.21 0.0 0.0 2.1218 0.0108 0.0 1.9403 0 0 0 0 0
747282 100128 -9.022 0.019042968 -1.0 0.01 1.16 -0.12 0.18 0.0 0.0 2.1218 0.0256 0.0 1.9709 0 0 0 0 0
747302 100126 -9.019 0.009277344 -1.0 0.03 1.07 -0.12 0.24 0.0 0.0 2.2882 0.0502 0.0 2.0245 0 0 0 0 0
747323 100132 -9.015 0.021484375 -1.0 0.04 1.19 -0.03 0.09 0.0 0.0 1.7836 0.0305 0.0 1.9852 0 0 0 0 0
747343 100134 -9.019 0.015625 -1.0 0.02 1.1 -0.03 0.3 0.0 0.0 1.6145 0.0014 0.0 1.9238 0 0 0 0 0
747364 100137 -9.011 0.015136719 -1.0 0.04 1.01 0.21 0.06 0.0 0.0 1.3634 -0.044 0.0 1.83 0 0 0 0 0
747384 100131 -8.992 0.02734375 -1.0 0.02 1.13 -0.03 0.15 0.0 0.0 1.8681 -0.0403 0.0 1.8355 0 0 0 0 0
747405 100133 -9.015 0.014648438 -1.0 0.03 0.95 0.15 0.27 0.0 0.0 1.699 -0.0515 0.0 1.8118 0 0 0 0 0
747425 100132 -9.013 0.013183594 -0.99 0.04 1.19 0.0 0.12 0.0 0.0 1.7836 -0.0546 0.0 1.8061 0 0 0 0 0
747446 100129 -9.021 0.013183594 -1.0 0.01 1.13 0.0 0.37 0.0 0.0 2.0372 -0.0356 0.0 1.8436 0 0 0 0 0
747466 100129 -9.024 0.017089843 -1.0 0.03 1.13 -0.06 0.3 0.0 0.0 2.0372 -0.02 0.0 1.8753 0 0 0 0 0
747487 100127 -9.019 0.018066406 -1.0 0.03 1.04 0.09 0.21 0.0 0.0 2.2063 0.0057 0.0 1.9303 0 0 0 0 0
747507 100132 -9.013 0.01953125 -1.0 0.03 1.16 0.18 0.24 0.0 0.0 1.7836 -0.0061 0.0 1.9059 0 0 0 0 0
747528 100128 -9.009 0.010253907 -1.0 0.02 1.1 0.15 0.27 0.0 0.0 2.1218 0.0118 0.0 1.9419 0 0 0 0 0
747548 100128 -9.009 0.017089843 -1.0 0.04 1.19 -0.03 0.15 0.0 0.0 2.1218 0.0256 0.0 1.9722 0 0 0 0 0
747569 100128 -9.009 0.016113281 -1.0 0.02 1.04 0.03 0.34 0.0 0.0 2.1218 0.0375 0.0 1.9978 0 0 0 0 0
747589 100127 -9.019 0.008300782 -1.0 0.02 1.22 -0.15 0.09 0.0 0.0 2.2063 0.0535 0.0 2.0334 0 0 0 0 0
747610 100128 -9.0 0.018554687 -1.0 0.03 1.28 0.49 0.37 0.0 0.0 2.1218 0.0608 0.0 2.0493 0 0 0 0 0
747630 100126 -9.002 0.020019531 -1.0 0.04 0.95 0.34 0.15 0.0 0.0 2.2882 0.0795 0.0 2.0905 0 0 0 0 0
747651 100129 -8.998 0.018554687 -1.0 0.02 1.07 -0.03 0.24 0.0 0.0 2.0372 0.0761 0.0 2.0833 0 0 0 0 0
747671 100127 -9.019 0.017089843 -1.0 0.03 1.04 0.12 0.12 0.0 0.0 2.2063 0.0864 0.0 2.1054 0 0 0 0 0
747692 100127 -9.007 0.014160157 -1.0 0.04 1.04 -0.03 0.18 0.0 0.0 2.2063 0.0945 0.0 2.1241 0 0 0 0 0
747712 100131 -9.013 0.016601562 -1.0 0.03 1.1 0.06 0.12 0.0 0.0 1.8681 0.0741 0.0 2.0832 0 0 0 0 0
747732 100132 -8.998 0.024902343 -1.0 0.03 1.07 -0.18 0.24 0.0 0.0 1.7836 0.0509 0.0 2.0345 0 0 0 0 0
747753 100135 -9.002 0.009765625 -1.0 0.03 0.95 0.06 0.27 0.0 0.0 1.5325 0.0105 0.0 1.9516 0 0 0 0 0
747773 100127 -8.991 0.013671876 -1.0 0.02 1.13 -0.09 0.18 0.0 0.0 2.2063 0.0305 0.0 1.9944 0 0 0 0 0
747794 100131 -8.974 0.01953125 -1.01 0.02 1.1 0.15 0.18 0.0 0.0 1.8681 0.0219 0.0 1.9739 0 0 0 0 0
747814 100133 -9.002 0.01953125 -1.0 0.03 1.01 0.06 0.24 0.0 0.0 1.699 -0.0003 0.0 1.9284 0 0 0 0 0
747835 100129 -9.004 0.015136719 -1.0 0.03 1.22 -0.12 0.21 0.0 0.0 2.0372 0.008 0.0 1.9466 0 0 0 0 0
747855 100132 -8.981 0.021484375 -1.0 0.03 0.98 -0.06 0.21 0.0 0.0 1.7836 -0.0055 0.0 1.9195 0 0 0 0 0
747876 100133 -9.024 0.022949218 -1.0 0.03 1.13 0.09 0.24 0.0 0.0 1.699 -0.0226 0.0 1.8824 0 0 0 0 0
747896 100127 -9.004 0.014648438 -1.0 0.01 1.1 -0.06 0.18 0.0 0.0 2.2063 0.0034 0.0 1.9362 0 0 0 0 0
747917 100127 -8.998 0.014648438 -1.0 0.03 1.01 -0.12 0.15 0.0 0.0 2.2063 0.0249 0.0 1.9815 0 0 0 0 0
747937 100128 -9.007 0.01953125 -1.0 0.04 0.91 0.03 0.18 0.0 0.0 2.1218 0.0362 0.0 2.0054 0 0 0 0 0
747958 100130 -9.002 0.013183594 -1.0 0.03 1.1 0.18 0.21 0.0 0.0 1.9527 0.0319 0.0 1.9974 0 0 0 0 0
747978 100130 -9.007 0.013183594 -1.0 0.01 1.16 0.21 0.21 0.0 0.0 1.9527 0.0294 0.0 1.9905 0 0 0 0 0
747999 100132 -8.994 0.017578125 -1.0 0.04 1.07 0.09 0.15 0.0 0.0 1.7836 0.0135 0.0 1.9565 0 0 0 0 0
748019 100126 -8.992 0.018066406 -1.0 0.03 1.04 -0.03 0.18 0.0 0.0 2.2882 0.0401 0.0 2.0123 0 0 0 0 0
748040 100127 -9.006 0.01953125 -1.0 0.02 1.13 0.09 0.24 0.0 0.0 2.2063 0.0566 0.0 2.0456 0 0 0 0 0
748060 100133 -9.006 0.018066406 -1.0 0.03 0.98 -0.03 0.24 0.0 0.0 1.699 0.0288 0.0 1.9887 0 0 0 0 0
748081 100133 -8.987 0.017578125 -1.0 0.04 1.25 -0.12 0.3 0.0 0.0 1.699 0.0053 0.0 1.9409 0 0 0 0 0
748101 100133 -8.987 0.026367187 -1.0 0.02 1.04 0.03 0.15 0.0 0.0 1.699 -0.0133 0.0 1.9005 0 0 0 0 0
748122 100133 -8.983 0.017578125 -1.0 0.03 1.19 -0.06 0.18 0.0 0.0 1.699 -0.0297 0.0 1.8665 0 0 0 0 0
748142 100125 -8.992 0.010253907 -1.0 0.03 1.13 0.12 0.34 0.0 0.0 2.3728 0.0106 0.0 1.9506 0 0 0 0 0
748163 100128 -8.992 0.015625 -1.0 0.03 1.16 0.12 0.15 0.0 0.0 2.1218 0.0242 0.0 1.9795 0 0 0 0 0
748183 100132 -8.996 0.024902343 -1.0 0.03 1.01 0.18 0.27 0.0 0.0 1.7836 0.0087 0.0 1.9472 0 0 0 0 0
748204 100129 -8.998 0.010253907 -1.0 0.03 1.01 0.0 0.15 0.0 0.0 2.0372 0.0158 0.0 1.9624 0 0 0 0 0
748224 100130 -8.992 0.010253907 -1.0 0.02 0.95 0.09 0.24 0.0 0.0 1.9527 0.0159 0.0 1.9611 0 0 0 0 0
748244 100130 -8.983 0.021972656 -1.0 0.02 1.01 0.0 0.18 0.0 0.0 1.9527 0.016 0.0 1.96 0 0 0 0 0
748265 100130 -9.002 0.020019531 -1.0 0.02 1.1 -0.12 0.15 0.0 0.0 1.9527 0.0161 0.0 1.9591 0 0 0 0 0
748285 100133 -9.004 0.015136719 -0.99 0.04 0.98 0.09 0.3 0.0 0.0 1.699 -0.0059 0.0 1.9159 0 0 0 0 0
748306 100131 -8.987 0.024902343 -1.0 0.02 0.95 0.0 0.21 0.0 0.0 1.8681 -0.009 0.0 1.9078 0 0 0 0 0
748326 100133 -8.989 0.014648438 -1.0 0.02 1.04 0.03 0.37 0.0 0.0 1.699 -0.0256 0.0 1.8727 0 0 0 0 0
748347 100136 -8.976 0.015625 -1.0 0.04 1.13 -0.03 0.24 0.0 0.0 1.448 -0.0598 0.0 1.8011 0 0 0 0 0
748367 100128 -9.006 0.020996093 -1.0 0.03 1.07 0.21 0.3 0.0 0.0 2.1218 -0.0342 0.0 1.8535 0 0 0 0 0
748388 100130 -8.991 0.013671876 -1.0 0.02 1.04 0.15 0.27 0.0 0.0 1.9527 -0.0269 0.0 1.8694 0 0 0 0 0
748408 100129 -8.992 0.023925781 -1.0 0.02 1.04 -0.09 0.24 0.0 0.0 2.0372 -0.0138 0.0 1.8969 0 0 0 0 0
748429 100126 -8.985 0.020019531 -1.0 0.04 0.88 0.03 0.24 0.0 0.0 2.2882 0.0174 0.0 1.9622 0 0 0 0 0
748449 100130 -8.983 0.010742188 -1.0 0.02 1.07 0.03 0.15 0.0 0.0 1.9527 0.016 0.0 1.9609 0 0 0 0 0
748470 100129 -8.983 0.014648438 -1.0 0.02 0.98 -0.03 0.12 0.0 0.0 2.0372 0.0221 0.0 1.974 0 0 0 0 0
748490 100126 -8.983 0.019042968 -1.0 0.03 0.98 0.09 0.21 0.0 0.0 2.2882 0.0478 0.0 2.027 0 0 0 0 0
748511 100128 -8.991 0.018554687 -1.0 0.02 1.04 0.09 0.09 0.0 0.0 2.1218 0.0561 0.0 2.0439 0 0 0 0 0
748531 100128 -8.972 0.01953125 -1.0 0.04 1.07 -0.03 0.21 0.0 0.0 2.1218 0.0617 0.0 2.0581 0 0 0 0 0
748552 100131 -9.004 0.021484375 -1.0 0.02 0.98 0.09 0.37 0.0 0.0 1.8681 0.0467 0.0 2.0276 0 0 0 0 0
748572 100125 -8.983 0.017578125 -1.0 0.03 1.16 0.09 0.24 0.0 0.0 2.3728 0.0739 0.0 2.0862 0 0 0 0 0
748593 100130 -8.966 0.0234375 -1.0 0.04 1.16 0.03 0.21 0.0 0.0 1.9527 0.0629 0.0 2.0654 0 0 0 0 0
748613 100133 -8.981 0.016113281 -1.0 0.03 1.07 0.12 0.21 0.0 0.0 1.699 0.034 0.0 2.0054 0 0 0 0 0
748634 100129 -8.977 0.010253907 -1.0 0.02 1.19 -0.15 0.27 0.0 0.0 2.0372 0.0366 0.0 2.0114 0 0 0 0 0
748654 100130 -8.996 0.021484375 -1.0 0.02 1.01 0.09 0.34 0.0 0.0 1.9527 0.0326 0.0 2.0023 0 0 0 0 0
748675 100129 -8.983 0.017578125 -1.0 0.03 1.13 0.03 0.3 0.0 0.0 2.0372 0.0359 0.0 2.0089 0 0 0 0 0
748695 100134 -8.976 0.011230469 -1.0 0.03 0.95 0.12 0.15 0.0 0.0 1.6145 0.0038 0.0 1.9436 0 0 0 0 0
748716 100132 -8.968 0.017578125 -1.0 0.03 0.95 -0.03 0.27 0.0 0.0 1.7836 -0.0084 0.0 1.9169 0 0 0 0 0
748736 100130 -8.976 0.023925781 -1.0 0.03 1.04 0.12 0.24 0.0 0.0 1.9527 -0.0059 0.0 1.9227 0 0 0 0 0
748756 100131 -8.987 0.020019531 -1.0 0.02 1.22 -0.15 0.18 0.0 0.0 1.8681 -0.0092 0.0 1.9135 0 0 0 0 0
748777 100126 -8.977 0.019042968 -1.0 0.03 0.88 0.18 0.3 0.0 0.0 2.2882 0.0216 0.0 1.976 0 0 0 0 0
748797 100130 -8.962 0.016601562 -1.0 0.03 0.98 0.0 0.09 0.0 0.0 1.9527 0.0193 0.0 1.9725 0 0 0 0 0
748818 100132 -8.987 0.019042968 -1.0 0.02 1.01 0.0 0.27 0.0 0.0 1.7836 0.0042 0.0 1.9413 0 0 0 0 0
748838 100128 -8.964 0.026855468 -1.0 0.02 1.07 0.0 0.37 0.0 0.0 2.1218 0.0195 0.0 1.9716 0 0 0 0 0
748859 100130 -8.972 0.010253907 -1.0 0.02 1.07 0.09 0.06 0.0 0.0 1.9527 0.0178 0.0 1.9688 0 0 0 0 0
748879 100130 -8.968 0.012695313 -1.0 0.03 1.04 0.06 0.27 0.0 0.0 1.9527 0.0162 0.0 1.9665 0 0 0 0 0
748900 100128 -8.966 0.020019531 -1.0 0.04 1.1 -0.27 0.34 0.0 0.0 2.1218 0.0289 0.0 1.9928 0 0 0 0 0
748920 100130 -8.964 0.016113281 -1.0 0.03 1.22 0.0 0.03 0.0 0.0 1.9527 0.0255 0.0 1.9867 0 0 0 0 0
748941 100127 -8.977 0.012695313 -1.0 0.02 1.16 0.09 0.27 0.0 0.0 2.2063 0.0434 0.0 2.024 0 0 0 0 0
748961 100132 -8.97 0.022949218 -1.0 0.02 1.04 0.18 0.12 0.0 0.0 1.7836 0.0246 0.0 1.9846 0 0 0 0 0
748982 100132 -8.957 0.020507812 -1.0 0.04 1.01 0.3 0.3 0.0 0.0 1.7836 0.008 0.0 1.9515 0 0 0 0 0
749002 100131 -8.944 0.015625 -1.0 0.02 1.22 -0.03 0.18 0.0 0.0 1.8681 0.0012 0.0 1.9377 0 0 0 0 0
749023 100128 -8.979 0.015625 -1.0 0.03 1.01 0.03 0.21 0.0 0.0 2.1218 0.0164 0.0 1.9685 0 0 0 0 0
749043 100131 -8.96 0.022460937 -1.0 0.04 1.13 0.09 0.21 0.0 0.0 1.8681 0.0081 0.0 1.9521 0 0 0 0 0
749064 100130 -8.959 0.017578125 -1.0 0.03 1.04 0.0 0.21 0.0 0.0 1.9527 0.0082 0.0 1.9523 0 0 0 0 0
749084 100136 -8.97 0.013671876 -1.0 0.01 1.01 0.06 0.18 0.0 0.0 1.448 -0.0318 0.0 1.8681 0 0 0 0 0
749105 100130 -8.968 0.010253907 -1.0 0.04 1.07 0.12 0.24 0.0 0.0 1.9527 -0.0255 0.0 1.8816 0 0 0 0 0
749125 100129 -8.966 0.020019531 -1.0 0.03 0.98 -0.15 0.18 0.0 0.0 2.0372 -0.0137 0.0 1.9071 0 0 0 0 0
749146 100127 -8.974 0.024414062 -1.0 0.03 1.25 -0.03 0.18 0.0 0.0 2.2063 0.0105 0.0 1.9569 0 0 0 0 0
749166 100132 -8.953 0.019042968 -1.0 0.02 1.1 -0.06 0.24 0.0 0.0 1.7836 -0.0033 0.0 1.9281 0 0 0 0 0
749187 100128 -8.966 0.013671876 -1.0 0.02 1.01 -0.03 0.15 0.0 0.0 2.1218 0.013 0.0 1.9605 0 0 0 0 0
749207 100131 -8.962 0.0234375 -1.0 0.03 0.98 0.27 0.18 0.0 0.0 1.8681 0.006 0.0 1.9453 0 0 0 0 0
749228 100131 -8.976 0.025390625 -1.0 0.02 1.13 -0.15 0.24 0.0 0.0 1.8681 0.0002 0.0 1.9325 0 0 0 0 0
749248 100131 -8.951 0.015136719 -1.0 0.03 1.1 -0.03 0.24 0.0 0.0 1.8681 -0.0053 0.0 1.9217 0 0 0 0 0
749268 100132 -8.951 0.010742188 -1.0 0.04 1.01 0.09 0.24 0.0 0.0 1.7836 -0.0168 0.0 1.8985 0 0 0 0 0
749289 100127 -8.974 0.013183594 -1.0 0.01 1.22 -0.03 0.21 0.0 0.0 2.2063 0.0085 0.0 1.9497 0 0 0 0 0
749309 100132 -8.964 0.015625 -1.0 0.04 1.07 0.0 0.12 0.0 0.0 1.7836 -0.0055 0.0 1.9221 0 0 0 0 0
749330 100129 -8.962 0.020996093 -1.0 0.03 0.88 0.09 0.34 0.0 0.0 2.0372 0.0038 0.0 1.9412 0 0 0 0 0
749350 100128 -8.966 0.017089843 -1.0 0.02 1.04 0.06 0.27 0.0 0.0 2.1218 0.0185 0.0 1.9715 0 0 0 0 0
749371 100134 -8.968 0.014160157 -1.0 0.04 0.88 0.21 0.24 0.0 0.0 1.6145 -0.0108 0.0 1.9121 0 0 0 0 0
749391 100130 -8.955 0.022949218 -1.0 0.02 0.95 -0.03 0.15 0.0 0.0 1.9527 -0.0067 0.0 1.9187 0 0 0 0 0
749412 100129 -8.959 0.015625 -1.0 0.03 1.1 0.12 0.24 0.0 0.0 2.0372 0.0028 0.0 1.9384 0 0 0 0 0
749432 100132 -8.947 0.008300782 -1.0 0.03 1.1 0.06 0.24 0.0 0.0 1.7836 -0.01 0.0 1.9125 0 0 0 0 0
749453 100132 -8.959 0.021972656 -1.0 0.02 1.34 -0.09 0.21 0.0 0.0 1.7836 -0.0195 0.0 1.8907 0 0 0 0 0
749473 100132 -8.953 0.016113281 -1.0 0.03 0.98 0.0 0.06 0.0 0.0 1.7836 -0.0279 0.0 1.8724 0 0 0 0 0
749494 100130 -8.959 0.016113281 -1.0 0.02 1.01 0.06 0.24 0.0 0.0 1.9527 -0.0214 0.0 1.8853 0 0 0 0 0
749514 100131 -8.96 0.018554687 -1.0 0.03 1.04 0.18 0.12 0.0 0.0 1.8681 -0.0223 0.0 1.882 0 0 0 0 0
749535 100123 -8.949 0.012695313 -1.0 0.02 1.19 -0.24 0.18 0.0 0.0 2.5419 0.0315 0.0 1.992 0 0 0 0 0
749555 100129 -8.947 0.016601562 -1.0 0.04 1.04 0.12 0.12 0.0 0.0 2.0372 0.0344 0.0 2.0002 0 0 0 0 0
749576 100133 -8.966 0.015136719 -1.0 0.02 1.07 0.15 0.15 0.0 0.0 1.699 0.0102 0.0 1.9505 0 0 0 0 0
749596 100129 -8.949 0.009765625 -1.0 0.03 1.1 0.18 0.18 0.0 0.0 2.0372 0.0168 0.0 1.9652 0 0 0 0 0
749617 100130 -8.936 0.020019531 -1.0 0.02 0.91 0.0 0.24 0.0 0.0 1.9527 0.0153 0.0 1.9635 0 0 0 0 0
749637 100129 -8.962 0.018066406 -1.0 0.04 1.1 -0.06 0.18 0.0 0.0 2.0372 0.0208 0.0 1.9761 0 0 0 0 0
749658 100131 -8.955 0.022460937 -1.0 0.01 1.01 0.03 0.18 0.0 0.0 1.8681 0.0123 0.0 1.9585 0 0 0 0 0
749678 100128 -8.947 0.015625 -1.0 0.03 1.1 0.0 0.21 0.0 0.0 2.1218 0.0255 0.0 1.986 0 0 0 0 0
749699 100135 -8.936 0.011230469 -0.99 0.04 0.95 0.03 0.24 0.0 0.0 1.5325 -0.0117 0.0 1.9107 0 0 0 0 0
749719 100127 -8.938 0.014648438 -1.0 0.03 1.16 0.06 0.24 0.0 0.0 2.2063 0.0124 0.0 1.9599 0 0 0 0 0
749740 100132 -8.934 0.0234375 -1.0 0.02 0.95 0.18 0.43 0.0 0.0 1.7836 -0.0011 0.0 1.9306 0 0 0 0 0
749760 100128 -8.949 0.012695313 -1.0 0.04 1.13 -0.03 0.24 0.0 0.0 2.1218 0.0135 0.0 1.9626 0 0 0 0 0
749780 100135 -8.93 0.015625 -1.0 0.03 1.07 -0.09 0.18 0.0 0.0 1.5325 -0.021 0.0 1.8909 0 0 0 0 0
749801 100130 -8.957 0.017578125 -1.0 0.02 1.13 0.24 0.34 0.0 0.0 1.9527 -0.0156 0.0 1.9008 0 0 0 0 0
749821 100129 -8.959 0.017578125 -1.0 0.03 1.1 0.06 0.21 0.0 0.0 2.0372 -0.0051 0.0 1.9233 0 0 0 0 0
749842 100133 -8.929 0.011718751 -1.0 0.04 1.04 0.15 0.15 0.0 0.0 1.699 -0.0234 0.0 1.8857 0 0 0 0 0
749862 100131 -8.925 0.022949218 -1.0 0.03 1.16 -0.03 0.15 0.0 0.0 1.8681 -0.0242 0.0 1.8823 0 0 0 0 0
749883 100129 -8.936 0.0234375 -1.0 0.03 1.13 -0.09 0.21 0.0 0.0 2.0372 -0.0115 0.0 1.9077 0 0 0 0 0
749903 100125 -8.942 0.014648438 -1.0 0.02 1.13 -0.06 0.27 0.0 0.0 2.3728 0.0264 0.0 1.9853 0 0 0 0 0
749924 100129 -8.949 0.014648438 -1.0 0.03 1.04 0.03 0.27 0.0 0.0 2.0372 0.0304 0.0 1.9945 0 0 0 0 0
749944 100135 -8.927 0.021484375 -1.0 0.04 1.16 -0.03 0.21 0.0 0.0 1.5325 -0.0072 0.0 1.9178 0 0 0 0 0
749965 100127 -8.93 0.011230469 -1.0 0.02 1.1 0.09 0.3 0.0 0.0 2.2063 0.0157 0.0 1.966 0 0 0 0 0
749985 100130 -8.94 0.021972656 -1.0 0.01 0.98 0.15 0.15 0.0 0.0 1.9527 0.0152 0.0 1.9641 0 0 0 0 0
750006 100128 -8.938 0.01953125 -1.0 0.04 0.91 0.09 0.15 0.0 0.0 2.1218 0.0275 0.0 1.9908 0 0 0 0 0
750026 100133 -8.938 0.017578125 -1.0 0.03 1.19 0.18 0.09 0.0 0.0 1.699 0.0041 0.0 1.9425 0 0 0 0 0
750047 100128 -8.923 0.017578125 -1.0 0.01 1.04 -0.03 0.24 0.0 0.0 2.1218 0.0194 0.0 1.9726 0 0 0 0 0
750067 100132 -8.91 0.015136719 -1.0 0.03 1.01 -0.06 0.21 0.0 0.0 1.7836 0.0044 0.0 1.9414 0 0 0 0 0
750088 100131 -8.915 0.020996093 -1.0 0.04 1.04 0.12 0.12 0.0 0.0 1.8681 -0.0016 0.0 1.9292 0 0 0 0 0
750108 100128 -8.932 0.023925781 -1.0 0.02 0.98 -0.03 0.27 0.0 0.0 2.1218 0.0146 0.0 1.9614 0 0 0 0 0
750129 100131 -8.94 0.015136719 -1.0 0.03 1.1 0.0 0.24 0.0 0.0 1.8681 0.0068 0.0 1.9461 0 0 0 0 0
750149 100128 -8.957 0.012207032 -1.0 0.03 1.1 0.12 0.21 0.0 0.0 2.1218 0.0201 0.0 1.9756 0 0 0 0 0
750170 100132 -8.93 0.020019531 -1.0 0.03 1.22 -0.06 0.15 0.0 0.0 1.7836 0.0052 0.0 1.9439 0 0 0 0 0
750190 100125 -8.938 0.026367187 -1.0 0.03 1.19 -0.15 0.21 0.0 0.0 2.3728 0.0401 0.0 2.0158 0 0 0 0 0
750211 100129 -8.944 0.010742188 -0.99 0.03 0.95 0.15 0.3 0.0 0.0 2.0372 0.0408 0.0 2.0202 0 0 0 0 0
750231 100130 -8.927 0.014160157 -0.99 0.04 0.98 0.06 0.12 0.0 0.0 1.9527 0.0344 0.0 2.0097 0 0 0 0 0
750252 100130 -8.938 0.015136719 -1.0 0.02 1.13 0.12 0.18 0.0 0.0 1.9527 0.03 0.0 2.0009 0 0 0 0 0
750272 100127 -8.923 0.016601562 -1.0 0.01 1.04 0.18 0.15 0.0 0.0 2.2063 0.0467 0.0 2.0359 0 0 0 0 0
750292 100133 -8.917 0.027832031 -1.0 0.03 1.07 -0.12 0.27 0.0 0.0 1.699 0.0201 0.0 1.9804 0 0 0 0 0
750313 100129 -8.925 0.017089843 -1.0 0.01 1.04 0.12 0.27 0.0 0.0 2.0372 0.0254 0.0 1.9904 0 0 0 0 0
750333 100131 -8.938 0.012695313 -1.0 0.03 1.1 -0.06 0.37 0.0 0.0 1.8681 0.0149 0.0 1.9704 0 0 0 0 0
750354 100129 -8.929 0.020019531 -1.0 0.03 0.98 0.06 0.09 0.0 0.0 2.0372 0.0201 0.0 1.9819 0 0 0 0 0
750374 100128 -8.938 0.020996093 -1.0 0.01 1.16 -0.09 0.3 0.0 0.0 2.1218 0.0322 0.0 2.0057 0 0 0 0 0
750395 100132 -8.915 0.013671876 -1.0 0.03 1.1 -0.03 0.21 0.0 0.0 1.7836 0.0137 0.0 1.9692 0 0 0 0 0
750415 100128 -8.929 0.013671876 -1.0 0.02 1.01 0.09 0.12 0.0 0.0 2.1218 0.0261 0.0 1.995 0 0 0 0 0
750436 100134 -8.91 0.016113281 -1.0 0.02 1.01 0.15 0.15 0.0 0.0 1.6145 -0.0036 0.0 1.9319 0 0 0 0 0
750456 100127 -8.904 0.018554687 -1.0 0.04 0.91 0.18 0.27 0.0 0.0 2.2063 0.0181 0.0 1.9777 0 0 0 0 0
750477 100130 -8.917 0.016601562 -1.0 0.02 0.91 0.03 0.27 0.0 0.0 1.9527 0.0165 0.0 1.9739 0 0 0 0 0
750497 100130 -8.919 0.018554687 -1.0 0.03 1.1 0.09 0.4 0.0 0.0 1.9527 0.015 0.0 1.9707 0 0 0 0 0
750518 100130 -8.923 0.013183594 -1.0 0.03 1.04 0.12 0.12 0.0 0.0 1.9527 0.0142 0.0 1.968 0 0 0 0 0
750538 100132 -8.917 0.025390625 -1.0 0.02 0.98 -0.03 0.37 0.0 0.0 1.7836 -0.0001 0.0 1.9374 0 0 0 0 0
750559 100127 -8.921 0.012695313 -1.0 0.02 1.19 -0.09 0.18 0.0 0.0 2.2063 0.0215 0.0 1.9824 0 0 0 0 0
750579 100135 -8.925 0.017578125 -1.0 0.02 1.01 0.06 0.15 0.0 0.0 1.5325 -0.0141 0.0 1.9076 0 0 0 0 0
750600 100125 -8.912 0.021484375 -1.0 0.02 1.1 -0.06 0.21 0.0 0.0 2.3728 0.0233 0.0 1.9852 0 0 0 0 0
750620 100131 -8.919 0.018066406 -1.0 0.02 1.04 -0.03 0.27 0.0 0.0 1.8681 0.0144 0.0 1.966 0 0 0 0 0
750641 100130 -8.908 0.016601562 -1.0 0.04 0.95 0.03 0.18 0.0 0.0 1.9527 0.0128 0.0 1.9641 0 0 0 0 0
750661 100126 -8.917 0.015625 -1.01 0.01 1.34 -0.03 0.15 0.0 0.0 2.2882 0.0401 0.0 2.0186 0 0 0 0 0
750682 100130 -8.908 0.015625 -1.0 0.03 1.04 0.0 0.24 0.0 0.0 1.9527 0.0347 0.0 2.0084 0 0 0 0 0
750702 100129 -8.891 0.016113281 -1.0 0.03 1.07 0.0 0.15 0.0 0.0 2.0372 0.037 0.0 2.0139 0 0 0 0 0
750723 100133 -8.915 0.017089843 -1.0 0.03 0.95 -0.03 0.24 0.0 0.0 1.699 0.0115 0.0 1.962 0 0 0 0 0
750743 100127 -8.919 0.021972656 -1.0 0.02 1.13 -0.12 0.18 0.0 0.0 2.2063 0.032 0.0 2.0031 0 0 0 0 0
750764 100130 -8.908 0.008300782 -1.0 0.02 1.16 -0.03 0.24 0.0 0.0 1.9527 0.0283 0.0 1.9953 0 0 0 0 0
750784 100130 -8.899 0.016113281 -1.0 0.02 0.91 0.03 0.27 0.0 0.0 1.9527 0.0251 0.0 1.9888 0 0 0 0 0
750804 100136 -8.895 0.020019531 -1.0 0.03 0.91 0.18 0.27 0.0 0.0 1.448 -0.0179 0.0 1.8988 0 0 0 0 0
750825 100127 -8.906 0.018066406 -1.0 0.03 1.01 0.09 0.24 0.0 0.0 2.2063 0.0069 0.0 1.9499 0 0 0 0 0
750845 100132 -8.882 0.017089843 -1.0 0.01 1.1 -0.06 0.27 0.0 0.0 1.7836 -0.0067 0.0 1.9222 0 0 0 0 0
750866 100125 -8.906 0.010253907 -1.0 0.03 1.04 0.03 0.27 0.0 0.0 2.3728 0.0289 0.0 1.9975 0 0 0 0 0
750886 100131 -8.906 0.008300782 -1.0 0.04 1.13 0.0 0.3 0.0 0.0 1.8681 0.0185 0.0 1.9764 0 0 0 0 0
750907 100135 -8.887 0.0234375 -1.0 0.02 0.91 0.21 0.18 0.0 0.0 1.5325 -0.0163 0.0 1.9025 0 0 0 0 0
750927 100128 -8.904 0.017089843 -1.0 0.03 1.1 0.09 0.21 0.0 0.0 2.1218 0.001 0.0 1.9389 0 0 0 0 0
750948 100132 -8.91 0.014160157 -1.0 0.04 1.04 0.15 0.27 0.0 0.0 1.7836 -0.0119 0.0 1.9129 0 0 0 0 0
750968 100128 -8.9 0.017578125 -1.0 0.02 1.16 0.06 0.21 0.0 0.0 2.1218 0.0046 0.0 1.9476 0 0 0 0 0
750989 100133 -8.906 0.024414062 -1.0 0.03 1.13 -0.03 0.21 0.0 0.0 1.699 -0.0151 0.0 1.9061 0 0 0 0 0
751009 100132 -8.904 0.010742188 -1.0 0.04 1.04 0.03 0.09 0.0 0.0 1.7836 -0.0253 0.0 1.8853 0 0 0 0 0
751030 100129 -8.906 0.018066406 -1.0 0.03 1.07 0.06 0.18 0.0 0.0 2.0372 -0.0139 0.0 1.9102 0 0 0 0 0
751050 100131 -8.897 0.024414062 -1.0 0.02 1.13 -0.03 0.06 0.0 0.0 1.8681 -0.0164 0.0 1.9029 0 0 0 0 0
751071 100132 -8.906 0.016601562 -1.0 0.03 1.07 0.06 0.24 0.0 0.0 1.7836 -0.0253 0.0 1.8826 0 0 0 0 0
751091 100135 -8.895 0.012207032 -1.0 0.02 1.07 0.18 0.18 0.0 0.0 1.5325 -0.053 0.0 1.8235 0 0 0 0 0
751112 100129 -8.915 0.017578125 -1.0 0.04 1.07 0.15 0.12 0.0 0.0 2.0372 -0.0367 0.0 1.8582 0 0 0 0 0
751132 100130 -8.9 0.016601562 -1.0 0.03 1.01 0.09 0.34 0.0 0.0 1.9527 -0.0288 0.0 1.8732 0 0 0 0 0
751153 100125 -8.899 0.018554687 -1.0 0.01 0.98 0.12 0.37 0.0 0.0 2.3728 0.0116 0.0 1.9562 0 0 0 0 0
751173 100133 -8.891 0.017578125 -1.0 0.02 1.07 0.0 0.15 0.0 0.0 1.699 -0.009 0.0 1.9134 0 0 0 0 0
751194 100125 -8.899 0.012207032 -1.0 0.03 0.85 0.21 0.12 0.0 0.0 2.3728 0.0283 0.0 1.9901 0 0 0 0 0
751214 100131 -8.902 0.021484375 -1.0 0.01 1.16 -0.06 0.12 0.0 0.0 1.8681 0.0195 0.0 1.9703 0 0 0 0 0
751235 100129 -8.902 0.022460937 -1.0 0.02 1.25 0.0 0.21 0.0 0.0 2.0372 0.025 0.0 1.9819 0 0 0 0 0
751255 100130 -8.885 0.020019531 -1.0 0.03 1.1 0.06 0.27 0.0 0.0 1.9527 0.0223 0.0 1.9775 0 0 0 0 0
751276 100132 -8.889 0.011718751 -1.0 0.03 0.85 0.18 0.27 0.0 0.0 1.7836 0.0059 0.0 1.9455 0 0 0 0 0
751296 100131 -8.893 0.014648438 -1.0 0.01 0.91 0.03 0.24 0.0 0.0 1.8681 0.0001 0.0 1.9327 0 0 0 0 0
751316 100133 -8.882 0.010742188 -1.0 0.03 1.07 0.24 0.24 0.0 0.0 1.699 -0.0192 0.0 1.8936 0 0 0 0 0
751337 100132 -8.9 0.021972656 -1.0 0.03 1.13 0.0 0.18 0.0 0.0 1.7836 -0.0276 0.0 1.8748 0 0 0 0 0
751357 100129 -8.893 0.016113281 -1.0 0.02 1.1 0.12 0.21 0.0 0.0 2.0372 -0.0141 0.0 1.9014 0 0 0 0 0
751378 100127 -8.891 0.024414062 -1.0 0.03 1.01 0.06 0.09 0.0 0.0 2.2063 0.0109 0.0 1.9521 0 0 0 0 0
751398 100128 -8.91 0.015625 -1.0 0.01 1.16 0.09 0.18 0.0 0.0 2.1218 0.0251 0.0 1.9807 0 0 0 0 0
751419 100128 -8.899 0.024902343 -1.0 0.02 1.1 0.0 0.18 0.0 0.0 2.1218 0.0369 0.0 2.0049 0 0 0 0 0
751439 100125 -8.893 0.0234375 -1.0 0.04 1.07 0.03 0.18 0.0 0.0 2.3728 0.0662 0.0 2.0672 0 0 0 0 0
751460 100133 -8.891 0.010253907 -1.0 0.02 1.13 0.12 0.24 0.0 0.0 1.699 0.0368 0.0 2.0069 0 0 0 0 0
751480 100133 -8.878 0.009277344 -1.0 0.03 1.04 0.06 0.24 0.0 0.0 1.699 0.012 0.0 1.9562 0 0 0 0 0
751501 100130 -8.887 0.022460937 -1.0 0.01 0.82 0.18 0.15 0.0 0.0 1.9527 0.012 0.0 1.9558 0 0 0 0 0
751521 100127 -8.882 0.016113281 -1.0 0.03 1.04 0.09 0.18 0.0 0.0 2.2063 0.0319 0.0 1.998 0 0 0 0 0
751542 100126 -8.882 0.018066406 -1.0 0.04 0.88 0.09 0.15 0.0 0.0 2.2882 0.0552 0.0 2.0472 0 0 0 0 0
751562 100130 -8.88 0.022460937 -1.0 0.02 1.07 0.03 0.18 0.0 0.0 1.9527 0.0478 0.0 2.0325 0 0 0 0 0
751583 100131 -8.887 0.009765625 -1.0 0.02 1.07 0.03 0.21 0.0 0.0 1.8681 0.0344 0.0 2.006 0 0 0 0 0
751603 100129 -8.885 0.019042968 -1.0 0.04 1.1 0.09 0.12 0.0 0.0 2.0372 0.0365 0.0 2.0119 0 0 0 0 0
751624 100130 -8.876 0.022460937 -1.0 0.02 1.13 0.09 0.15 0.0 0.0 1.9527 0.0325 0.0 2.0028 0 0 0 0 0
751644 100134 -8.882 0.011718751 -0.99 0.03 1.1 -0.06 0.24 0.0 0.0 1.6145 0.0002 0.0 1.9385 0 0 0 0 0
751665 100132 -8.893 0.022460937 -1.0 0.02 1.04 0.12 0.18 0.0 0.0 1.7836 -0.0116 0.0 1.9125 0 0 0 0 0
751685 100135 -8.889 0.022949218 -1.0 0.02 1.01 -0.12 0.12 0.0 0.0 1.5325 -0.0415 0.0 1.8487 0 0 0 0 0
751706 100126 -8.88 0.017578125 -1.0 0.04 1.01 0.0 0.15 0.0 0.0 2.2882 -0.0064 0.0 1.9214 0 0 0 0 0
751726 100134 -8.885 0.016113281 -1.0 0.02 0.95 -0.06 0.21 0.0 0.0 1.6145 -0.0311 0.0 1.8699 0 0 0 0 0
751747 100133 -8.87 0.016601562 -1.0 0.03 1.13 -0.03 0.18 0.0 0.0 1.699 -0.0439 0.0 1.8407 0 0 0 0 0
751767 100127 -8.882 0.020507812 -1.0 0.01 1.07 0.09 0.27 0.0 0.0 2.2063 -0.0139 0.0 1.901 0 0 0 0 0
751788 100128 -8.899 0.016601562 -1.0 0.03 1.01 0.03 0.3 0.0 0.0 2.1218 0.0038 0.0 1.9376 0 0 0 0 0
751808 100130 -8.872 0.01953125 -1.0 0.02 0.88 0.12 0.24 0.0 0.0 1.9527 0.0053 0.0 1.9402 0 0 0 0 0
751828 100128 -8.878 0.021484375 -1.0 0.03 1.1 0.06 0.15 0.0 0.0 2.1218 0.0195 0.0 1.9707 0 0 0 0 0
751849 100129 -8.867 0.020019531 -1.0 0.04 0.88 0.18 0.21 0.0 0.0 2.0372 0.025 0.0 1.9823 0 0 0 0 0
751869 100129 -8.895 0.011230469 -1.0 0.02 1.07 0.0 0.15 0.0 0.0 2.0372 0.0287 0.0 1.992 0 0 0 0 0
751890 100129 -8.88 0.019042968 -1.0 0.01 1.01 0.24 0.21 0.0 0.0 2.0372 0.0331 0.0 2.0001 0 0 0 0 0
751910 100127 -8.865 0.018554687 -1.0 0.04 1.07 0.12 0.15 0.0 0.0 2.2063 0.0492 0.0 2.0353 0 0 0 0 0
751931 100127 -8.882 0.016601562 -1.0 0.02 1.16 0.12 0.24 0.0 0.0 2.2063 0.0624 0.0 2.065 0 0 0 0 0
751951 100124 -8.882 0.015625 -1.0 0.01 1.19 0.0 0.21 0.0 0.0 2.4574 0.094 0.0 2.1319 0 0 0 0 0
751972 100130 -8.869 0.018066406 -1.0 0.03 1.01 0.06 0.34 0.0 0.0 1.9527 0.0792 0.0 2.1038 0 0 0 0 0
751992 100132 -8.885 0.012695313 -1.0 0.02 1.25 -0.03 0.18 0.0 0.0 1.7836 0.0541 0.0 2.0518 0 0 0 0 0
752013 100133 -8.884 0.021972656 -1.0 0.03 1.13 -0.12 0.21 0.0 0.0 1.699 0.026 0.0 1.9939 0 0 0 0 0
752033 100130 -8.891 0.01953125 -1.0 0.03 1.1 0.09 0.21 0.0 0.0 1.9527 0.0231 0.0 1.9875 0 0 0 0 0
752054 100128 -8.865 0.013183594 -1.0 0.03 1.13 0.0 0.27 0.0 0.0 2.1218 0.0335 0.0 2.0105 0 0 0 0 0
752074 100133 -8.874 0.019042968 -1.0 0.02 1.07 -0.09 0.21 0.0 0.0 1.699 0.0086 0.0 1.9591 0 0 0 0 0
752095 100126 -8.867 0.024902343 -1.0 0.02 1.16 0.0 0.27 0.0 0.0 2.2882 0.036 0.0 2.0143 0 0 0 0 0
752115 100127 -8.882 0.012207032 -1.0 0.01 1.16 0.03 0.27 0.0 0.0 2.2063 0.0517 0.0 2.0472 0 0 0 0 0
752136 100132 -8.85 0.016601562 -1.0 0.03 1.07 -0.03 0.21 0.0 0.0 1.7836 0.0304 0.0 2.0041 0 0 0 0 0
752156 100127 -8.882 0.020019531 -1.0 0.04 1.04 0.09 0.15 0.0 0.0 2.2063 0.0464 0.0 2.0386 0 0 0 0 0
752177 100126 -8.878 0.016113281 -1.0 0.03 1.16 0.09 0.27 0.0 0.0 2.2882 0.0666 0.0 2.0813 0 0 0 0 0
752197 100133 -8.867 0.020996093 -1.0 0.02 0.95 0.03 0.12 0.0 0.0 1.699 0.0366 0.0 2.0187 0 0 0 0 0
752218 100127 -8.859 0.020019531 -1.0 0.04 0.98 0.06 0.15 0.0 0.0 2.2063 0.0516 0.0 2.0509 0 0 0 0 0
752238 100131 -8.855 0.011718751 -1.0 0.03 1.1 0.03 0.3 0.0 0.0 1.8681 0.0365 0.0 2.0213 0 0 0 0 0
752259 100133 -8.863 0.016113281 -1.0 0.02 1.07 0.09 0.4 0.0 0.0 1.699 0.0112 0.0 1.9682 0 0 0 0 0
752279 100125 -8.876 0.017089843 -1.0 0.01 1.16 0.24 0.21 0.0 0.0 2.3728 0.0438 0.0 2.0361 0 0 0 0 0
752300 100130 -8.861 0.022460937 -1.0 0.03 1.1 -0.09 0.18 0.0 0.0 1.9527 0.0366 0.0 2.023 0 0 0 0 0
752320 100131 -8.867 0.016601562 -1.0 0.01 1.22 0.09 0.24 0.0 0.0 1.8681 0.0247 0.0 1.9978 0 0 0 0 0
752340 100132 -8.859 0.012695313 -1.0 0.04 1.04 0.15 0.21 0.0 0.0 1.7836 0.0073 0.0 1.9625 0 0 0 0 0
752361 100131 -8.848 0.01953125 -1.0 0.03 1.07 0.09 0.34 0.0 0.0 1.8681 -0.0 0.0 1.9468 0 0 0 0 0
752381 100128 -8.857 0.01953125 -1.0 0.01 1.04 0.12 0.21 0.0 0.0 2.1218 0.0146 0.0 1.9761 0 0 0 0 0
752402 100125 -8.865 0.011718751 -1.0 0.03 1.07 0.15 0.3 0.0 0.0 2.3728 0.0457 0.0 2.0428 0 0 0 0 0
752422 100127 -8.85 0.015625 -1.0 0.02 1.19 -0.03 0.21 0.0 0.0 2.2063 0.0584 0.0 2.0711 0 0 0 0 0
752443 100135 -8.854 0.018554687 -1.0 0.02 0.91 0.12 0.15 0.0 0.0 1.5325 0.0153 0.0 1.9822 0 0 0 0 0
752463 100129 -8.855 0.020996093 -1.0 0.04 1.01 -0.09 0.12 0.0 0.0 2.0372 0.02 0.0 1.9917 0 0 0 0 0
752484 100133 -8.854 0.016113281 -1.0 0.02 1.13 0.06 0.34 0.0 0.0 1.699 -0.0031 0.0 1.9431 0 0 0 0 0
752504 100130 -8.867 0.015136719 -1.0 0.03 1.07 0.09 0.27 0.0 0.0 1.9527 -0.0022 0.0 1.9447 0 0 0 0 0
752525 100129 -8.87 0.013671876 -1.0 0.03 1.22 0.0 0.27 0.0 0.0 2.0372 0.0047 0.0 1.9601 0 0 0 0 0
752545 100131 -8.857 0.020507812 -1.0 0.01 1.1 -0.24 0.3 0.0 0.0 1.8681 -0.0024 0.0 1.9448 0 0 0 0 0
752566 100130 -8.855 0.011718751 -1.0 0.03 1.04 0.09 0.03 0.0 0.0 1.9527 -0.0025 0.0 1.9461 0 0 0 0 0
752586 100130 -8.852 0.017578125 -1.0 0.03 1.16 -0.03 0.3 0.0 0.0 1.9527 -0.0016 0.0 1.9471 0 0 0 0 0
752607 100126 -8.854 0.009765625 -1.0 0.02 0.98 0.18 0.3 0.0 0.0 2.2882 0.0262 0.0 2.0042 0 0 0 0 0
752627 100127 -8.839 0.017578125 -1.0 0.02 0.43 -0.24 0.24 0.0 0.0 2.2063 0.0427 0.0 2.0385 0 0 0 0 0
752648 100133 -8.855 0.014160157 -1.0 0.04 1.16 -0.15 0.24 0.0 0.0 1.699 0.015 0.0 1.9826 0 0 0 0 0
752668 100130 -8.852 0.016601562 -1.0 0.01 1.07 -0.03 0.24 0.0 0.0 1.9527 0.0134 0.0 1.9779 0 0 0 0 0
752689 100131 -8.874 0.016113281 -1.0 0.03 1.13 -0.06 0.18 0.0 0.0 1.8681 0.0052 0.0 1.9598 0 0 0 0 0
752709 100131 -8.844 0.019042968 -1.0 0.03 1.1 0.18 0.24 0.0 0.0 1.8681 -0.0023 0.0 1.9446 0 0 0 0 0
752730 100129 -8.863 0.018066406 -1.0 0.02 1.01 0.12 0.21 0.0 0.0 2.0372 0.0054 0.0 1.96 0 0 0 0 0
752750 100127 -8.863 0.013183594 -1.0 0.01 1.1 0.09 0.21 0.0 0.0 2.2063 0.0256 0.0 2.0013 0 0 0 0 0
752771 100134 -8.842 0.014648438 -1.0 0.03 1.07 0.09 0.3 0.0 0.0 1.6145 -0.0058 0.0 1.9371 0 0 0 0 0
752791 100127 -8.863 0.015136719 -1.0 0.03 0.91 0.21 0.06 0.0 0.0 2.2063 0.0153 0.0 1.982 0 0 0 0 0
752812 100124 -8.857 0.020996093 -1.0 0.02 1.16 -0.06 0.15 0.0 0.0 2.4574 0.0541 0.0 2.0619 0 0 0 0 0
752832 100131 -8.854 0.019042968 -1.0 0.03 1.01 0.06 0.06 0.0 0.0 1.8681 0.0383 0.0 2.0306 0 0 0 0 0
752852 100135 -8.852 0.009765625 -1.0 0.02 1.01 0.12 0.34 0.0 0.0 1.5325 -0.0017 0.0 1.948 0 0 0 0 0
752873 100128 -8.854 0.020019531 -1.0 0.04 1.04 0.12 0.18 0.0 0.0 2.1218 0.012 0.0 1.9771 0 0 0 0 0
752893 100129 -8.842 0.021484375 -1.0 0.04 0.98 -0.21 0.34 0.0 0.0 2.0372 0.0174 0.0 1.9874 0 0 0 0 0
752914 100127 -8.844 0.020019531 -1.0 0.02 0.91 0.12 0.34 0.0 0.0 2.2063 0.0352 0.0 2.0244 0 0 0 0 0
752934 100128 -8.855 0.018554687 -1.0 0.02 1.04 0.03 0.18 0.0 0.0 2.1218 0.043 0.0 2.0414 0 0 0 0 0
752955 100125 -8.846 0.012695313 -1.0 0.04 1.1 -0.12 0.09 0.0 0.0 2.3728 0.069 0.0 2.0978 0 0 0 0 0
752975 100131 -8.852 0.016113281 -1.0 0.02 1.1 -0.03 0.21 0.0 0.0 1.8681 0.0511 0.0 2.0607 0 0 0 0 0
752996 100131 -8.85 0.024902343 -1.0 0.02 1.13 -0.06 0.15 0.0 0.0 1.8681 0.0362 0.0 2.0296 0 0 0 0 0
753016 100129 -8.861 0.013671876 -1.0 0.04 1.07 0.03 0.21 0.0 0.0 2.0372 0.0364 0.0 2.0316 0 0 0 0 0
753037 100132 -8.831 0.017578125 -1.0 0.03 1.01 0.06 0.3 0.0 0.0 1.7836 0.0159 0.0 1.9908 0 0 0 0 0
753057 100134 -8.835 0.015136719 -1.0 0.02 0.95 0.12 0.3 0.0 0.0 1.6145 -0.0133 0.0 1.9282 0 0 0 0 0
753078 100127 -8.855 0.013671876 -1.0 0.03 1.07 0.03 0.06 0.0 0.0 2.2063 0.0086 0.0 1.9745 0 0 0 0 0
753098 100132 -8.837 0.011230469 -1.0 0.02 1.16 0.03 0.21 0.0 0.0 1.7836 -0.0068 0.0 1.9427 0 0 0 0 0
753119 100134 -8.848 0.018066406 -1.0 0.04 1.13 -0.15 0.27 0.0 0.0 1.6145 -0.0333 0.0 1.8876 0 0 0 0 0
753139 100130 -8.839 0.018066406 -1.0 0.03 1.1 0.0 0.21 0.0 0.0 1.9527 -0.0285 0.0 1.8978 0 0 0 0 0
753160 100132 -8.829 0.015136719 -1.0 0.01 1.13 0.15 0.21 0.0 0.0 1.7836 -0.0367 0.0 1.8781 0 0 0 0 0
753180 100131 -8.839 0.016113281 -1.0 0.03 1.1 0.18 0.24 0.0 0.0 1.8681 -0.0374 0.0 1.8757 0 0 0 0 0
753201 100130 -8.844 0.012207032 -1.0 0.04 1.01 0.09 0.34 0.0 0.0 1.9527 -0.0318 0.0 1.8878 0 0 0 0 0
753221 100132 -8.835 0.015625 -1.0 0.01 1.13 -0.15 0.3 0.0 0.0 1.7836 -0.0392 0.0 1.8697 0 0 0 0 0
753242 100134 -8.842 0.014160157 -1.0 0.01 1.07 0.06 0.18 0.0 0.0 1.6145 -0.0599 0.0 1.8262 0 0 0 0 0
753262 100131 -8.842 0.020996093 -1.0 0.03 1.1 0.0 0.21 0.0 0.0 1.8681 -0.0562 0.0 1.832 0 0 0 0 0
753283 100126 -8.839 0.020019531 -1.0 0.02 1.19 -0.15 0.18 0.0 0.0 2.2882 -0.019 0.0 1.9072 0 0 0 0 0
753303 100129 -8.846 0.0234375 -1.0 0.04 1.01 0.21 0.3 0.0 0.0 2.0372 -0.0087 0.0 1.9286 0 0 0 0 0
753324 100129 -8.852 0.022460937 -1.0 0.02 1.07 0.03 0.27 0.0 0.0 2.0372 0.0003 0.0 1.9466 0 0 0 0 0
753344 100133 -8.842 0.015625 -1.0 0.04 1.01 0.06 0.27 0.0 0.0 1.699 -0.02 0.0 1.9052 0 0 0 0 0
753364 100132 -8.833 0.021972656 -1.0 0.03 1.1 0.09 0.3 0.0 0.0 1.7836 -0.0289 0.0 1.8844 0 0 0 0 0
753385 100128 -8.854 0.014160157 -1.0 0.02 1.01 0.09 0.09 0.0 0.0 2.1218 -0.0102 0.0 1.9235 0 0 0 0 0
753405 100130 -8.833 0.01953125 -1.0 0.04 1.07 0.06 0.12 0.0 0.0 1.9527 -0.0075 0.0 1.9282 0 0 0 0 0
753426 100134 -8.824 0.013183594 -1.0 0.03 1.13 0.15 0.18 0.0 0.0 1.6145 -0.0324 0.0 1.8755 0 0 0 0 0
753446 100133 -8.835 0.015136719 -1.0 0.01 1.19 -0.06 0.21 0.0 0.0 1.699 -0.0459 0.0 1.8454 0 0 0 0 0
753467 100129 -8.835 0.022460937 -1.0 0.03 1.1 0.06 0.24 0.0 0.0 2.0372 -0.03 0.0 1.8765 0 0 0 0 0
753487 100125 -8.844 0.016601562 -1.0 0.02 1.1 -0.06 0.21 0.0 0.0 2.3728 0.0096 0.0 1.9589 0 0 0 0 0
753508 100129 -8.837 0.017578125 -1.0 0.03 0.98 -0.06 0.15 0.0 0.0 2.0372 0.0163 0.0 1.9722 0 0 0 0 0
753528 100125 -8.825 0.021484375 -1.0 0.02 1.16 0.0 0.24 0.0 0.0 2.3728 0.0489 0.0 2.0396 0 0 0 0 0
753549 100131 -8.829 0.017089843 -1.0 0.04 1.04 0.03 0.18 0.0 0.0 1.8681 0.0348 0.0 2.0119 0 0 0 0 0
753569 100130 -8.824 0.025390625 -1.0 0.03 1.04 0.0 0.27 0.0 0.0 1.9527 0.0308 0.0 2.0027 0 0 0 0 0
753590 100131 -8.812 0.016113281 -1.0 0.02 1.19 0.21 0.37 0.0 0.0 1.8681 0.0199 0.0 1.9808 0 0 0 0 0
753610 100128 -8.84 0.018554687 -1.0 0.04 1.22 0.09 0.3 0.0 0.0 2.1218 0.0305 0.0 2.0048 0 0 0 0 0
753631 100128 -8.824 0.012695313 -1.0 0.03 1.1 -0.15 0.18 0.0 0.0 2.1218 0.0399 0.0 2.025 0 0 0 0 0
753651 100131 -8.833 0.021484375 -1.0 0.02 1.01 -0.15 0.21 0.0 0.0 1.8681 0.028 0.0 1.9996 0 0 0 0 0
753672 100128 -8.827 0.017089843 -1.0 0.04 0.91 0.03 0.18 0.0 0.0 2.1218 0.0371 0.0 2.0206 0 0 0 0 0
753692 100130 -8.835 0.018554687 -1.0 0.03 1.07 0.0 0.21 0.0 0.0 1.9527 0.0317 0.0 2.01 0 0 0 0 0
753713 100132 -8.827 0.019042968 -1.0 0.02 1.04 -0.18 0.24 0.0 0.0 1.7836 0.0134 0.0 1.9728 0 0 0 0 0
753733 100131 -8.814 0.01953125 -1.0 0.03 1.01 0.09 0.27 0.0 0.0 1.8681 0.0051 0.0 1.9555 0 0 0 0 0
753754 100130 -8.822 0.015136719 -0.99 0.04 0.91 0.21 0.34 0.0 0.0 1.9527 0.0038 0.0 1.9551 0 0 0 0 0
753774 100129 -8.818 0.024414062 -1.0 0.03 0.88 0.24 0.3 0.0 0.0 2.0372 0.011 0.0 1.969 0 0 0 0 0
753795 100131 -8.82 0.019042968 -1.0 0.03 1.04 0.21 0.21 0.0 0.0 1.8681 0.0031 0.0 1.9523 0 0 0 0 0
753815 100128 -8.824 0.013183594 -1.0 0.02 1.01 0.21 0.27 0.0 0.0 2.1218 0.0174 0.0 1.9807 0 0 0 0 0
753836 100127 -8.831 0.018066406 -1.0 0.03 1.1 0.09 0.15 0.0 0.0 2.2063 0.036 0.0 2.0189 0 0 0 0 0
753856 100133 -8.822 0.020507812 -1.0 0.04 0.91 0.18 0.24 0.0 0.0 1.699 0.0105 0.0 1.9661 0 0 0 0 0
753876 100132 -8.816 0.021972656 -1.0 0.01 1.01 -0.06 0.12 0.0 0.0 1.7836 -0.003 0.0 1.9357 0 0 0 0 0
753897 100131 -8.803 0.018554687 -1.0 0.01 1.1 0.15 0.27 0.0 0.0 1.8681 -0.0081 0.0 1.9244 0 0 0 0 0
753917 100129 -8.824 0.015136719 -1.0 0.03 1.07 0.12 0.18 0.0 0.0 2.0372 0.0002 0.0 1.9431 0 0 0 0 0
753938 100132 -8.816 0.018066406 -1.0 0.03 1.13 0.0 0.21 0.0 0.0 1.7836 -0.0133 0.0 1.9164 0 0 0 0 0
753958 100133 -8.833 0.022460937 -1.0 0.02 1.07 0.09 0.18 0.0 0.0 1.699 -0.0298 0.0 1.8798 0 0 0 0 0
753979 100128 -8.818 0.014648438 -1.0 0.04 0.88 0.15 0.27 0.0 0.0 2.1218 -0.0113 0.0 1.9196 0 0 0 0 0
753999 100131 -8.816 0.009765625 -1.0 0.02 1.07 0.09 0.37 0.0 0.0 1.8681 -0.0162 0.0 1.9108 0 0 0 0 0
754020 100126 -8.822 0.0234375 -1.0 0.02 0.91 0.09 0.21 0.0 0.0 2.2882 0.0139 0.0 1.9736 0 0 0 0 0
754040 100134 -8.824 0.018066406 -1.0 0.03 0.98 0.12 0.27 0.0 0.0 1.6145 -0.0147 0.0 1.9138 0 0 0 0 0
754061 100127 -8.81 0.009765625 -1.0 0.03 0.91 0.15 0.24 0.0 0.0 2.2063 0.0081 0.0 1.9625 0 0 0 0 0
754081 100137 -8.814 0.019042968 -1.0 0.02 0.95 0.06 0.21 0.0 0.0 1.3634 -0.0396 0.0 1.8624 0 0 0 0 0
754102 100129 -8.803 0.025390625 -1.0 0.02 1.1 0.06 0.12 0.0 0.0 2.0372 -0.0256 0.0 1.8908 0 0 0 0 0
754122 100131 -8.786 0.013183594 -1.0 0.01 1.07 0.18 0.21 0.0 0.0 1.8681 -0.0274 0.0 1.8865 0 0 0 0 0
754143 100132 -8.807 0.017089843 -1.0 0.03 0.98 0.0 0.34 0.0 0.0 1.7836 -0.0356 0.0 1.8687 0 0 0 0 0
754163 100129 -8.803 0.019042968 -1.0 0.04 0.98 0.12 0.21 0.0 0.0 2.0372 -0.0221 0.0 1.8962 0 0 0 0 0
754184 100128 -8.801 0.018066406 -1.0 0.03 1.04 0.06 0.21 0.0 0.0 2.1218 -0.0038 0.0 1.9335 0 0 0 0 0
754204 100129 -8.818 0.018554687 -1.01 0.01 1.01 0.0 0.27 0.0 0.0 2.0372 0.0057 0.0 1.9508 0 0 0 0 0
754225 100131 -8.794 0.017578125 -1.0 0.04 1.07 -0.03 0.21 0.0 0.0 1.8681 -0.0017 0.0 1.9371 0 0 0 0 0
754245 100130 -8.812 0.022460937 -1.0 0.02 1.19 -0.03 0.24 0.0 0.0 1.9527 -0.0003 0.0 1.9396 0 0 0 0 0
754266 100130 -8.799 0.019042968 -1.0 0.03 1.13 0.06 0.09 0.0 0.0 1.9527 -0.0001 0.0 1.9418 0 0 0 0 0
754286 100132 -8.825 0.015136719 -1.0 0.04 1.04 0.12 0.15 0.0 0.0 1.7836 -0.0132 0.0 1.9153 0 0 0 0 0
754307 100131 -8.803 0.015136719 -1.0 0.02 1.1 0.09 0.15 0.0 0.0 1.8681 -0.0168 0.0 1.9072 0 0 0 0 0
754327 100127 -8.801 0.012695313 -0.99 0.04 0.98 0.03 0.12 0.0 0.0 2.2063 0.0062 0.0 1.9569 0 0 0 0 0
754348 100133 -8.801 0.020507812 -1.0 0.02 0.95 0.03 0.18 0.0 0.0 1.699 -0.0136 0.0 1.9138 0 0 0 0 0
754368 100131 -8.786 0.012695313 -1.0 0.02 1.01 0.15 0.24 0.0 0.0 1.8681 -0.0173 0.0 1.9059 0 0 0 0 0
754388 100128 -8.814 0.012695313 -0.99 0.04 0.95 0.0 0.15 0.0 0.0 2.1218 -0.001 0.0 1.9417 0 0 0 0 0
754409 100127 -8.81 0.022949218 -1.0 0.02 0.95 0.03 0.21 0.0 0.0 2.2063 0.0205 0.0 1.986 0 0 0 0 0
754429 100128 -8.803 0.014648438 -1.0 0.03 1.1 0.12 0.21 0.0 0.0 2.1218 0.0308 0.0 2.0091 0 0 0 0 0
754450 100131 -8.809 0.012695313 -0.99 0.04 1.04 0.03 0.15 0.0 0.0 1.8681 0.0183 0.0 1.9861 0 0 0 0 0
754470 100129 -8.812 0.017578125 -1.0 0.01 0.95 0.21 0.24 0.0 0.0 2.0372 0.023 0.0 1.9951 0 0 0 0 0
754491 100130 -8.805 0.016113281 -1.0 0.03 1.16 0.15 0.15 0.0 0.0 1.9527 0.0198 0.0 1.9884 0 0 0 0 0
754511 100129 -8.81 0.017578125 -1.0 0.03 1.01 0.0 0.12 0.0 0.0 2.0372 0.0239 0.0 1.997 0 0 0 0 0
754532 100127 -8.799 0.0234375 -1.0 0.02 0.91 0.12 0.3 0.0 0.0 2.2063 0.0415 0.0 2.0325 0 0 0 0 0
754552 100128 -8.801 0.017578125 -1.0 0.03 1.04 -0.12 0.12 0.0 0.0 2.1218 0.0478 0.0 2.0483 0 0 0 0 0
754573 100130 -8.803 0.01953125 -1.0 0.02 1.1 0.06 0.09 0.0 0.0 1.9527 0.0401 0.0 2.0333 0 0 0 0 0
754593 100130 -8.803 0.019042968 -1.0 0.03 1.04 0.0 0.24 0.0 0.0 1.9527 0.0331 0.0 2.0206 0 0 0 0 0
754614 100128 -8.805 0.008789063 -1.0 0.02 1.25 -0.03 0.3 0.0 0.0 2.1218 0.042 0.0 2.0382 0 0 0 0 0
754634 100128 -8.801 0.022949218 -1.0 0.02 1.13 -0.03 0.18 0.0 0.0 2.1218 0.0495 0.0 2.0531 0 0 0 0 0
754655 100128 -8.79 0.022460937 -1.0 0.04 0.88 0.06 0.12 0.0 0.0 2.1218 0.0554 0.0 2.0656 0 0 0 0 0
754675 100129 -8.795 0.016113281 -1.0 0.02 1.01 0.12 0.34 0.0 0.0 2.0372 0.0535 0.0 2.062 0 0 0 0 0
754696 100129 -8.797 0.014648438 -1.0 0.03 0.98 -0.03 0.27 0.0 0.0 2.0372 0.0515 0.0 2.0589 0 0 0 0 0
754716 100132 -8.782 0.015625 -1.0 0.04 1.16 -0.06 0.24 0.0 0.0 1.7836 0.0287 0.0 2.0139 0 0 0 0 0
754737 100134 -8.786 0.013183594 -1.0 0.02 1.07 0.0 0.09 0.0 0.0 1.6145 -0.0025 0.0 1.9476 0 0 0 0 0
754757 100130 -8.779 0.0234375 -1.0 0.02 1.1 -0.03 0.21 0.0 0.0 1.9527 -0.0014 0.0 1.9484 0 0 0 0 0
754778 100129 -8.792 0.019042968 -1.0 0.04 1.04 -0.12 0.09 0.0 0.0 2.0372 0.0056 0.0 1.9633 0 0 0 0 0
754798 100128 -8.79 0.015625 -1.0 0.03 1.07 -0.06 0.21 0.0 0.0 2.1218 0.0184 0.0 1.9899 0 0 0 0 0
754819 100135 -8.784 0.024902343 -1.0 0.01 1.07 0.06 0.15 0.0 0.0 1.5325 -0.0175 0.0 1.9137 0 0 0 0 0
754839 100126 -8.784 0.013183594 -1.0 0.03 1.07 0.09 0.24 0.0 0.0 2.2882 0.0121 0.0 1.976 0 0 0 0 0
754860 100133 -8.795 0.011718751 -1.0 0.03 1.01 0.03 0.24 0.0 0.0 1.699 -0.0108 0.0 1.9299 0 0 0 0 0
754880 100130 -8.799 0.020019531 -1.0 0.04 1.01 0.21 0.15 0.0 0.0 1.9527 -0.0093 0.0 1.9335 0 0 0 0 0
754900 100129 -8.801 0.016601562 -1.0 0.03 0.91 0.12 0.15 0.0 0.0 2.0372 -0.0013 0.0 1.9507 0 0 0 0 0
754921 100130 -8.79 0.011230469 -1.0 0.02 1.16 -0.03 0.15 0.0 0.0 1.9527 -0.0013 0.0 1.951 0 0 0 0 0
754941 100130 -8.801 0.018066406 -1.0 0.03 1.07 -0.06 0.27 0.0 0.0 1.9527 -0.0011 0.0 1.9512 0 0 0 0 0
754962 100126 -8.799 0.020996093 -1.0 0.04 1.28 -0.12 0.18 0.0 0.0 2.2882 0.0259 0.0 2.0076 0 0 0 0 0
754982 100132 -8.79 0.012207032 -1.0 0.02 1.01 0.09 0.21 0.0 0.0 1.7836 0.0082 0.0 1.9707 0 0 0 0 0
755003 100135 -8.786 0.016601562 -1.0 0.02 1.1 0.09 0.34 0.0 0.0 1.5325 -0.0267 0.0 1.8975 0 0 0 0 0
755023 100132 -8.781 0.021484375 -1.0 0.03 1.04 0.12 0.27 0.0 0.0 1.7836 -0.0357 0.0 1.8779 0 0 0 0 0
755044 100129 -8.788 0.016601562 -1.0 0.03 1.22 0.03 0.09 0.0 0.0 2.0372 -0.0234 0.0 1.9038 0 0 0 0 0
755064 100132 -8.795 0.014648438 -1.0 0.02 1.07 0.09 0.12 0.0 0.0 1.7836 -0.033 0.0 1.8832 0 0 0 0 0
755085 100128 -8.767 0.011718751 -1.0 0.04 1.19 -0.15 0.21 0.0 0.0 2.1218 -0.0145 0.0 1.9225 0 0 0 0 0
755105 100135 -8.786 0.012695313 -1.0 0.04 0.95 0.06 0.3 0.0 0.0 1.5325 -0.0464 0.0 1.8569 0 0 0 0 0
755126 100132 -8.773 0.021484375 -1.0 0.03 0.98 0.15 0.21 0.0 0.0 1.7836 -0.0523 0.0 1.8437 0 0 0 0 0
755146 100136 -8.779 0.015625 -1.0 0.03 1.13 0.03 0.3 0.0 0.0 1.448 -0.0838 0.0 1.7764 0 0 0 0 0
755167 100131 -8.767 0.009277344 -1.0 0.03 1.04 0.06 0.21 0.0 0.0 1.8681 -0.0766 0.0 1.79 0 0 0 0 0
755187 100129 -8.771 0.021972656 -1.0 0.02 1.04 0.0 0.09 0.0 0.0 2.0372 -0.0562 0.0 1.8299 0 0 0 0 0
755208 100134 -8.741 0.021972656 -1.0 0.03 1.04 -0.21 0.09 0.0 0.0 1.6145 -0.0728 0.0 1.7926 0 0 0 0 0
755228 100128 -8.771 0.008789063 -1.0 0.03 0.82 0.12 0.15 0.0 0.0 2.1218 -0.0468 0.0 1.8462 0 0 0 0 0
755249 100130 -8.779 0.012695313 -1.0 0.03 1.01 0.09 0.12 0.0 0.0 1.9527 -0.039 0.0 1.8631 0 0 0 0 0
755269 100130 -8.786 0.017578125 -1.0 0.01 0.98 0.18 0.18 0.0 0.0 1.9527 -0.0316 0.0 1.8773 0 0 0 0 0
755290 100131 -8.781 0.014160157 -0.99 0.03 1.1 0.09 0.12 0.0 0.0 1.8681 -0.0333 0.0 1.8751 0 0 0 0 0
755310 100129 -8.781 0.011230469 -1.0 0.03 1.1 0.09 0.18 0.0 0.0 2.0372 -0.0206 0.0 1.9015 0 0 0 0 0
755331 100131 -8.777 0.019042968 -1.0 0.02 1.19 -0.03 0.18 0.0 0.0 1.8681 -0.0227 0.0 1.8955 0 0 0 0 0
755351 100127 -8.786 0.014160157 -1.0 0.01 1.13 0.06 0.15 0.0 0.0 2.2063 0.0025 0.0 1.9471 0 0 0 0 0
755372 100133 -8.773 0.02734375 -1.0 0.03 1.16 -0.12 0.24 0.0 0.0 1.699 -0.0169 0.0 1.9056 0 0 0 0 0
755392 100128 -8.779 0.017089843 -1.0 0.03 0.98 0.03 0.15 0.0 0.0 2.1218 0.0008 0.0 1.9414 0 0 0 0 0
755412 100129 -8.773 0.012695313 -1.0 0.03 1.1 -0.03 0.12 0.0 0.0 2.0372 0.0078 0.0 1.9575 0 0 0 0 0
755433 100130 -8.784 0.021972656 -1.0 0.03 0.98 0.12 0.18 0.0 0.0 1.9527 0.0081 0.0 1.9568 0 0 0 0 0
755453 100130 -8.771 0.0234375 -1.0 0.02 1.1 0.03 0.18 0.0 0.0 1.9527 0.0084 0.0 1.9563 0 0 0 0 0
755474 100131 -8.764 0.011718751 -1.0 0.03 1.13 0.0 0.24 0.0 0.0 1.8681 0.0015 0.0 1.9417 0 0 0 0 0
755494 100130 -8.769 0.018066406 -1.0 0.03 1.1 0.12 0.18 0.0 0.0 1.9527 0.0027 0.0 1.9436 0 0 0 0 0
755515 100131 -8.764 0.019042968 -1.0 0.03 1.07 0.03 0.24 0.0 0.0 1.8681 -0.0031 0.0 1.931 0 0 0 0 0
755535 100134 -8.76 0.015625 -1.0 0.02 0.95 0.12 0.27 0.0 0.0 1.6145 -0.0277 0.0 1.878 0 0 0 0 0
755556 100131 -8.76 0.017578125 -1.0 0.02 1.1 0.03 0.27 0.0 0.0 1.8681 -0.0285 0.0 1.8758 0 0 0 0 0
755576 100129 -8.771 0.014648438 -1.0 0.02 1.07 0.06 0.15 0.0 0.0 2.0372 -0.0151 0.0 1.9022 0 0 0 0 0
755597 100129 -8.775 0.01953125 -1.0 0.02 1.16 0.06 0.21 0.0 0.0 2.0372 -0.0043 0.0 1.9245 0 0 0 0 0
755617 100131 -8.764 0.02734375 -1.0 0.03 1.25 -0.09 0.18 0.0 0.0 1.8681 -0.0082 0.0 1.915 0 0 0 0 0
755638 100131 -8.758 0.015625 -1.0 0.01 0.91 0.03 0.15 0.0 0.0 1.8681 -0.0109 0.0 1.907 0 0 0 0 0
755658 100131 -8.775 0.014160157 -1.0 0.02 1.07 0.03 0.18 0.0 0.0 1.8681 -0.014 0.0 1.9002 0 0 0 0 0
755679 100131 -8.752 0.017089843 -1.0 0.03 1.1 0.03 0.27 0.0 0.0 1.8681 -0.0174 0.0 1.8946 0 0 0 0 0
755699 100127 -8.752 0.017578125 -1.0 0.03 1.04 0.0 0.18 0.0 0.0 2.2063 0.0073 0.0 1.9464 0 0 0 0 0
755720 100132 -8.775 0.015136719 -1.0 0.01 1.04 0.18 0.27 0.0 0.0 1.7836 -0.0055 0.0 1.9193 0 0 0 0 0
755740 100128 -8.76 0.022460937 -1.0 0.03 1.04 0.12 0.24 0.0 0.0 2.1218 0.0106 0.0 1.953 0 0 0 0 0
755761 100127 -8.775 0.010253907 -1.0 0.03 0.91 0.18 0.3 0.0 0.0 2.2063 0.0304 0.0 1.9957 0 0 0 0 0
755781 100128 -8.769 0.020507812 -1.0 0.02 1.16 0.06 0.27 0.0 0.0 2.1218 0.0406 0.0 2.0174 0 0 0 0 0
755802 100130 -8.779 0.019042968 -1.0 0.03 0.98 0.0 0.24 0.0 0.0 1.9527 0.0355 0.0 2.0074 0 0 0 0 0
755822 100133 -8.775 0.016601562 -1.0 0.04 1.07 -0.09 0.09 0.0 0.0 1.699 0.0104 0.0 1.9565 0 0 0 0 0
755843 100129 -8.79 0.020996093 -1.0 0.02 1.04 0.03 0.06 0.0 0.0 2.0372 0.0169 0.0 1.9702 0 0 0 0 0
755863 100131 -8.76 0.023925781 -1.0 0.02 0.98 0.03 0.21 0.0 0.0 1.8681 0.0098 0.0 1.9535 0 0 0 0 0
755884 100132 -8.766 0.010253907 -1.0 0.02 1.13 0.15 0.34 0.0 0.0 1.7836 -0.0035 0.0 1.9253 0 0 0 0 0
755904 100131 -8.764 0.019042968 -1.0 0.03 0.95 0.09 0.24 0.0 0.0 1.8681 -0.0081 0.0 1.9156 0 0 0 0 0
755924 100131 -8.771 0.0234375 -1.0 0.03 1.07 0.18 0.24 0.0 0.0 1.8681 -0.0118 0.0 1.9075 0 0 0 0 0
755945 100129 -8.762 0.017089843 -1.0 0.03 1.13 0.03 0.3 0.0 0.0 2.0372 -0.0012 0.0 1.929 0 0 0 0 0
755965 100128 -8.766 0.016113281 -1.01 0.01 0.98 0.09 0.21 0.0 0.0 2.1218 0.0153 0.0 1.9612 0 0 0 0 0
755986 100126 -8.764 0.012207032 -0.99 0.04 1.1 0.24 0.21 0.0 0.0 2.2882 0.0405 0.0 2.0163 0 0 0 0 0
756006 100130 -8.758 0.015625 -1.0 0.03 1.1 0.06 0.3 0.0 0.0 1.9527 0.0358 0.0 2.0064 0 0 0 0 0
756027 100130 -8.756 0.020996093 -1.0 0.02 1.04 -0.03 0.12 0.0 0.0 1.9527 0.0318 0.0 1.9982 0 0 0 0 0
756047 100128 -8.751 0.014648438 -1.0 0.03 0.98 0.09 0.34 0.0 0.0 2.1218 0.042 0.0 2.0195 0 0 0 0 0
756068 100130 -8.756 0.008789063 -1.0 0.03 0.95 0.18 0.18 0.0 0.0 1.9527 0.0359 0.0 2.0092 0 0 0 0 0
756088 100131 -8.767 0.021972656 -1.0 0.02 0.98 0.06 0.15 0.0 0.0 1.8681 0.0248 0.0 1.9863 0 0 0 0 0
756109 100133 -8.764 0.020996093 -1.0 0.03 0.79 -0.06 0.24 0.0 0.0 1.699 0.0023 0.0 1.9387 0 0 0 0 0
756129 100131 -8.752 0.014160157 -1.0 0.03 1.16 0.12 0.21 0.0 0.0 1.8681 -0.0033 0.0 1.927 0 0 0 0 0
756150 100126 -8.764 0.018066406 -1.0 0.03 1.04 0.0 0.37 0.0 0.0 2.2882 0.0254 0.0 1.9874 0 0 0 0 0
756170 100131 -8.76 0.024902343 -1.0 0.02 1.01 0.09 0.24 0.0 0.0 1.8681 0.0166 0.0 1.9679 0 0 0 0 0
756191 100129 -8.771 0.011718751 -1.0 0.02 1.13 0.03 0.15 0.0 0.0 2.0372 0.0224 0.0 1.9799 0 0 0 0 0
756211 100129 -8.754 0.008789063 -1.0 0.02 0.98 0.0 0.27 0.0 0.0 2.0372 0.0271 0.0 1.9899 0 0 0 0 0
756232 100133 -8.756 0.015625 -1.0 0.04 0.91 0.3 0.18 0.0 0.0 1.699 0.0033 0.0 1.9418 0 0 0 0 0
756252 100129 -8.745 0.023925781 -1.0 0.03 1.04 0.03 0.21 0.0 0.0 2.0372 0.0115 0.0 1.9578 0 0 0 0 0
756273 100129 -8.754 0.016601562 -1.0 0.01 1.07 0.03 0.37 0.0 0.0 2.0372 0.0175 0.0 1.9714 0 0 0 0 0
756293 100129 -8.754 0.022949218 -1.0 0.02 1.07 -0.15 0.09 0.0 0.0 2.0372 0.023 0.0 1.9827 0 0 0 0 0
756314 100127 -8.758 0.024414062 -1.0 0.02 1.16 -0.12 0.09 0.0 0.0 2.2063 0.0412 0.0 2.0206 0 0 0 0 0
756334 100128 -8.741 0.016601562 -1.0 0.04 0.91 0.21 0.21 0.0 0.0 2.1218 0.0492 0.0 2.0384 0 0 0 0 0
756355 100130 -8.741 0.013183594 -1.0 0.04 1.13 0.18 0.24 0.0 0.0 1.9527 0.0415 0.0 2.0251 0 0 0 0 0
756375 100128 -8.736 0.018554687 -1.0 0.01 0.98 0.06 0.27 0.0 0.0 2.1218 0.0496 0.0 2.0421 0 0 0 0 0
756396 100129 -8.749 0.020019531 -1.0 0.02 0.98 0.09 0.15 0.0 0.0 2.0372 0.0494 0.0 2.0423 0 0 0 0 0
756416 100127 -8.743 0.021972656 -1.0 0.03 1.1 0.18 0.12 0.0 0.0 2.2063 0.0627 0.0 2.0707 0 0 0 0 0
756436 100134 -8.721 0.017089843 -1.0 0.01 1.04 0.12 0.24 0.0 0.0 1.6145 0.0265 0.0 1.9957 0 0 0 0 0
756457 100130 -8.751 0.011230469 -1.0 0.03 0.98 0.09 0.21 0.0 0.0 1.9527 0.0228 0.0 1.989 0 0 0 0 0
756477 100128 -8.758 0.023925781 -1.0 0.03 1.07 0.06 0.24 0.0 0.0 2.1218 0.0338 0.0 2.0117 0 0 0 0 0
756498 100132 -8.734 0.017089843 -1.0 0.02 1.04 0.09 0.21 0.0 0.0 1.7836 0.0159 0.0 1.9742 0 0 0 0 0
756518 100133 -8.741 0.011718751 -0.99 0.04 1.04 0.09 0.34 0.0 0.0 1.699 -0.007 0.0 1.9285 0 0 0 0 0
756539 100128 -8.752 0.014160157 -1.0 0.01 1.04 0.03 0.24 0.0 0.0 2.1218 0.0092 0.0 1.9607 0 0 0 0 0
756559 100129 -8.745 0.018554687 -1.0 0.01 0.91 0.21 0.18 0.0 0.0 2.0372 0.0152 0.0 1.9737 0 0 0 0 0
756580 100134 -8.749 0.0234375 -1.0 0.03 1.01 -0.09 0.12 0.0 0.0 1.6145 -0.0138 0.0 1.9139 0 0 0 0 0
756600 100127 -8.737 0.025390625 -1.0 0.02 0.98 -0.18 0.24 0.0 0.0 2.2063 0.0098 0.0 1.9625 0 0 0 0 0
756621 100130 -8.736 0.011718751 -1.0 0.02 0.95 0.12 0.24 0.0 0.0 1.9527 0.0087 0.0 1.9611 0 0 0 0 0
756641 100134 -8.734 0.021972656 -1.0 0.02 1.25 0.12 0.24 0.0 0.0 1.6145 -0.0183 0.0 1.9033 0 0 0 0 0
756662 100133 -8.741 0.0234375 -1.0 0.03 1.01 -0.03 0.3 0.0 0.0 1.699 -0.0343 0.0 1.8687 0 0 0 0 0
756682 100133 -8.713 0.009765625 -1.0 0.02 0.85 0.18 0.24 0.0 0.0 1.699 -0.0479 0.0 1.8396 0 0 0 0 0
756703 100128 -8.743 0.018066406 -1.0 0.03 0.91 -0.06 0.21 0.0 0.0 2.1218 -0.0255 0.0 1.8858 0 0 0 0 0
756723 100128 -8.734 0.016601562 -1.0 0.02 1.19 -0.06 0.12 0.0 0.0 2.1218 -0.0063 0.0 1.9248 0 0 0 0 0
756744 100131 -8.739 0.011718751 -1.0 0.02 1.1 -0.06 0.21 0.0 0.0 1.8681 -0.0112 0.0 1.9152 0 0 0 0 0
756764 100131 -8.737 0.024414062 -1.0 0.03 1.25 0.03 0.24 0.0 0.0 1.8681 -0.0148 0.0 1.9071 0 0 0 0 0
756785 100127 -8.726 0.013183594 -1.0 0.02 1.04 0.21 0.21 0.0 0.0 2.2063 0.0092 0.0 1.9569 0 0 0 0 0
756805 100130 -8.723 0.016601562 -1.0 0.03 1.1 0.12 0.3 0.0 0.0 1.9527 0.0091 0.0 1.9563 0 0 0 0 0
756826 100129 -8.734 0.023925781 -1.0 0.02 1.16 -0.06 0.15 0.0 0.0 2.0372 0.0163 0.0 1.9701 0 0 0 0 0
756846 100131 -8.734 0.019042968 -1.0 0.03 1.07 0.0 0.15 0.0 0.0 1.8681 0.0081 0.0 1.9533 0 0 0 0 0
756867 100132 -8.734 0.009765625 -1.0 0.03 1.04 0.12 0.21 0.0 0.0 1.7836 -0.006 0.0 1.9251 0 0 0 0 0
756887 100130 -8.745 0.021484375 -1.0 0.02 0.98 0.0 0.15 0.0 0.0 1.9527 -0.0032 0.0 1.9296 0 0 0 0 0
756908 100130 -8.736 0.016601562 -1.0 0.03 1.07 -0.09 0.24 0.0 0.0 1.9527 -0.0014 0.0 1.9334 0 0 0 0 0
756928 100131 -8.741 0.013183594 -1.0 0.03 1.07 0.09 0.18 0.0 0.0 1.8681 -0.0071 0.0 1.9224 0 0 0 0 0
756948 100133 -8.737 0.019042968 -1.0 0.02 1.07 0.12 0.24 0.0 0.0 1.699 -0.0245 0.0 1.8849 0 0 0 0 0
756969 100128 -8.749 0.0234375 -1.0 0.02 1.04 0.03 0.24 0.0 0.0 2.1218 -0.0046 0.0 1.9241 0 0 0 0 0
756989 100128 -8.726 0.011230469 -1.0 0.02 0.98 -0.03 0.21 0.0 0.0 2.1218 0.0116 0.0 1.957 0 0 0 0 0
757010 100133 -8.724 0.016113281 -1.0 0.02 1.13 0.06 0.24 0.0 0.0 1.699 -0.0093 0.0 1.9141 0 0 0 0 0
757030 100128 -8.743 0.020019531 -1.0 0.03 1.22 0.09 0.15 0.0 0.0 2.1218 0.0076 0.0 1.9487 0 0 0 0 0
757051 100131 -8.723 0.019042968 -1.0 0.03 1.1 -0.03 0.15 0.0 0.0 1.8681 0.0018 0.0 1.9353 0 0 0 0 0
757071 100129 -8.723 0.013671876 -1.0 0.02 0.98 -0.03 0.21 0.0 0.0 2.0372 0.0106 0.0 1.9524 0 0 0 0 0
757092 100132 -8.717 0.020019531 -1.0 0.03 1.01 0.15 0.3 0.0 0.0 1.7836 -0.0028 0.0 1.9244 0 0 0 0 0
757112 100131 -8.736 0.014648438 -1.0 0.03 1.01 0.12 0.27 0.0 0.0 1.8681 -0.0075 0.0 1.9149 0 0 0 0 0
757133 100131 -8.719 0.020507812 -1.0 0.02 1.13 -0.06 0.18 0.0 0.0 1.8681 -0.0107 0.0 1.9069 0 0 0 0 0
757153 100131 -8.737 0.017578125 -1.0 0.03 1.04 0.06 0.3 0.0 0.0 1.8681 -0.0137 0.0 1.9002 0 0 0 0 0
757174 100125 -8.728 0.016113281 -1.0 0.04 0.88 0.18 0.18 0.0 0.0 2.3728 0.0236 0.0 1.979 0 0 0 0 0
757194 100127 -8.726 0.0234375 -1.0 0.02 1.1 -0.06 0.21 0.0 0.0 2.2063 0.0421 0.0 2.0175 0 0 0 0 0
757215 100129 -8.732 0.021972656 -1.0 0.02 1.13 -0.3 0.21 0.0 0.0 2.0372 0.0448 0.0 2.0217 0 0 0 0 0
757235 100126 -8.734 0.009765625 -1.0 0.02 1.07 -0.09 0.27 0.0 0.0 2.2882 0.0664 0.0 2.0672 0 0 0 0 0
757256 100127 -8.726 0.011718751 -1.0 0.04 1.04 -0.06 0.34 0.0 0.0 2.2063 0.0774 0.0 2.0919 0 0 0 0 0
757276 100133 -8.734 0.022460937 -1.0 0.03 0.91 0.03 0.3 0.0 0.0 1.699 0.0462 0.0 2.0277 0 0 0 0 0
757297 100126 -8.728 0.015136719 -1.0 0.03 1.1 0.06 0.21 0.0 0.0 2.2882 0.0668 0.0 2.0723 0 0 0 0 0
757317 100130 -8.724 0.009277344 -1.0 0.02 1.07 0.03 0.15 0.0 0.0 1.9527 0.0577 0.0 2.0536 0 0 0 0 0
757338 100131 -8.715 0.020019531 -1.0 0.04 0.91 0.3 0.21 0.0 0.0 1.8681 0.043 0.0 2.0238 0 0 0 0 0
757358 100134 -8.732 0.012207032 -1.0 0.03 0.88 0.12 0.3 0.0 0.0 1.6145 0.01 0.0 1.9562 0 0 0 0 0
757379 100132 -8.709 0.0234375 -1.0 0.03 1.19 0.06 0.21 0.0 0.0 1.7836 -0.0038 0.0 1.9275 0 0 0 0 0
757399 100127 -8.715 0.016601562 -1.0 0.03 1.13 0.03 0.21 0.0 0.0 2.2063 0.0183 0.0 1.9741 0 0 0 0 0
757420 100130 -8.713 0.011718751 -1.0 0.03 0.98 0.27 0.12 0.0 0.0 1.9527 0.0162 0.0 1.9709 0 0 0 0 0
757440 100127 -8.723 0.022460937 -1.01 0.01 1.04 -0.03 0.18 0.0 0.0 2.2063 0.0362 0.0 2.0106 0 0 0 0 0
757460 100130 -8.713 0.026367187 -1.0 0.02 1.07 0.09 0.18 0.0 0.0 1.9527 0.0317 0.0 2.0016 0 0 0 0 0
757481 100138 -8.717 0.01953125 -1.0 0.04 1.04 0.0 0.12 0.0 0.0 1.2789 -0.0263 0.0 1.8813 0 0 0 0 0
757501 100133 -8.715 0.017578125 -1.0 0.02 0.95 -0.06 0.18 0.0 0.0 1.699 -0.0408 0.0 1.8503 0 0 0 0 0
757522 100124 -8.708 0.016601562 -1.0 0.03 0.98 -0.06 0.12 0.0 0.0 2.4574 0.0084 0.0 1.951 0 0 0 0 0
757542 100130 -8.706 0.017578125 -1.0 0.01 0.91 0.03 0.24 0.0 0.0 1.9527 0.0093 0.0 1.9515 0 0 0 0 0
757563 100131 -8.736 0.018066406 -1.0 0.03 0.98 0.09 0.3 0.0 0.0 1.8681 0.0032 0.0 1.9377 0 0 0 0 0
757583 100132 -8.726 0.014160157 -1.0 0.02 1.01 0.0 0.27 0.0 0.0 1.7836 -0.0095 0.0 1.912 0 0 0 0 0
757604 100127 -8.709 0.01953125 -1.0 0.03 1.13 0.0 0.15 0.0 0.0 2.2063 0.0138 0.0 1.9611 0 0 0 0 0
757624 100133 -8.709 0.024902343 -1.0 0.03 1.13 0.03 0.18 0.0 0.0 1.699 -0.0067 0.0 1.9175 0 0 0 0 0
757645 100130 -8.713 0.009765625 -1.0 0.03 1.22 0.58 0.27 0.0 0.0 1.9527 -0.0043 0.0 1.9232 0 0 0 0 0
757665 100131 -8.693 0.018554687 -1.0 0.02 1.13 0.0 0.21 0.0 0.0 1.8681 -0.0089 0.0 1.9139 0 0 0 0 0
757686 100127 -8.713 0.020996093 -1.0 0.03 1.04 0.03 0.18 0.0 0.0 2.2063 0.0151 0.0 1.9627 0 0 0 0 0
757706 100134 -8.721 0.01953125 -1.0 0.03 1.22 0.03 0.12 0.0 0.0 1.6145 -0.0128 0.0 1.9047 0 0 0 0 0
757727 100129 -8.724 0.009277344 -1.0 0.02 1.01 0.0 0.15 0.0 0.0 2.0372 -0.0018 0.0 1.9266 0 0 0 0 0
757747 100132 -8.734 0.015625 -1.0 0.04 0.95 0.06 0.18 0.0 0.0 1.7836 -0.0132 0.0 1.9027 0 0 0 0 0
757768 100133 -8.724 0.020019531 -1.0 0.04 1.04 -0.03 0.12 0.0 0.0 1.699 -0.03 0.0 1.8683 0 0 0 0 0
757788 100127 -8.721 0.0234375 -1.0 0.02 1.04 0.15 0.3 0.0 0.0 2.2063 -0.0023 0.0 1.9243 0 0 0 0 0
757809 100131 -8.719 0.017089843 -1.0 0.03 0.98 -0.06 0.27 0.0 0.0 1.8681 -0.0072 0.0 1.9148 0 0 0 0 0
757829 100128 -8.713 0.012695313 -1.0 0.03 1.16 0.09 0.15 0.0 0.0 2.1218 0.0089 0.0 1.9493 0 0 0 0 0
757850 100133 -8.719 0.021972656 -1.0 0.02 1.13 0.09 0.15 0.0 0.0 1.699 -0.0108 0.0 1.9076 0 0 0 0 0
757870 100126 -8.702 0.027832031 -1.0 0.02 0.98 0.06 0.12 0.0 0.0 2.2882 0.0203 0.0 1.9711 0 0 0 0 0
757891 100133 -8.717 0.011718751 -1.0 0.03 1.07 0.03 0.24 0.0 0.0 1.699 -0.0023 0.0 1.9259 0 0 0 0 0
757911 100129 -8.709 0.018066406 -1.0 0.03 1.01 -0.06 0.21 0.0 0.0 2.0372 0.0071 0.0 1.9445 0 0 0 0 0
757932 100127 -8.717 0.0234375 -1.0 0.03 1.13 -0.06 0.18 0.0 0.0 2.2063 0.0277 0.0 1.9885 0 0 0 0 0
757952 100128 -8.7 0.016113281 -1.0 0.02 1.04 0.03 0.18 0.0 0.0 2.1218 0.0381 0.0 2.0113 0 0 0 0 0
757972 100133 -8.702 0.014648438 -1.0 0.01 0.91 0.18 0.12 0.0 0.0 1.699 0.0135 0.0 1.9599 0 0 0 0 0
757993 100130 -8.702 0.013183594 -0.99 0.04 1.25 -0.06 0.18 0.0 0.0 1.9527 0.0119 0.0 1.9589 0 0 0 0 0
758013 100127 -8.711 0.016113281 -1.0 0.03 1.13 0.06 0.21 0.0 0.0 2.2063 0.0314 0.0 2.0006 0 0 0 0 0
758034 100126 -8.732 0.022949218 -1.0 0.02 0.98 0.03 0.21 0.0 0.0 2.2882 0.0552 0.0 2.0494 0 0 0 0 0
758054 100130 -8.694 0.017089843 -1.0 0.03 1.04 0.12 0.27 0.0 0.0 1.9527 0.0474 0.0 2.0343 0 0 0 0 0
758075 100130 -8.709 0.016601562 -1.0 0.02 0.95 0.06 0.24 0.0 0.0 1.9527 0.0405 0.0 2.0216 0 0 0 0 0
758095 100127 -8.708 0.018554687 -1.0 0.04 1.13 0.06 0.34 0.0 0.0 2.2063 0.0556 0.0 2.0533 0 0 0 0 0
758116 100131 -8.7 0.018066406 -1.0 0.02 1.04 0.03 0.18 0.0 0.0 1.8681 0.0408 0.0 2.0235 0 0 0 0 0
758136 100126 -8.715 0.013183594 -1.0 0.03 1.07 -0.06 0.27 0.0 0.0 2.2882 0.0622 0.0 2.0686 0 0 0 0 0
758157 100130 -8.7 0.018554687 -1.0 0.03 1.01 0.0 0.27 0.0 0.0 1.9527 0.0529 0.0 2.0505 0 0 0 0 0
758177 100129 -8.715 0.021484375 -1.0 0.04 1.04 0.0 0.21 0.0 0.0 2.0372 0.0516 0.0 2.0494 0 0 0 0 0
758198 100133 -8.698 0.009277344 -1.0 0.02 1.04 0.09 0.18 0.0 0.0 1.699 0.0231 0.0 1.9918 0 0 0 0 0
758218 100128 -8.704 0.020507812 -1.0 0.02 1.01 0.27 0.21 0.0 0.0 2.1218 0.0334 0.0 2.014 0 0 0 0 0
758239 100125 -8.706 0.020019531 -1.0 0.04 1.19 0.0 0.15 0.0 0.0 2.3728 0.0617 0.0 2.0748 0 0 0 0 0
758259 100129 -8.681 0.015136719 -1.0 0.04 1.16 0.0 0.21 0.0 0.0 2.0372 0.0581 0.0 2.0697 0 0 0 0 0
758280 100125 -8.7 0.011230469 -1.0 0.01 0.98 0.12 0.24 0.0 0.0 2.3728 0.0828 0.0 2.1217 0 0 0 0 0
758300 100130 -8.689 0.016601562 -1.0 0.03 0.95 0.03 0.15 0.0 0.0 1.9527 0.0686 0.0 2.095 0 0 0 0 0
758321 100130 -8.693 0.013183594 -1.0 0.02 0.95 0.18 0.18 0.0 0.0 1.9527 0.0576 0.0 2.0727 0 0 0 0 0
758341 100135 -8.693 0.012207032 -0.99 0.04 0.95 0.12 0.27 0.0 0.0 1.5325 0.0134 0.0 1.9834 0 0 0 0 0
758362 100128 -8.711 0.024902343 -1.0 0.03 1.1 0.27 0.12 0.0 0.0 2.1218 0.0245 0.0 2.0069 0 0 0 0 0
758382 100124 -8.704 0.011230469 -1.0 0.02 1.07 0.06 0.27 0.0 0.0 2.4574 0.0598 0.0 2.0827 0 0 0 0 0
758403 100125 -8.691 0.018066406 -1.0 0.02 1.13 0.09 0.18 0.0 0.0 2.3728 0.0832 0.0 2.1325 0 0 0 0 0
758423 100128 -8.713 0.018554687 -1.0 0.01 1.13 -0.09 0.21 0.0 0.0 2.1218 0.0827 0.0 2.1324 0 0 0 0 0
758444 100127 -8.696 0.017089843 -1.0 0.04 1.13 -0.06 0.27 0.0 0.0 2.2063 0.0887 0.0 2.1465 0 0 0 0 0
758464 100127 -8.687 0.023925781 -1.0 0.02 1.22 0.03 0.34 0.0 0.0 2.2063 0.0935 0.0 2.1583 0 0 0 0 0
758484 100125 -8.698 0.014648438 -1.0 0.04 0.98 0.06 0.15 0.0 0.0 2.3728 0.1099 0.0 2.1961 0 0 0 0 0
758505 100134 -8.674 0.014648438 -1.0 0.03 1.01 0.03 0.15 0.0 0.0 1.6145 0.064 0.0 2.101 0 0 0 0 0
758525 100130 -8.694 0.016601562 -1.0 0.03 1.07 0.12 0.3 0.0 0.0 1.9527 0.0526 0.0 2.0775 0 0 0 0 0
758546 100128 -8.696 0.013671876 -1.0 0.04 1.16 -0.09 0.21 0.0 0.0 2.1218 0.0559 0.0 2.086 0 0 0 0 0
758566 100127 -8.681 0.019042968 -1.0 0.03 1.07 0.12 0.21 0.0 0.0 2.2063 0.0658 0.0 2.1072 0 0 0 0 0
758587 100128 -8.683 0.010742188 -1.0 0.04 1.04 0.18 0.34 0.0 0.0 2.1218 0.0667 0.0 2.1111 0 0 0 0 0
758607 100130 -8.683 0.018066406 -1.0 0.03 0.98 -0.06 0.27 0.0 0.0 1.9527 0.0541 0.0 2.0859 0 0 0 0 0
758628 100127 -8.68 0.014648438 -1.0 0.02 1.1 -0.03 0.21 0.0 0.0 2.2063 0.0637 0.0 2.1072 0 0 0 0 0
758648 100133 -8.696 0.024414062 -1.0 0.03 1.19 0.0 0.21 0.0 0.0 1.699 0.031 0.0 2.0402 0 0 0 0 0
758669 100125 -8.702 0.014160157 -1.0 0.03 1.04 -0.09 0.18 0.0 0.0 2.3728 0.0577 0.0 2.0965 0 0 0 0 0
758689 100127 -8.683 0.015136719 -1.0 0.02 0.98 0.15 0.24 0.0 0.0 2.2063 0.0668 0.0 2.116 0 0 0 0 0
758710 100129 -8.7 0.017089843 -1.0 0.03 1.1 0.15 0.24 0.0 0.0 2.0372 0.0603 0.0 2.1042 0 0 0 0 0
758730 100127 -8.687 0.025390625 -1.0 0.03 1.25 0.03 0.21 0.0 0.0 2.2063 0.0694 0.0 2.1225 0 0 0 0 0
758751 100132 -8.7 0.012695313 -1.0 0.01 1.04 0.06 0.21 0.0 0.0 1.7836 0.0427 0.0 2.0673 0 0 0 0 0
758771 100128 -8.687 0.014160157 -1.0 0.01 1.01 0.24 0.18 0.0 0.0 2.1218 0.0472 0.0 2.0772 0 0 0 0 0
758792 100127 -8.687 0.014160157 -1.0 0.04 1.13 0.09 0.21 0.0 0.0 2.2063 0.0573 0.0 2.0998 0 0 0 0 0
758812 100129 -8.687 0.016601562 -1.0 0.03 0.98 0.15 0.21 0.0 0.0 2.0372 0.0522 0.0 2.0905 0 0 0 0 0
758833 100127 -8.67 0.021484375 -1.0 0.02 0.88 0.09 0.3 0.0 0.0 2.2063 0.0622 0.0 2.111 0 0 0 0 0
758853 100130 -8.676 0.011718751 -1.0 0.03 1.04 0.0 0.21 0.0 0.0 1.9527 0.0493 0.0 2.0857 0 0 0 0 0
758874 100130 -8.681 0.0078125 -1.0 0.03 1.16 -0.06 0.12 0.0 0.0 1.9527 0.038 0.0 2.0645 0 0 0 0 0
758894 100127 -8.668 0.017578125 -1.0 0.04 0.95 -0.03 0.06 0.0 0.0 2.2063 0.049 0.0 2.089 0 0 0 0 0
758915 100132 -8.683 0.014648438 -1.0 0.03 1.19 0.0 0.24 0.0 0.0 1.7836 0.0243 0.0 2.0389 0 0 0 0 0
758935 100130 -8.674 0.016601562 -1.0 0.01 1.01 0.06 0.24 0.0 0.0 1.9527 0.0172 0.0 2.025 0 0 0 0 0
758956 100135 -8.68 0.021484375 -1.0 0.02 0.88 0.15 0.24 0.0 0.0 1.5325 -0.0229 0.0 1.9429 0 0 0 0 0
758976 100127 -8.681 0.016113281 -1.0 0.04 1.01 0.15 0.3 0.0 0.0 2.2063 -0.0018 0.0 1.9865 0 0 0 0 0
758996 100131 -8.668 0.018554687 -1.0 0.01 0.98 0.09 0.21 0.0 0.0 1.8681 -0.0106 0.0 1.9667 0 0 0 0 0
759017 100131 -8.687 0.018066406 -1.0 0.03 1.01 0.03 0.24 0.0 0.0 1.8681 -0.0183 0.0 1.95 0 0 0 0 0
759037 100130 -8.683 0.018066406 -1.0 0.04 0.98 0.09 0.34 0.0 0.0 1.9527 -0.0186 0.0 1.95 0 0 0 0 0
759058 100130 -8.676 0.013671876 -1.0 0.03 1.01 0.18 0.24 0.0 0.0 1.9527 -0.0177 0.0 1.9501 0 0 0 0 0
759078 100123 -8.698 0.016601562 -1.0 0.01 1.04 0.0 0.27 0.0 0.0 2.5419 0.0297 0.0 2.0488 0 0 0 0 0
759099 100127 -8.683 0.013671876 -1.0 0.03 1.25 -0.12 0.15 0.0 0.0 2.2063 0.0423 0.0 2.0758 0 0 0 0 0
759119 100127 -8.676 0.015625 -1.0 0.02 0.98 -0.03 0.34 0.0 0.0 2.2063 0.0524 0.0 2.0984 0 0 0 0 0
759140 100132 -8.67 0.020507812 -1.0 0.03 1.07 0.15 0.24 0.0 0.0 1.7836 0.0272 0.0 2.0468 0 0 0 0 0
759160 100131 -8.681 0.01953125 -1.0 0.02 0.91 0.09 0.21 0.0 0.0 1.8681 0.0125 0.0 2.0175 0 0 0 0 0
759181 100132 -8.67 0.015625 -1.0 0.01 1.07 -0.15 0.18 0.0 0.0 1.7836 -0.0059 0.0 1.9786 0 0 0 0 0
759201 100130 -8.694 0.020019531 -1.0 0.04 1.16 -0.12 0.21 0.0 0.0 1.9527 -0.0086 0.0 1.9741 0 0 0 0 0
759222 100129 -8.676 0.016601562 -1.0 0.03 0.91 0.03 0.27 0.0 0.0 2.0372 -0.0042 0.0 1.9845 0 0 0 0 0
759242 100133 -8.661 0.01953125 -1.0 0.02 0.88 0.15 0.27 0.0 0.0 1.699 -0.0266 0.0 1.9367 0 0 0 0 0
759263 100130 -8.67 0.023925781 -1.0 0.01 1.07 0.06 0.27 0.0 0.0 1.9527 -0.0246 0.0 1.9388 0 0 0 0 0
759283 100131 -8.68 0.01953125 -1.0 0.04 1.19 0.06 0.24 0.0 0.0 1.8681 -0.0302 0.0 1.9265 0 0 0 0 0
759304 100127 -8.659 0.017089843 -1.0 0.02 1.04 0.03 0.15 0.0 0.0 2.2063 -0.0073 0.0 1.9727 0 0 0 0 0
759324 100132 -8.665 0.013671876 -1.0 0.01 1.07 0.09 0.21 0.0 0.0 1.7836 -0.0216 0.0 1.9409 0 0 0 0 0
759345 100135 -8.67 0.013183594 -0.99 0.04 1.13 -0.09 0.18 0.0 0.0 1.5325 -0.0553 0.0 1.8721 0 0 0 0 0
759365 100127 -8.693 0.026855468 -1.0 0.02 1.07 0.09 0.18 0.0 0.0 2.2063 -0.0278 0.0 1.9269 0 0 0 0 0
759386 100131 -8.68 0.0078125 -1.0 0.02 1.13 0.12 0.27 0.0 0.0 1.8681 -0.0323 0.0 1.9165 0 0 0 0 0
759406 100130 -8.67 0.0 -1.4 0.01 1.16 1.31 0.3 0.0 0.0 1.9527 0.0496 0.0 1.9219 0 0 0 0 0
759427 100146 -8.655 1.984375 -1.65 -1.23 -28.87 92.13 -11.65 0.0 0.0 0.6051 0.3273 0.0 1.7025 0 0 0 0 0
759447 100124 -8.648 0.659179687 -2.27 0.44 31.43 9.63 2.1 0.0 0.0 2.4574 0.6628 0.0 1.8354 0 0 0 0 0
759468 100123 -8.668 0.534179687 -3.02 0.41 -54.82 -47.99 -18.32 0.0 0.0 2.5419 1.1514 0.0 1.9675 0 0 0 0 0
759488 100129 -8.655 -0.014160157 -4.6 0.3 1.89 5.64 -16.25 0.0 0.0 2.0372 1.8661 0.0 2.0022 0 0 0 0 0
759508 100130 -8.666 0.018066406 -4.09 1.01 -7.01 28.11 15.06 0.0 0.0 1.9527 2.4919 0.0 2.0313 0 0 0 0 0
759529 100115 -8.668 -1.169921875 -4.2 -0.8 -6.4 13.11 8.9 0.0 0.0 3.2157 3.2945 0.0 2.2818 0 0 0 0 0
759549 100129 -8.659 -0.105957031 -4.34 0.19 0.43 18.17 -0.95 0.0 0.0 2.0372 3.9316 0.0 2.3068 0 0 0 0 0
759570 100119 -8.648 0.252441406 -4.25 0.04 -2.99 -28.99 5.95 0.0 0.0 2.8801 4.6478 0.0 2.4853 0 0 0 0 0
759590 100122 -8.648 -1.1484375 -4.69 0.57 -4.7 26.55 8.9 0.0 0.0 2.6265 5.4174 0.0 2.6019 0 0 0 0 0
759611 100117 -8.661 -0.551757812 -4.68 -0.0 -0.95 26.34 1.95 0.0 0.0 3.0466 6.2176 0.0 2.7901 0 0 0 0 0
759631 100117 -8.657 -0.188476562 -4.48 0.05 -0.4 18.45 -2.26 0.0 0.0 3.0466 6.9221 0.0 2.9574 0 0 0 0 0
759652 100112 -8.653 -0.053710937 -4.53 -0.2 3.81 -6.43 -5.58 0.0 0.0 3.4694 7.6905 0.0 3.1884 0 0 0 0 0
759672 100110 -8.663 0.372558593 -3.79 0.33 13.17 -11.1 -4.7 0.0 0.0 3.6385 8.2802 0.0 3.4175 0 0 0 0 0
759693 100115 -8.657 0.058105468 -4.46 -0.33 -2.71 -18.48 7.23 0.0 0.0 3.2157 8.9804 0.0 3.5576 0 0 0 0 0
759713 100105 -8.652 -0.153808593 -4.49 -0.04 0.06 -23.38 -1.86 0.0 0.0 4.0586 9.7066 0.0 3.8211 0 0 0 0 0
759734 100100 -8.657 -0.178222656 -4.6 -0.08 0.82 -28.51 -0.98 0.0 0.0 4.4787 10.5019 0.0 4.135 0 0 0 0 0
759754 100102 -8.665 -0.049316406 -4.76 -0.03 -0.7 -43.23 -4.45 0.0 0.0 4.3123 11.2537 0.0 4.3747 0 0 0 0 0
759775 100095 -8.659 0.0078125 -4.5 -0.25 -1.34 -63.17 -4.7 0.0 0.0 4.9015 12.0177 0.0 4.6992 0 0 0 0 0
759795 100095 -8.638 -0.172851562 -4.65 -0.09 0.64 -65.18 -8.54 0.0 0.0 4.9015 12.7517 0.0 4.9734 0 0 0 0 0
759816 100094 -8.655 -0.180664062 -4.79 -0.04 2.23 -64.15 -12.16 0.0 0.0 4.9861 13.5336 0.0 5.2433 0 0 0 0 0
759836 100087 -8.661 -0.1953125 -4.76 -0.09 2.84 -63.08 -16.98 0.0 0.0 5.5753 14.2995 0.0 5.5695 0 0 0 0 0
759857 100090 -8.659 -0.219726562 -4.76 -0.05 3.32 -61.49 -21.8 0.0 0.0 5.3216 15.0546 0.0 5.8283 0 0 0 0 0
759877 100083 -8.68 -0.202636718 -4.84 -0.06 4.12 -61.37 -26.43 0.0 0.0 5.9109 15.8155 0.0 6.1432 0 0 0 0 0
759898 100077 -8.661 -0.174316406 -4.81 -0.07 4.45 -60.37 -29.79 0.0 0.0 6.4182 16.6239 0.0 6.5214 0 0 0 0 0
759918 100072 -8.653 -0.155761718 -4.8 -0.07 5.43 -59.45 -32.8 0.0 0.0 6.8383 17.396 0.0 6.9069 0 0 0 0 0
759939 100070 -8.657 -0.157714843 -4.79 -0.06 6.01 -58.72 -35.98 0.0 0.0 7.0074 18.1852 0.0 7.289 0 0 0 0 0
759959 100066 -8.65 -0.164550781 -4.85 -0.06 5.37 -58.69 -38.96 0.0 0.0 7.3456 18.9464 0.0 7.6622 0 0 0 0 0
759980 100059 -8.653 -0.145996093 -4.88 -0.06 4.66 -57.9 -40.79 0.0 0.0 7.9349 19.769 0.0 8.1057 0 0 0 0 0
760000 100054 -8.652 -0.202636718 -5.07 -0.05 4.45 -56.95 -42.41 0.0 0.0 8.355 20.5887 0.0 8.5428 0 0 0 0 0
760020 100046 -8.674 -0.181152343 -4.88 -0.07 3.84 -54.82 -43.29 0.0 0.0 9.0314 21.3895 0.0 9.0363 0 0 0 0 0
760041 100041 -8.648 -0.184082031 -4.9 -0.08 3.72 -52.93 -43.75 0.0 0.0 9.4516 22.2264 0.0 9.555 0 0 0 0 0
760061 100036 -8.637 -0.205078125 -4.98 -0.08 3.63 -51.37 -43.72 0.0 0.0 9.8743 23.0336 0.0 10.053 0 0 0 0 0
760082 100018 -8.659 -0.191894531 -4.98 -0.07 3.23 -49.39 -42.1 0.0 0.0 11.391 23.9614 0.0 10.7606 0 0 0 0 0
760102 100022 -8.642 -0.173828125 -4.98 -0.06 3.78 -48.81 -40.49 0.0 0.0 11.0528 24.7668 0.0 11.2887 0 0 0 0 0
760123 100015 -8.642 -0.190429687 -4.97 -0.07 4.42 -47.1 -38.69 0.0 0.0 11.6447 25.615 0.0 11.8684 0 0 0 0 0
760143 100001 -8.661 -0.205078125 -4.92 -0.04 5.15 -44.97 -36.31 0.0 0.0 12.8232 26.4603 0.0 12.5405 0 0 0 0 0
760164 99999 -8.65 -0.183105468 -4.98 -0.04 4.76 -42.84 -33.14 0.0 0.0 12.9923 27.3165 0.0 13.1718 0 0 0 0 0
760184 99990 -8.661 -0.174316406 -4.94 -0.03 5.03 -40.37 -29.63 0.0 0.0 13.7506 28.1371 0.0 13.8149 0 0 0 0 0
760205 99972 -8.657 -0.213378906 -5.04 -0.04 5.27 -39.42 -25.49 0.0 0.0 15.27 29.0869 0.0 14.6493 0 0 0 0 0
760225 99967 -8.642 -0.185058593 -5.06 -0.06 6.34 -34.88 -20.27 0.0 0.0 15.6901 29.9682 0.0 15.4052 0 0 0 0 0
760246 99960 -8.642 -0.170898437 -5.0 -0.04 6.95 -34.24 -13.96 0.0 0.0 16.282 30.8627 0.0 16.1813 0 0 0 0 0
760266 99957 -8.653 -0.169433593 -5.04 -0.08 7.96 -33.93 -8.35 0.0 0.0 16.5356 31.6841 0.0 16.8578 0 0 0 0 0
760287 99957 -8.653 -0.204101562 -4.98 -0.07 8.57 -31.59 -3.45 0.0 0.0 16.5356 32.4794 0.0 17.4693 0 0 0 0 0
760307 99949 -8.652 -0.204589843 -5.02 -0.08 10.0 -30.58 1.28 0.0 0.0 17.2094 33.2491 0.0 18.0754 0 0 0 0 0
760328 99946 -8.637 -0.199707031 -5.03 -0.07 10.58 -29.97 6.07 0.0 0.0 17.4631 34.0311 0.0 18.6711 0 0 0 0 0
760348 99940 -8.659 -0.166015625 -4.98 -0.09 11.62 -29.48 10.67 0.0 0.0 17.9678 34.7556 0.0 19.2341 0 0 0 0 0
760369 99937 -8.657 -0.175292968 -4.93 -0.04 12.5 -29.82 13.93 0.0 0.0 18.2214 35.4853 0.0 19.7944 0 0 0 0 0
760389 99932 -8.646 -0.147949218 -4.84 -0.08 13.75 -30.34 16.86 0.0 0.0 18.6442 36.1471 0.0 20.3117 0 0 0 0 0
760410 99933 -8.648 -0.13671875 -4.93 -0.08 15.0 -30.95 20.06 0.0 0.0 18.5597 36.8175 0.0 20.7775 0 0 0 0 0
760430 99927 -8.644 -0.160644531 -4.87 -0.13 15.76 -30.88 22.32 0.0 0.0 19.0643 37.441 0.0 21.2273 0 0 0 0 0
760451 99906 -8.65 -0.126464843 -4.84 -0.03 15.03 -29.48 23.72 0.0 0.0 20.8373 38.2015 0.0 21.9483 0 0 0 0 0
760471 99903 -8.657 -0.111816406 -4.86 -0.09 15.24 -29.21 24.91 0.0 0.0 21.091 38.8914 0.0 22.5689 0 0 0 0 0
760492 99898 -8.653 -0.128417968 -4.79 -0.05 14.73 -29.18 25.64 0.0 0.0 21.5138 39.5888 0.0 23.209 0 0 0 0 0
760512 99900 -8.642 -0.118164062 -4.85 -0.07 14.05 -30.64 25.21 0.0 0.0 21.3447 40.1952 0.0 23.6889 0 0 0 0 0
760532 99895 -8.661 -0.09375 -4.86 -0.07 12.16 -30.76 23.72 0.0 0.0 21.7648 40.7999 0.0 24.1709 0 0 0 0 0
760553 99884 -8.655 -0.109375 -4.64 -0.05 9.39 -31.86 21.43 0.0 0.0 22.6949 41.4312 0.0 24.7806 0 0 0 0 0
760573 99880 -8.633 -0.077148437 -4.7 -0.06 6.19 -31.92 18.69 0.0 0.0 23.0305 42.0173 0.0 25.3164 0 0 0 0 0
760594 99876 -8.635 -0.085449218 -4.66 -0.07 3.14 -32.8 14.76 0.0 0.0 23.3687 42.6148 0.0 25.8728 0 0 0 0 0
760614 99862 -8.655 -0.0703125 -4.62 -0.06 -0.27 -33.78 10.3 0.0 0.0 24.5524 43.2194 0.0 26.5042 0 0 0 0 0
760635 99855 -8.642 -0.091796875 -4.62 -0.06 -3.69 -34.88 5.37 0.0 0.0 25.1417 43.8555 0.0 27.1837 0 0 0 0 0
760655 99846 -8.65 -0.109375 -4.5 -0.05 -5.98 -35.4 -0.58 0.0 0.0 25.9027 44.4403 0.0 27.8465 0 0 0 0 0
760676 99838 -8.648 -0.071777343 -4.48 -0.07 -7.41 -35.85 -5.85 0.0 0.0 26.5764 45.0559 0.0 28.5672 0 0 0 0 0
760696 99832 -8.625 -0.047363281 -4.41 -0.1 -7.99 -36.22 -10.18 0.0 0.0 27.0838 45.6062 0.0 29.2201 0 0 0 0 0
760717 99816 -8.64 -0.082519531 -4.4 -0.05 -8.69 -36.55 -14.66 0.0 0.0 28.434 46.245 0.0 30.0463 0 0 0 0 0
760737 99807 -8.644 -0.083007812 -4.33 -0.05 -8.75 -37.38 -17.74 0.0 0.0 29.195 46.8306 0.0 30.8288 0 0 0 0 0
760758 99800 -8.625 -0.067871093 -4.35 -0.07 -9.12 -37.99 -19.36 0.0 0.0 29.7869 47.4372 0.0 31.6378 0 0 0 0 0
760778 99788 -8.631 -0.085449218 -4.33 -0.04 -8.72 -38.63 -20.24 0.0 0.0 30.7989 48.0231 0.0 32.4462 0 0 0 0 0
760799 99780 -8.64 -0.101074218 -4.21 -0.07 -7.53 -39.85 -19.66 0.0 0.0 31.4753 48.6064 0.0 33.2922 0 0 0 0 0
760819 99765 -8.642 -0.096679687 -4.07 -0.04 -7.35 -41.68 -18.02 0.0 0.0 32.7436 49.1647 0.0 34.1725 0 0 0 0 0
760840 99758 -8.642 -0.077636718 -3.93 -0.02 -5.95 -43.38 -15.37 0.0 0.0 33.3329 49.7021 0.0 35.0644 0 0 0 0 0
760860 99742 -8.644 -0.089355468 -3.7 -0.02 -4.05 -45.88 -12.35 0.0 0.0 34.6857 50.2013 0.0 35.9951 0 0 0 0 0
760881 99728 -8.635 -0.068847656 -3.51 -0.04 -1.16 -48.78 -8.6 0.0 0.0 35.8695 50.7094 0.0 37.0283 0 0 0 0 0
760901 99717 -8.638 -0.092285156 -3.26 -0.03 1.25 -51.01 -5.0 0.0 0.0 36.7969 51.1341 0.0 38.0038 0 0 0 0 0
760922 99702 -8.637 -0.097167968 -3.1 -0.04 3.57 -53.2 -1.77 0.0 0.0 38.0652 51.5721 0.0 39.0879 0 0 0 0 0
760942 99699 -8.637 -0.075195312 -2.93 -0.04 5.49 -55.79 1.65 0.0 0.0 38.3189 51.8898 0.0 39.9907 0 0 0 0 0
760963 99682 -8.638 -0.027832031 -2.74 -0.03 7.5 -56.77 4.73 0.0 0.0 39.7563 52.2301 0.0 41.0411 0 0 0 0 0
760983 99675 -8.625 -0.069824218 -2.52 -0.01 9.42 -57.53 6.22 0.0 0.0 40.3482 52.4739 0.0 41.9698 0 0 0 0 0
761004 99670 -8.62 -0.077148437 -2.23 -0.04 10.18 -58.26 6.65 0.0 0.0 40.771 52.6312 0.0 42.8711 0 0 0 0 0
761024 99658 -8.629 -0.044433593 -1.7 -0.02 10.06 -57.62 6.83 0.0 0.0 41.7856 52.6818 0.0 43.7421 0 0 0 0 0
761044 99648 -8.627 -0.017089843 -1.18 -0.01 9.73 -57.59 6.4 0.0 0.0 42.6312 52.6283 0.0 44.6099 0 0 0 0 0
761065 99632 -8.624 -0.009765625 -0.77 0.03 9.36 -55.67 6.98 0.0 0.0 43.984 52.5304 0.0 45.6103 0 0 0 0 0
761085 99625 -8.629 -0.009765625 -0.45 0.02 4.97 -54.97 6.25 0.0 0.0 44.5759 52.3397 0.0 46.4879 0 0 0 0 0
761106 99616 -8.62 -0.041015625 -0.22 0.06 2.41 -54.33 5.3 0.0 0.0 45.3369 52.0884 0.0 47.3944 0 0 0 0 0
761126 99596 -8.629 0.029296875 -0.08 0.04 -4.79 -53.66 2.84 0.0 0.0 47.0306 51.8819 0.0 48.3753 0 0 0 0 0
761147 99583 -8.633 0.166992187 -0.01 -0.08 -2.96 -53.26 4.3 0.0 0.0 48.1298 51.6941 0.0 49.4237 0 0 0 0 0
761167 99576 -8.616 0.213867187 0.06 0.0 -3.08 -53.57 4.48 0.0 0.0 48.7217 51.4852 0.0 50.3402 0 0 0 0 0
761188 99558 -8.622 0.095703125 0.06 0.03 -3.35 -53.72 3.69 0.0 0.0 50.2437 51.296 0.0 51.4052 0 0 0 0 0
761208 99548 -8.624 0.09765625 0.1 0.02 -3.48 -51.59 2.26 0.0 0.0 51.0919 51.1028 0.0 52.3787 0 0 0 0 0
761229 99528 -8.622 0.072753906 0.15 0.02 -4.12 -50.91 0.79 0.0 0.0 52.783 50.9629 0.0 53.5195 0 0 0 0 0
761249 99517 -8.61 0.044433593 0.18 -0.0 -4.51 -51.71 -0.98 0.0 0.0 53.7157 50.8196 0.0 54.5716 0 0 0 0 0
761270 99503 -8.622 0.017089843 0.2 -0.01 -5.09 -50.98 -2.26 0.0 0.0 54.8995 50.6806 0.0 55.6937 0 0 0 0 0
761290 99493 -8.624 0.006835937 0.21 -0.0 -5.15 -50.18 -4.39 0.0 0.0 55.7477 50.5301 0.0 56.7163 0 0 0 0 0
761311 99476 -8.622 -0.029296875 0.22 0.0 -6.31 -49.45 -7.2 0.0 0.0 57.1877 50.4082 0.0 57.8564 0 0 0 0 0
761331 99467 -8.618 0.000488281 0.22 0.01 -6.52 -49.73 -8.63 0.0 0.0 57.9487 50.2626 0.0 58.88 0 0 0 0 0
761352 99445 -8.609 0.013671876 0.23 0.04 -6.83 -50.52 -9.82 0.0 0.0 59.8115 50.1793 0.0 60.0914 0 0 0 0 0
761372 99433 -8.616 0.004882812 0.24 0.02 -6.95 -50.73 -10.61 0.0 0.0 60.8288 50.0885 0.0 61.2184 0 0 0 0 0
761393 99420 -8.627 0.014648438 0.24 0.01 -6.74 -51.37 -10.76 0.0 0.0 61.928 49.9885 0.0 62.389 0 0 0 0 0
761413 99405 -8.609 0.008300782 0.23 0.02 -6.68 -51.95 -10.61 0.0 0.0 63.199 49.9032 0.0 63.5243 0 0 0 0 0
761434 99395 -8.625 0.021484375 0.24 0.02 -5.76 -52.01 -9.51 0.0 0.0 64.0472 49.7887 0.0 64.6598 0 0 0 0 0
761454 99380 -8.614 0.008789063 0.24 0.03 -4.33 -52.9 -8.08 0.0 0.0 65.3181 49.6923 0.0 65.7657 0 0 0 0 0
761475 99364 -8.603 0.025878906 0.23 0.02 -2.47 -53.38 -6.22 0.0 0.0 66.6736 49.6072 0.0 66.9612 0 0 0 0 0
761495 99352 -8.612 0.012695313 0.23 0.01 -1.01 -53.45 -4.05 0.0 0.0 67.6909 49.5147 0.0 68.0754 0 0 0 0 0
761516 99338 -8.599 0.018066406 0.23 0.02 0.98 -54.3 -1.98 0.0 0.0 68.88 49.4216 0.0 69.2499 0 0 0 0 0
761536 99325 -8.605 0.01953125 0.22 0.0 2.53 -52.74 -0.37 0.0 0.0 69.9818 49.3281 0.0 70.3608 0 0 0 0 0
761556 99310 -8.609 0.00390625 0.22 -0.0 3.29 -52.74 0.58 0.0 0.0 71.2528 49.2464 0.0 71.4966 0 0 0 0 0
761577 99296 -8.605 0.00390625 0.22 0.01 4.09 -53.32 0.98 0.0 0.0 72.4392 49.1605 0.0 72.6885 0 0 0 0 0
761597 99283 -8.594 0.014160157 0.22 0.03 4.12 -53.26 1.16 0.0 0.0 73.541 49.0757 0.0 73.8144 0 0 0 0 0
761618 99272 -8.614 0.021972656 0.21 0.01 4.36 -53.9 1.04 0.0 0.0 74.4764 48.9664 0.0 74.9558 0 0 0 0 0
761638 99258 -8.618 0.008300782 0.21 0.01 3.96 -53.72 0.34 0.0 0.0 75.6628 48.8679 0.0 76.0534 0 0 0 0 0
761659 99248 -8.597 0.028808593 0.21 -0.0 3.38 -54.42 -0.88 0.0 0.0 76.511 48.7417 0.0 77.1562 0 0 0 0 0
761679 99238 -8.597 0.010742188 0.21 -0.0 1.71 -54.02 -2.71 0.0 0.0 77.3592 48.6026 0.0 78.165 0 0 0 0 0
761700 99223 -8.624 0.008789063 0.21 0.0 0.55 -53.45 -3.38 0.0 0.0 78.6328 48.4767 0.0 79.2639 0 0 0 0 0
761720 99210 -8.618 0.010742188 0.2 0.01 -1.19 -52.96 -3.87 0.0 0.0 79.7346 48.3584 0.0 80.3122 0 0 0 0 0
761741 99201 -8.592 0.01953125 0.2 -0.01 -2.59 -52.65 -4.42 0.0 0.0 80.4983 48.2094 0.0 81.3589 0 0 0 0 0
761761 99189 -8.594 0.009765625 0.2 0.02 -3.63 -53.26 -5.43 0.0 0.0 81.5182 48.0657 0.0 82.3497 0 0 0 0 0
761782 99172 -8.618 0.012207032 0.2 0.01 -4.85 -52.26 -5.82 0.0 0.0 82.9609 47.9493 0.0 83.4614 0 0 0 0 0
761802 99162 -8.618 0.006835937 0.2 -0.01 -5.15 -50.55 -5.91 0.0 0.0 83.8091 47.8199 0.0 84.4786 0 0 0 0 0
761823 99147 -8.597 0.016113281 0.2 -0.01 -5.82 -50.49 -5.7 0.0 0.0 85.0827 47.7031 0.0 85.5839 0 0 0 0 0
761843 99134 -8.577 0.012207032 0.2 0.01 -6.16 -50.49 -5.0 0.0 0.0 86.1872 47.5943 0.0 86.6389 0 0 0 0 0
761864 99121 -8.603 0.015625 0.19 -0.0 -6.4 -50.27 -4.12 0.0 0.0 87.2917 47.4806 0.0 87.7476 0 0 0 0 0
761884 99109 -8.603 0.009765625 0.19 0.02 -6.52 -50.64 -3.2 0.0 0.0 88.3116 47.3665 0.0 88.7916 0 0 0 0 0
761905 99093 -8.603 0.001953125 0.19 0.01 -6.49 -51.1 -2.87 0.0 0.0 89.6697 47.2697 0.0 89.9333 0 0 0 0 0
761925 99085 -8.614 0.00390625 0.19 0.02 -5.88 -50.52 -2.56 0.0 0.0 90.3488 47.1436 0.0 90.9482 0 0 0 0 0
761946 99073 -8.609 0.009765625 0.19 0.01 -5.09 -51.22 -1.59 0.0 0.0 91.3688 47.0098 0.0 92.0086 0 0 0 0 0
761966 99059 -8.605 0.012695313 0.18 -0.01 -4.24 -51.34 -0.7 0.0 0.0 92.5578 46.8935 0.0 93.0407 0 0 0 0 0
761987 99048 -8.601 0.006835937 0.18 0.01 -3.05 -51.68 -0.06 0.0 0.0 93.4932 46.7613 0.0 94.1012 0 0 0 0 0
762007 99038 -8.584 0.008300782 0.18 0.0 -2.5 -52.07 0.4 0.0 0.0 94.3414 46.6193 0.0 95.0766 0 0 0 0 0
762028 99024 -8.601 0.018066406 0.18 0.02 -2.04 -52.47 0.82 0.0 0.0 95.5331 46.4873 0.0 96.132 0 0 0 0 0
762048 99017 -8.579 0.020996093 0.18 0.02 -1.16 -52.29 0.85 0.0 0.0 96.1276 46.326 0.0 97.061 0 0 0 0 0
762068 99007 -8.594 0.008300782 0.18 0.02 -0.3 -52.35 1.13 0.0 0.0 96.9758 46.1585 0.0 97.9733 0 0 0 0 0
762089 98993 -8.584 0.010742188 0.17 0.02 -0.06 -52.07 1.31 0.0 0.0 98.1675 46.0041 0.0 98.9751 0 0 0 0 0
762109 98978 -8.59 0.021484375 0.18 0.0 0.37 -51.55 1.71 0.0 0.0 99.4437 45.8801 0.0 99.9736 0 0 0 0 0
762130 98966 -8.599 0.015136719 0.17 0.01 0.64 -51.83 1.49 0.0 0.0 100.4636 45.7478 0.0 101.0191 0 0 0 0 0
762150 98962 -8.607 0.008789063 0.16 0.01 0.4 -50.91 1.34 0.0 0.0 100.8045 45.5669 0.0 101.8981 2 0 0 0 0
762171 98948 -8.568 0.008300782 0.17 0.02 -0.03 -50.95 1.28 0.0 0.0 101.9935 45.4033 0.0 102.871 2 0 0 0 0
762191 98941 -8.592 0.004394531 0.16 0.01 -0.06 -51.46 1.16 0.0 0.0 102.588 45.2168 0.0 103.7317 2 0 0 0 0
762212 98925 -8.59 0.007324219 0.16 0.02 -0.55 -51.46 0.67 0.0 0.0 103.9488 45.0612 0.0 104.7176 2 0 0 0 0
762232 98918 -8.582 0.007324219 0.16 0.01 -1.28 -51.31 0.03 0.0 0.0 104.546 44.8824 0.0 105.5901 2 0 0 0 0
762253 98903 -8.588 0.009277344 0.16 0.0 -1.77 -52.96 -1.22 0.0 0.0 105.8222 44.7286 0.0 106.5715 2 0 0 0 0
762273 98895 -8.588 0.022949218 0.15 -0.01 -2.53 -52.62 -2.35 0.0 0.0 106.5013 44.557 0.0 107.4543 2 0 0 0 0
762294 98880 -8.588 0.015136719 0.15 0.0 -3.84 -50.79 -3.17 0.0 0.0 107.7776 44.4087 0.0 108.4441 2 0 0 0 0
762314 98870 -8.592 0.0078125 0.16 0.01 -5.4 -50.18 -4.66 0.0 0.0 108.6284 44.2579 0.0 109.3631 2 0 0 0 0
762335 98859 -8.581 0.0078125 0.16 0.01 -6.4 -49.6 -5.79 0.0 0.0 109.5664 44.1003 0.0 110.3266 2 0 0 0 0
762355 98851 -8.581 0.010253907 0.15 0.01 -6.95 -49.73 -6.89 0.0 0.0 110.2455 43.927 0.0 111.195 2 0 0 0 0
762376 98837 -8.59 0.000976562 0.15 0.01 -7.44 -50.12 -7.32 0.0 0.0 111.4372 43.7712 0.0 112.158 2 0 0 0 0
762396 98826 -8.571 0.006835937 0.15 0.0 -7.9 -50.24 -7.16 0.0 0.0 112.3752 43.6219 0.0 113.0698 2 0 0 0 0
762417 98820 -8.601 0.020019531 0.15 0.02 -8.05 -49.73 -5.98 0.0 0.0 112.8852 43.4322 0.0 113.9549 2 0 0 0 0
762437 98807 -8.581 -0.001953125 0.14 0.03 -8.26 -49.15 -5.21 0.0 0.0 113.9923 43.2677 0.0 114.8298 2 0 0 0 0
762458 98795 -8.596 0.011230469 0.15 0.01 -8.23 -48.99 -4.02 0.0 0.0 115.0149 43.1068 0.0 115.7694 2 0 0 0 0
762478 98785 -8.582 0.00390625 0.14 0.0 -7.53 -48.54 -2.68 0.0 0.0 115.8657 42.9465 0.0 116.6477 2 0 0 0 0
762499 98777 -8.586 -0.002441406 0.14 0.01 -7.01 -48.17 -1.77 0.0 0.0 116.5474 42.7617 0.0 117.5328 2 0 0 0 0
762519 98764 -8.594 0.001953125 0.14 0.01 -6.55 -47.99 -0.73 0.0 0.0 117.6546 42.6032 0.0 118.4084 2 0 0 0 0
762540 98753 -8.582 -0.002929687 0.14 0.01 -5.79 -48.29 0.52 0.0 0.0 118.5899 42.4414 0.0 119.3334 2 0 0 0 0
762560 98742 -8.579 0.0 0.14 0.01 -5.27 -48.23 1.55 0.0 0.0 119.528 42.2883 0.0 120.2148 2 0 0 0 0
762580 98737 -8.571 0.006347656 0.14 0.02 -4.7 -48.45 2.5 0.0 0.0 119.9534 42.0983 0.0 121.0168 2 0 0 0 0
762601 98723 -8.571 0.016113281 0.13 0.01 -3.96 -48.02 3.32 0.0 0.0 121.1477 41.9305 0.0 121.9228 2 0 0 0 0
762621 98721 -8.558 0.014648438 0.14 0.01 -3.23 -48.2 3.9 0.0 0.0 121.3168 41.713 0.0 122.66 2 0 0 0 0
762642 98705 -8.573 0.018066406 0.13 0.01 -2.65 -48.11 4.36 0.0 0.0 122.6802 41.5366 0.0 123.5394 2 0 0 0 0
762662 98696 -8.59 0.009765625 0.13 0.01 -2.07 -47.84 4.76 0.0 0.0 123.4465 41.3585 0.0 124.3546 2 0 0 0 0
762683 98684 -8.59 0.003417968 0.13 0.0 -1.46 -47.87 4.82 0.0 0.0 124.4691 41.188 0.0 125.2423 2 0 0 0 0
762703 98674 -8.599 0.009765625 0.13 0.01 -1.1 -48.05 4.66 0.0 0.0 125.3226 41.024 0.0 126.0795 2 0 0 0 0
762724 98664 -8.575 0.002929687 0.12 0.01 -0.73 -47.77 4.85 0.0 0.0 126.1734 40.8505 0.0 126.9567 2 0 0 0 0
762744 98657 -8.562 0.005371094 0.12 0.01 -0.43 -47.8 4.79 0.0 0.0 126.7706 40.6636 0.0 127.7426 2 0 0 0 0
762765 98649 -8.581 0.003417968 0.12 0.01 -0.37 -47.71 4.45 0.0 0.0 127.4523 40.4597 0.0 128.5479 2 0 0 0 0
762785 98643 -8.59 -0.000488281 0.12 0.0 -0.34 -47.56 4.39 0.0 0.0 127.9649 40.2402 0.0 129.2596 2 0 0 0 0
762806 98631 -8.581 0.011230469 0.12 0.01 -0.76 -47.2 4.09 0.0 0.0 128.9875 40.0376 0.0 130.0591 2 0 0 0 0
762826 98618 -8.586 0.006347656 0.12 0.01 -0.73 -47.04 3.78 0.0 0.0 130.0972 39.8676 0.0 130.8662 2 0 0 0 0
762847 98612 -8.579 -0.000976562 0.12 0.01 -0.98 -46.77 3.32 0.0 0.0 130.6072 39.6652 0.0 131.6601 2 0 0 0 0
762867 98601 -8.573 0.004394531 0.12 0.0 -1.22 -46.83 3.02 0.0 0.0 131.5479 39.4826 0.0 132.4346 2 0 0 0 0
762888 98593 -8.573 -0.000488281 0.12 0.01 -1.4 -46.46 2.96 0.0 0.0 132.2296 39.2845 0.0 133.2294 2 0 0 0 0
762908 98586 -8.568 0.005371094 0.12 0.0 -1.92 -46.19 2.8 0.0 0.0 132.8267 39.0789 0.0 133.9477 2 0 0 0 0
762929 98576 -8.573 0.00390625 0.12 0.01 -2.47 -46.01 3.23 0.0 0.0 133.6802 38.8757 0.0 134.7236 2 0 0 0 0
762949 98569 -8.573 0.0078125 0.11 0.0 -3.14 -45.49 3.29 0.0 0.0 134.2747 38.6656 0.0 135.426 2 0 0 0 0
762970 98562 -8.556 0.011230469 0.11 0.0 -3.54 -45.7 3.45 0.0 0.0 134.8745 38.439 0.0 136.1457 2 0 0 0 0
762990 98552 -8.562 0.015136719 0.11 0.0 -4.48 -44.88 3.66 0.0 0.0 135.7254 38.2307 0.0 136.8442 2 0 0 0 0
763011 98546 -8.571 0.000488281 0.11 0.01 -5.0 -44.54 3.93 0.0 0.0 136.238 37.9986 0.0 137.5455 2 0 0 0 0
763031 98533 -8.551 0.002441406 0.11 0.0 -5.52 -44.7 3.96 0.0 0.0 137.3478 37.8075 0.0 138.2724 2 0 0 0 0
763052 98518 -8.562 0.005371094 0.11 0.01 -6.1 -44.33 4.02 0.0 0.0 138.6266 37.6525 0.0 139.1257 2 0 0 0 0
763072 98513 -8.547 0.003417968 0.11 0.01 -6.52 -43.66 4.24 0.0 0.0 139.0547 37.4718 0.0 139.8668 2 0 0 0 0
763092 98512 -8.566 0.007324219 0.1 -0.01 -6.89 -43.69 4.36 0.0 0.0 139.1392 37.2377 0.0 140.4945 2 0 0 0 0
763113 98496 -8.566 -0.001464844 0.1 0.0 -7.56 -43.08 4.33 0.0 0.0 140.5053 37.0534 0.0 141.2783 2 0 0 0 0
763133 98490 -8.568 0.004394531 0.11 0.02 -8.17 -42.8 4.36 0.0 0.0 141.0179 36.8574 0.0 141.9758 2 0 0 0 0
763154 98482 -8.575 0.010742188 0.1 0.0 -8.6 -41.8 4.27 0.0 0.0 141.6997 36.6501 0.0 142.7036 2 0 0 0 0
763174 98476 -8.575 0.011718751 0.1 0.0 -8.78 -40.3 4.24 0.0 0.0 142.2123 36.434 0.0 143.3544 2 0 0 0 0
763195 98471 -8.549 0.015625 0.1 0.0 -9.27 -40.34 3.9 0.0 0.0 142.6403 36.1909 0.0 144.0 2 0 0 0 0
763215 98457 -8.568 0.013183594 0.1 0.0 -9.54 -40.18 3.78 0.0 0.0 143.8347 36.0012 0.0 144.6961 2 0 0 0 0
763236 98451 -8.56 0.015136719 0.09 0.0 -10.21 -39.66 3.02 0.0 0.0 144.3473 35.7869 0.0 145.3938 2 0 0 0 0
763256 98440 -8.571 0.009765625 0.1 0.01 -10.61 -39.85 2.53 0.0 0.0 145.2879 35.6012 0.0 146.0918 2 0 0 0 0
763277 98437 -8.568 0.004394531 0.09 0.01 -10.73 -40.03 2.13 0.0 0.0 145.5442 35.3706 0.0 146.7478 2 0 0 0 0
763297 98430 -8.566 0.000488281 0.09 0.0 -10.58 -40.15 1.86 0.0 0.0 146.1414 35.1439 0.0 147.3537 2 0 0 0 0
763318 98419 -8.53 0.012207032 0.09 0.0 -10.46 -41.34 1.74 0.0 0.0 147.0794 34.9349 0.0 148.0458 2 0 0 0 0
763338 98408 -8.551 0.002441406 0.09 0.0 -10.12 -41.28 2.13 0.0 0.0 148.0201 34.7548 0.0 148.7402 2 0 0 0 0
763359 98399 -8.579 0.002929687 0.09 0.0 -9.79 -40.55 2.5 0.0 0.0 148.789 34.5711 0.0 149.4783 2 0 0 0 0
763379 98392 -8.571 0.0 0.09 0.01 -9.12 -40.09 2.96 0.0 0.0 149.3862 34.3852 0.0 150.1543 2 0 0 0 0
763400 98382 -8.562 0.000976562 0.08 0.01 -8.23 -39.88 3.38 0.0 0.0 150.2423 34.2037 0.0 150.8911 2 0 0 0 0
763420 98375 -8.573 0.001953125 0.08 0.01 -7.56 -40.21 3.72 0.0 0.0 150.8394 34.02 0.0 151.5665 2 0 0 0 0
763441 98370 -8.541 0.007324219 0.08 0.02 -7.07 -40.58 4.15 0.0 0.0 151.2675 33.8076 0.0 152.2309 2 0 0 0 0
763461 98365 -8.577 0.002441406 0.08 0.01 -6.43 -40.64 4.45 0.0 0.0 151.6929 33.5847 0.0 152.817 2 0 0 0 0
763482 98352 -8.551 0.00390625 0.08 0.01 -5.76 -40.4 4.88 0.0 0.0 152.8053 33.3949 0.0 153.5204 2 0 0 0 0
763502 98347 -8.562 0.005859375 0.08 0.01 -4.57 -41.01 5.21 0.0 0.0 153.2334 33.1915 0.0 154.1402 2 0 0 0 0
763523 98340 -8.569 0.000976562 0.08 0.02 -3.6 -41.07 5.61 0.0 0.0 153.8305 32.977 0.0 154.7854 2 0 0 0 0
763543 98329 -8.569 0.002929687 0.08 0.02 -2.65 -41.01 5.91 0.0 0.0 154.7712 32.7958 0.0 155.4426 2 0 0 0 0
763564 98331 -8.562 0.009277344 0.08 0.03 -1.59 -41.37 6.46 0.0 0.0 154.5995 32.5399 0.0 155.9902 2 0 0 0 0
763584 98321 -8.566 0.001464844 0.08 0.02 -0.43 -41.52 6.59 0.0 0.0 155.4556 32.3165 0.0 156.5515 2 0 0 0 0
763604 98312 -8.566 0.002929687 0.08 0.03 0.88 -41.95 6.4 0.0 0.0 156.2245 32.1109 0.0 157.1432 2 0 0 0 0
763625 98304 -8.569 0.006347656 0.08 0.02 2.13 -40.98 6.49 0.0 0.0 156.9088 31.9029 0.0 157.7783 2 0 0 0 0
763645 98298 -8.538 0.012207032 0.07 0.02 3.32 -40.88 6.4 0.0 0.0 157.4215 31.6933 0.0 158.3566 2 0 0 0 0
763666 98292 -8.56 0.005859375 0.08 0.02 4.39 -41.43 6.16 0.0 0.0 157.9341 31.4697 0.0 158.9515 2 0 0 0 0
763686 98280 -8.554 0.015136719 0.07 0.01 5.34 -41.43 5.52 0.0 0.0 158.9593 31.289 0.0 159.5822 2 0 0 0 0
763707 98285 -8.554 0.020019531 0.07 0.01 5.76 -41.65 5.24 0.0 0.0 158.5339 31.0145 0.0 160.0638 2 0 0 0 0
763727 98271 -8.554 0.011718751 0.07 0.01 6.22 -41.37 4.66 0.0 0.0 159.7308 30.8052 0.0 160.6284 2 0 0 0 0
763748 98267 -8.556 0.012695313 0.07 0.01 6.19 -41.22 3.81 0.0 0.0 160.0717 30.5692 0.0 161.1821 2 0 0 0 0
763768 98259 -8.571 0.011718751 0.06 0.02 5.98 -41.19 3.2 0.0 0.0 160.7561 30.3517 0.0 161.7222 2 0 0 0 0
763789 98254 -8.545 0.009765625 0.06 0.02 5.7 -40.98 2.53 0.0 0.0 161.1841 30.1164 0.0 162.2695 2 0 0 0 0
763809 98249 -8.54 0.001953125 0.06 0.01 5.12 -40.88 1.86 0.0 0.0 161.6122 29.8798 0.0 162.7619 2 0 0 0 0
763830 98245 -8.549 0.014160157 0.06 0.01 4.76 -40.4 1.07 0.0 0.0 161.953 29.6223 0.0 163.254 2 0 0 0 0
763850 98236 -8.554 0.0078125 0.06 0.01 3.99 -40.3 0.4 0.0 0.0 162.7246 29.3961 0.0 163.7578 2 0 0 0 0
763871 98234 -8.543 0.013183594 0.06 0.02 2.93 -39.36 -0.06 0.0 0.0 162.8937 29.1341 0.0 164.2305 2 0 0 0 0
763891 98223 -8.545 0.016601562 0.06 0.02 1.83 -38.81 -0.46 0.0 0.0 163.8344 28.9191 0.0 164.7469 2 0 0 0 0
763912 98223 -8.538 0.013671876 0.06 0.03 1.34 -38.69 -1.19 0.0 0.0 163.8344 28.6543 0.0 165.2015 2 0 0 0 0
763932 98218 -8.545 0.007324219 0.06 0.01 0.82 -38.54 -1.74 0.0 0.0 164.2624 28.3946 0.0 165.6174 2 0 0 0 0
763953 98203 -8.543 0.011230469 0.06 0.0 0.21 -40.12 -2.23 0.0 0.0 165.5466 28.1948 0.0 166.2019 2 0 0 0 0
763973 98202 -8.543 0.004394531 0.06 0.01 -0.24 -40.03 -2.16 0.0 0.0 165.6311 27.9644 0.0 166.6703 2 0 0 0 0
763994 98194 -8.551 0.003417968 0.06 0.01 -1.04 -40.58 -1.95 0.0 0.0 166.3181 27.7418 0.0 167.1986 2 0 0 0 0
764014 98188 -8.562 -0.000488281 0.05 0.01 -1.62 -39.91 -1.52 0.0 0.0 166.8307 27.5269 0.0 167.6919 2 0 0 0 0
764035 98182 -8.554 0.001953125 0.06 0.01 -1.95 -39.6 -0.82 0.0 0.0 167.3434 27.3048 0.0 168.2116 2 0 0 0 0
764055 98185 -8.547 -0.014160157 0.05 0.01 -2.13 -39.48 -0.15 0.0 0.0 167.0871 27.0291 0.0 168.5696 2 0 0 0 0
764076 98178 -8.566 -0.013183594 0.05 -0.01 -2.47 -39.42 0.73 0.0 0.0 167.6869 26.7636 0.0 168.9894 2 0 0 0 0
764096 98170 -8.56 -0.005859375 0.05 -0.0 -3.26 -39.21 1.98 0.0 0.0 168.3712 26.5283 0.0 169.4213 2 0 0 0 0
764116 98162 -8.545 -0.0078125 0.05 0.0 -4.42 -38.84 3.96 0.0 0.0 169.0556 26.3132 0.0 169.8907 2 0 0 0 0
764137 98163 -8.543 -0.002929687 0.05 0.0 -5.24 -38.69 6.04 0.0 0.0 168.9684 26.0444 0.0 170.2889 2 0 0 0 0
764157 98152 -8.536 -0.004394531 0.06 0.01 -5.95 -38.14 8.11 0.0 0.0 169.9117 25.8299 0.0 170.7467 2 0 0 0 0
764178 98145 -8.545 0.0 0.05 0.0 -7.04 -37.71 10.27 0.0 0.0 170.5115 25.6155 0.0 171.2497 2 0 0 0 0
764198 98143 -8.521 -0.000976562 0.06 0.01 -7.35 -36.89 12.1 0.0 0.0 170.6833 25.3852 0.0 171.6673 2 0 0 0 0
764219 98137 -8.543 -0.001953125 0.05 0.0 -7.71 -36.74 13.93 0.0 0.0 171.1959 25.1521 0.0 172.1215 2 0 0 0 0
764239 98126 -8.54 -0.006347656 0.05 0.01 -7.87 -36.68 15.58 0.0 0.0 172.1365 24.9675 0.0 172.627 2 0 0 0 0
764260 98123 -8.543 -0.014648438 0.05 -0.0 -7.77 -35.95 17.04 0.0 0.0 172.3955 24.7534 0.0 173.1126 2 0 0 0 0
764280 98116 -8.534 -0.003417968 0.05 0.01 -7.71 -36.4 18.75 0.0 0.0 172.9926 24.5581 0.0 173.5876 2 0 0 0 0
764301 98110 -8.553 -0.004882812 0.05 0.02 -7.5 -36.34 20.15 0.0 0.0 173.5079 24.3574 0.0 174.09 2 0 0 0 0
764321 98109 -8.53 -0.006835937 0.05 0.01 -7.23 -35.79 21.49 0.0 0.0 173.5924 24.1323 0.0 174.4939 2 0 0 0 0
764342 98105 -8.534 -0.008300782 0.05 0.0 -6.52 -35.85 22.62 0.0 0.0 173.936 23.8929 0.0 174.9073 2 0 0 0 0
764362 98102 -8.53 -0.010742188 0.05 0.01 -5.76 -34.97 23.69 0.0 0.0 174.1923 23.6499 0.0 175.2655 2 0 0 0 0
764383 98100 -8.545 0.002929687 0.06 0.01 -5.46 -34.21 24.66 0.0 0.0 174.364 23.3835 0.0 175.6112 2 0 0 0 0
764403 98091 -8.541 0.000488281 0.05 0.02 -5.3 -33.6 25.46 0.0 0.0 175.1356 23.1604 0.0 175.9993 2 0 0 0 0
764424 98089 -8.549 -0.001464844 0.05 0.01 -4.85 -33.51 26.07 0.0 0.0 175.3073 22.9102 0.0 176.3699 2 0 0 0 0
764444 98082 -8.523 -0.002441406 0.05 0.01 -4.12 -33.6 26.37 0.0 0.0 175.9045 22.6871 0.0 176.7502 2 0 0 0 0
764465 98077 -8.523 0.000976562 0.05 0.01 -3.54 -33.11 26.34 0.0 0.0 176.3352 22.4591 0.0 177.1572 2 0 0 0 0
764485 98072 -8.523 0.000976562 0.05 0.01 -3.02 -32.38 26.43 0.0 0.0 176.7606 22.2411 0.0 177.54 2 0 0 0 0
764506 98072 -8.512 -0.008789063 0.05 0.01 -2.38 -32.16 26.31 0.0 0.0 176.7606 21.9831 0.0 177.8766 2 0 0 0 0
764526 98063 -8.527 0.001953125 0.05 0.02 -2.01 -32.13 26.19 0.0 0.0 177.5321 21.7696 0.0 178.2586 2 0 0 0 0
764547 98062 -8.543 0.001464844 0.05 0.02 -1.43 -32.26 26.07 0.0 0.0 177.6193 21.5227 0.0 178.6088 2 0 0 0 0
764567 98055 -8.545 0.004394531 0.05 0.01 -0.95 -32.47 25.85 0.0 0.0 178.2191 21.3049 0.0 178.9741 2 0 0 0 0
764588 98050 -8.536 -0.001953125 0.04 0.01 -0.52 -32.5 25.4 0.0 0.0 178.6472 21.0824 0.0 179.3668 2 0 0 0 0
764608 98046 -8.53 -0.002929687 0.04 0.01 -0.21 -32.71 24.6 0.0 0.0 178.9907 20.8652 0.0 179.7255 2 0 0 0 0
764628 98044 -8.534 0.009277344 0.04 0.02 0.21 -32.68 23.96 0.0 0.0 179.1598 20.6332 0.0 180.0482 2 0 0 0 0
764649 98037 -8.536 0.004882812 0.04 0.02 0.76 -32.71 23.23 0.0 0.0 179.7596 20.414 0.0 180.4332 2 0 0 0 0
764669 98035 -8.534 0.000976562 0.04 0.01 1.16 -32.71 22.47 0.0 0.0 179.9314 20.1866 0.0 180.7575 2 0 0 0 0
764690 98029 -8.549 0.004882812 0.04 0.02 1.55 -32.77 21.55 0.0 0.0 180.4466 19.9644 0.0 181.1294 2 0 0 0 0
764710 98032 -8.521 0.000488281 0.04 0.01 1.92 -32.74 20.64 0.0 0.0 180.1903 19.7009 0.0 181.3715 2 0 0 0 0
764731 98023 -8.523 -0.005371094 0.03 0.01 2.23 -32.84 19.76 0.0 0.0 180.9592 19.4692 0.0 181.7163 2 0 0 0 0
764751 98018 -8.527 -0.002929687 0.03 0.01 2.77 -32.8 18.87 0.0 0.0 181.3899 19.2542 0.0 182.051 2 0 0 0 0
764772 98020 -8.519 -0.004394531 0.04 0.02 2.96 -33.08 18.08 0.0 0.0 181.2182 18.9907 0.0 182.316 2 0 0 0 0
764792 98014 -8.528 -0.000488281 0.03 0.01 3.38 -33.38 17.29 0.0 0.0 181.7308 18.755 0.0 182.5979 2 0 0 0 0
764813 98010 -8.504 0.001464844 0.03 0.02 3.81 -33.11 16.74 0.0 0.0 182.0743 18.5147 0.0 182.9041 2 0 0 0 0
764833 98005 -8.527 0.005859375 0.03 0.02 4.12 -32.99 16.25 0.0 0.0 182.5023 18.2937 0.0 183.2072 2 0 0 0 0
764854 98004 -8.521 0.001953125 0.03 0.01 4.54 -33.14 15.85 0.0 0.0 182.5895 18.0457 0.0 183.488 2 0 0 0 0
764874 98000 -8.528 0.009277344 0.03 0.01 4.79 -32.9 15.3 0.0 0.0 182.9304 17.8109 0.0 183.7556 2 0 0 0 0
764895 97994 -8.525 0.001953125 0.03 0.01 5.15 -32.53 14.94 0.0 0.0 183.4457 17.5877 0.0 184.0777 2 0 0 0 0
764915 97992 -8.519 0.003417968 0.03 0.01 5.24 -32.74 14.57 0.0 0.0 183.6174 17.3614 0.0 184.3525 2 0 0 0 0
764936 97989 -8.527 0.005859375 0.03 0.01 5.46 -32.74 14.09 0.0 0.0 183.8737 17.1235 0.0 184.6369 2 0 0 0 0
764956 97987 -8.543 0.003417968 0.03 0.01 5.61 -32.74 13.9 0.0 0.0 184.0455 16.8859 0.0 184.8804 2 0 0 0 0
764977 97984 -8.534 -0.006347656 0.03 0.01 5.61 -32.59 13.63 0.0 0.0 184.3018 16.6398 0.0 185.1382 2 0 0 0 0
764997 97979 -8.525 -0.002441406 0.03 0.01 5.34 -32.47 13.66 0.0 0.0 184.7325 16.4177 0.0 185.4031 2 0 0 0 0
765018 97979 -8.536 -0.004394531 0.03 0.01 5.37 -32.29 13.38 0.0 0.0 184.7325 16.1642 0.0 185.6356 2 0 0 0 0
765038 97972 -8.521 -0.002929687 0.03 0.02 5.18 -32.23 13.54 0.0 0.0 185.3323 15.9502 0.0 185.9082 2 0 0 0 0
765059 97968 -8.521 -0.003417968 0.03 0.02 5.03 -32.32 13.75 0.0 0.0 185.6758 15.7325 0.0 186.2042 2 0 0 0 0
765079 97967 -8.527 0.000488281 0.03 0.02 5.12 -32.5 13.93 0.0 0.0 185.7603 15.5081 0.0 186.4446 2 0 0 0 0
765100 97963 -8.528 -0.005371094 0.02 0.01 5.34 -32.26 14.12 0.0 0.0 186.1038 15.2807 0.0 186.7132 2 0 0 0 0
765120 97961 -8.527 -0.000976562 0.03 0.0 5.34 -32.16 14.42 0.0 0.0 186.2756 15.0547 0.0 186.9456 2 0 0 0 0
765140 97955 -8.528 -0.003417968 0.02 0.01 5.4 -32.2 14.91 0.0 0.0 186.7882 14.8506 0.0 187.2204 2 0 0 0 0
765161 97954 -8.515 0.0 0.03 0.01 5.52 -31.89 15.27 0.0 0.0 186.8754 14.623 0.0 187.4745 2 0 0 0 0
765181 97949 -8.519 0.007324219 0.03 0.01 5.64 -31.83 16.13 0.0 0.0 187.3034 14.4195 0.0 187.7384 2 0 0 0 0
765202 97949 -8.53 0.001464844 0.03 0.02 5.49 -31.52 16.77 0.0 0.0 187.3034 14.1857 0.0 187.9684 2 0 0 0 0
765222 97942 -8.536 -0.004882812 0.03 0.01 5.64 -31.4 17.16 0.0 0.0 187.9033 13.9901 0.0 188.2412 2 0 0 0 0
765243 97937 -8.521 -0.002441406 0.02 0.01 5.88 -31.46 17.93 0.0 0.0 188.3339 13.7974 0.0 188.5505 2 0 0 0 0
765263 97938 -8.512 -0.003417968 0.03 0.01 6.04 -31.37 18.38 0.0 0.0 188.2467 13.5828 0.0 188.7756 2 0 0 0 0
765284 97936 -8.517 -0.00390625 0.03 0.01 6.16 -31.07 19.09 0.0 0.0 188.4185 13.3549 0.0 189.0011 2 0 0 0 0
765304 97936 -8.506 -0.001953125 0.03 0.01 6.59 -31.07 19.66 0.0 0.0 188.4185 13.1182 0.0 189.1707 2 0 0 0 0
765325 97931 -8.512 0.00390625 0.03 0.01 6.89 -30.67 20.37 0.0 0.0 188.8466 12.8927 0.0 189.3919 2 0 0 0 0
765345 97925 -8.517 -0.001464844 0.03 0.02 7.2 -30.34 21.1 0.0 0.0 189.3618 12.7006 0.0 189.6448 2 0 0 0 0
765366 97931 -8.517 -0.002929687 0.03 0.01 7.5 -30.52 21.77 0.0 0.0 188.8466 12.4366 0.0 189.7779 2 0 0 0 0
765386 97924 -8.517 -0.00390625 0.03 0.01 7.84 -30.09 22.44 0.0 0.0 189.449 12.2203 0.0 189.9716 2 0 0 0 0
765407 97928 -8.497 -0.005371094 0.03 0.02 8.35 -29.54 23.32 0.0 0.0 189.1055 11.9519 0.0 190.0832 2 0 0 0 0
765427 97918 -8.517 0.000488281 0.03 0.0 8.6 -29.33 24.02 0.0 0.0 189.9616 11.7512 0.0 190.3019 2 0 0 0 0
765448 97918 -8.527 -0.003417968 0.03 0.02 9.05 -29.15 24.54 0.0 0.0 189.9616 11.5249 0.0 190.4917 2 0 0 0 0
765468 97910 -8.504 -0.00390625 0.03 0.02 9.57 -28.9 25.09 0.0 0.0 190.6486 11.3484 0.0 190.7485 2 0 0 0 0
765489 97914 -8.512 0.0 0.03 0.02 10.0 -28.87 25.91 0.0 0.0 190.3051 11.1139 0.0 190.9126 2 0 0 0 0
765509 97916 -8.502 -0.001953125 0.03 0.02 10.64 -28.99 26.34 0.0 0.0 190.1334 10.8621 0.0 191.0045 2 0 0 0 0
765530 97905 -8.527 -0.005371094 0.03 0.02 11.04 -28.96 27.07 0.0 0.0 191.0767 10.669 0.0 191.2447 2 0 0 0 0
765550 97906 -8.513 -0.009277344 0.03 0.02 11.62 -29.12 27.5 0.0 0.0 190.9921 10.4596 0.0 191.4158 2 0 0 0 0
765571 97907 -8.502 -0.004882812 0.03 0.02 12.35 -29.42 27.99 0.0 0.0 190.9049 10.2199 0.0 191.55 2 0 0 0 0
765591 97905 -8.491 -0.006347656 0.04 0.03 12.74 -29.57 28.26 0.0 0.0 191.0767 9.9949 0.0 191.6752 2 0 0 0 0
765612 97907 -8.502 -0.005859375 0.03 0.02 13.38 -29.18 28.81 0.0 0.0 190.9049 9.7352 0.0 191.7561 2 0 0 0 0
765632 97901 -8.499 -0.005371094 0.04 0.02 13.99 -29.09 29.54 0.0 0.0 191.4202 9.5201 0.0 191.8946 2 0 0 0 0
765652 97900 -8.512 -0.004882812 0.03 0.02 14.63 -28.84 30.21 0.0 0.0 191.5074 9.3 0.0 192.0203 2 0 0 0 0
765673 97896 -8.506 -0.002929687 0.03 0.02 15.18 -28.72 30.79 0.0 0.0 191.8482 9.0883 0.0 192.1868 2 0 0 0 0
765693 97899 -8.508 0.000488281 0.04 0.02 15.61 -28.14 31.07 0.0 0.0 191.5919 8.853 0.0 192.269 2 0 0 0 0
765714 97892 -8.508 -0.005859375 0.04 0.02 16.34 -28.05 31.8 0.0 0.0 192.1917 8.6491 0.0 192.442 2 0 0 0 0
765734 97891 -8.513 -0.007324219 0.04 0.02 17.01 -28.08 32.35 0.0 0.0 192.2789 8.448 0.0 192.5877 2 0 0 0 0
765755 97892 -8.521 -0.008300782 0.04 0.02 17.53 -28.57 32.74 0.0 0.0 192.1917 8.2189 0.0 192.6988 2 0 0 0 0
765775 97888 -8.504 -0.004394531 0.04 0.02 18.2 -28.38 33.2 0.0 0.0 192.5352 8.0178 0.0 192.8358 2 0 0 0 0
765796 97890 -8.504 -0.010742188 0.04 0.03 19.05 -28.14 33.57 0.0 0.0 192.3635 7.7839 0.0 192.9252 2 0 0 0 0
765816 97891 -8.506 -0.006347656 0.04 0.02 19.73 -28.23 34.09 0.0 0.0 192.2789 7.5447 0.0 192.9727 2 0 0 0 0
765837 97891 -8.499 -0.003417968 0.04 0.03 20.79 -28.05 34.48 0.0 0.0 192.2789 7.2931 0.0 193.015 2 0 0 0 0
765857 97888 -8.519 -0.004882812 0.04 0.02 21.28 -28.02 34.76 0.0 0.0 192.5352 7.068 0.0 193.0806 2 0 0 0 0
765878 97886 -8.508 -0.009277344 0.04 0.02 21.95 -27.99 35.03 0.0 0.0 192.707 6.8421 0.0 193.1665 2 0 0 0 0
765898 97887 -8.499 -0.0078125 0.04 0.03 22.87 -27.87 35.4 0.0 0.0 192.6224 6.6125 0.0 193.2123 2 0 0 0 0
765919 97885 -8.504 -0.007324219 0.04 0.02 23.69 -27.62 35.64 0.0 0.0 192.7942 6.3835 0.0 193.2812 2 0 0 0 0
765939 97880 -8.499 -0.001464844 0.04 0.02 24.33 -27.77 36.01 0.0 0.0 193.2222 6.1917 0.0 193.399 2 0 0 0 0
765960 97884 -8.506 -0.005859375 0.04 0.03 25.37 -27.84 36.1 0.0 0.0 192.8787 5.9541 0.0 193.442 2 0 0 0 0
765980 97880 -8.497 -0.008789063 0.04 0.02 26.4 -27.8 36.37 0.0 0.0 193.2222 5.7503 0.0 193.5243 2 0 0 0 0
766001 97880 -8.493 -0.009277344 0.05 0.02 27.26 -27.87 36.28 0.0 0.0 193.2222 5.5311 0.0 193.5945 2 0 0 0 0
766021 97881 -8.502 -0.008789063 0.05 0.02 28.26 -27.5 36.31 0.0 0.0 193.135 5.3083 0.0 193.6282 2 0 0 0 0
766042 97879 -8.504 -0.015136719 0.05 0.02 29.12 -26.55 36.65 0.0 0.0 193.3068 5.0887 0.0 193.6859 2 0 0 0 0
766062 97880 -8.499 -0.008789063 0.05 0.02 30.24 -26.52 36.68 0.0 0.0 193.2222 4.866 0.0 193.7101 2 0 0 0 0
766083 97880 -8.504 -0.005859375 0.05 0.02 31.25 -26.19 36.77 0.0 0.0 193.2222 4.6326 0.0 193.7306 2 0 0 0 0
766103 97880 -8.484 -0.006347656 0.05 0.03 32.16 -26.34 36.86 0.0 0.0 193.2222 4.4069 0.0 193.7382 2 0 0 0 0
766124 97878 -8.497 -0.005371094 0.05 0.03 33.08 -26.19 36.86 0.0 0.0 193.394 4.1851 0.0 193.7732 2 0 0 0 0
766144 97883 -8.508 -0.009765625 0.06 0.04 34.02 -25.98 36.92 0.0 0.0 192.9633 3.9375 0.0 193.7214 2 0 0 0 0
766164 97882 -8.519 -0.002929687 0.05 0.02 35.06 -25.15 36.86 0.0 0.0 193.0505 3.699 0.0 193.6879 2 0 0 0 0
766185 97885 -8.497 -0.004882812 0.06 0.02 35.61 -25.18 36.8 0.0 0.0 192.7942 3.434 0.0 193.616 2 0 0 0 0
766205 97879 -8.504 -0.005371094 0.06 0.02 36.77 -23.9 36.68 0.0 0.0 193.3068 3.2253 0.0 193.6329 2 0 0 0 0
766226 97884 -8.5 -0.004882812 0.06 0.03 37.65 -23.63 36.71 0.0 0.0 192.8787 2.9717 0.0 193.5744 2 0 0 0 0
766246 97878 -8.51 -0.000488281 0.06 0.02 38.69 -23.57 36.49 0.0 0.0 193.394 2.7727 0.0 193.6037 2 0 0 0 0
766267 97879 -8.506 -0.006347656 0.06 0.02 39.45 -23.17 36.31 0.0 0.0 193.3068 2.556 0.0 193.6122 2 0 0 0 0
766287 97881 -8.519 -0.009765625 0.06 0.02 40.43 -22.41 36.16 0.0 0.0 193.135 2.3346 0.0 193.5835 2 0 0 0 0
766308 97882 -8.51 -0.0078125 0.06 0.03 41.34 -21.52 36.22 0.0 0.0 193.0505 2.1 0.0 193.5433 2 0 0 0 0
766328 97882 -8.484 -0.002929687 0.06 0.02 41.92 -21.43 36.01 0.0 0.0 193.0505 1.8772 0.0 193.5028 2 0 0 0 0
766349 97884 -8.504 -0.0078125 0.06 0.03 42.65 -21.01 36.01 0.0 0.0 192.8787 1.6353 0.0 193.4378 2 0 0 0 0
766369 97889 -8.478 -0.000488281 0.07 0.03 43.29 -21.01 35.91 0.0 0.0 192.4507 1.3741 0.0 193.3054 2 0 0 0 0
766390 97884 -8.512 -0.001464844 0.07 0.04 43.9 -20.95 35.88 0.0 0.0 192.8787 1.1504 0.0 193.2628 2 0 0 0 0
766410 97881 -8.489 0.000976562 0.07 0.03 44.39 -21.13 35.7 0.0 0.0 193.135 0.9584 0.0 193.2644 2 0 0 0 0
766431 97885 -8.497 -0.000488281 0.07 0.03 45.06 -21.22 35.37 0.0 0.0 192.7942 0.7298 0.0 193.2058 2 0 0 0 0
766451 97884 -8.499 -0.000976562 0.07 0.02 45.82 -21.37 35.37 0.0 0.0 192.8787 0.5212 0.0 193.1657 2 0 0 0 0
766472 97887 -8.478 -0.00390625 0.07 0.03 46.28 -21.43 35.12 0.0 0.0 192.6224 0.2871 0.0 193.0857 2 0 0 0 0
766492 97886 -8.489 -0.001953125 0.07 0.01 47.13 -21.55 34.88 0.0 0.0 192.707 0.0745 0.0 193.0281 2 0 0 0 0
766513 97884 -8.497 -0.005371094 0.07 0.03 47.65 -21.28 34.66 0.0 0.0 192.8787 -0.1282 0.0 193.0046 2 0 0 0 0
766533 98082 -8.502 -0.442382812 -16.0 -0.77 55.98 -182.77 11.34 0.0 0.0 175.9045 -1.4962 0.0 190.1412 2 0 0 0 0
766554 98006 -8.512 -0.020507812 0.17 0.03 40.24 -194.63 10.76 0.0 0.0 182.4178 -2.114 0.0 188.8171 2 0 0 0 0
766574 97894 -8.502 -0.049804687 0.01 -0.02 49.21 -169.51 0.09 0.0 0.0 192.02 -1.8578 0.0 189.3106 2 0 0 0 0
766595 97891 -8.487 -0.030761718 0.06 -0.02 56.74 -144.48 -9.02 0.0 0.0 192.2789 -1.6204 0.0 189.7685 2 0 0 0 0
766615 97888 -8.489 -0.025878906 0.05 0.03 56.98 -131.71 -14.33 0.0 0.0 192.5352 -1.399 0.0 190.1989 2 0 0 0 0
766636 97895 -8.484 -0.012207032 0.12 0.02 49.73 -117.44 -8.63 0.0 0.0 191.9354 -1.2601 0.0 190.4602 2 0 0 0 0
766656 97894 -8.5 0.009765625 0.29 0.08 50.46 -133.81 -4.21 0.0 0.0 192.02 -1.1353 0.0 190.6959 2 0 0 0 0
766676 97895 -8.5 -0.010253907 0.09 0.1 38.08 -125.79 -2.56 0.0 0.0 191.9354 -1.0361 0.0 190.8806 2 0 0 0 0
766697 97896 -8.5 -0.031738281 0.08 0.1 24.33 -141.65 -7.53 0.0 0.0 191.8482 -0.9587 0.0 191.0208 2 0 0 0 0
766717 97899 -8.493 -0.048828125 0.14 0.07 14.45 -156.34 -14.51 0.0 0.0 191.5919 -0.9131 0.0 191.0972 2 0 0 0 0
766738 97900 -8.504 0.1640625 1.0 0.28 -36.77 -126.34 7.84 0.0 0.0 191.5074 -0.8802 0.0 191.1467 2 0 0 0 0
766758 97903 -8.486 0.093261718 0.81 0.16 -58.41 -115.21 24.94 0.0 0.0 191.2484 -0.8721 0.0 191.1461 2 0 0 0 0
766779 97903 -8.495 0.0 0.16 0.06 -61.95 -122.2 42.8 0.0 0.0 191.2484 -0.8639 0.0 191.1449 2 0 0 0 0
766799 97906 -8.493 -0.011718751 0.12 0.06 -61.74 -100.3 44.51 0.0 0.0 190.9921 -0.8761 0.0 191.1021 2 0 0 0 0
766820 97907 -8.487 0.016601562 0.24 0.13 -67.68 -81.19 45.15 0.0 0.0 190.9049 -0.8919 0.0 191.0507 2 0 0 0 0
766840 97913 -8.506 0.034179687 0.15 0.15 -75.4 -80.85 49.94 0.0 0.0 190.3897 -0.9448 0.0 190.9223 2 0 0 0 0
766861 97916 -8.506 0.036621093 0.14 0.19 -85.58 -75.03 55.34 0.0 0.0 190.1334 -1.0079 0.0 190.7704 2 0 0 0 0
766881 97923 -8.493 0.047363281 0.31 0.23 -94.63 -79.36 58.26 0.0 0.0 189.5336 -1.1068 0.0 190.5433 2 0 0 0 0
766902 97923 -8.5 0.073730468 0.56 0.27 -101.13 -75.03 57.2 0.0 0.0 189.5336 -1.1876 0.0 190.3511 2 0 0 0 0
766922 97918 -8.497 0.064941406 0.6 0.29 -99.57 -68.84 50.49 0.0 0.0 189.9616 -1.2188 0.0 190.2622 2 0 0 0 0
766943 97919 -8.484 0.093261718 0.26 0.3 -86.77 -79.51 54.54 0.0 0.0 189.8771 -1.2496 0.0 190.1721 2 0 0 0 0
766963 97915 -8.471 0.053222656 0.68 0.31 -76.01 -65.37 53.6 0.0 0.0 190.2206 -1.2457 0.0 190.1552 2 0 0 0 0
766984 97899 -8.497 0.01953125 0.87 0.33 -48.08 -38.69 42.2 0.0 0.0 191.5919 -1.1308 0.0 190.3695 2 0 0 0 0
767004 97880 -8.502 -0.364257812 3.4 -0.21 69.48 -8.75 -37.8 0.0 0.0 193.2222 -0.9026 0.0 190.8242 2 0 0 0 0
767025 97865 -8.502 -0.159179687 2.0 0.24 187.99 1.8 -129.39 0.0 0.0 194.509 -0.6078 0.0 191.422 2 0 0 0 0
767045 97886 -8.478 -0.069824218 1.75 0.22 269.66 20.03 -201.86 0.0 0.0 192.707 -0.505 0.0 191.6248 2 0 0 0 0
767066 97929 -8.497 0.138183593 2.35 0.22 321.92 -1.71 -233.26 0.0 0.0 189.0183 -0.7135 0.0 191.1779 2 0 0 0 0
767086 97940 -8.482 0.331542968 4.23 0.34 362.13 -54.6 -245.43 0.0 0.0 188.075 -0.9617 0.0 190.6445 2 0 0 0 0
767107 97951 -8.482 1.767578125 8.88 2.1 345.34 -435.3 -128.38 0.0 0.0 187.1317 -1.2427 0.0 190.0364 2 0 0 0 0
767127 97944 -8.499 0.598144531 4.26 0.86 116.4 -350.52 18.02 0.0 0.0 187.7315 -1.4271 0.0 189.6259 2 0 0 0 0
767148 97941 -8.487 0.53515625 2.36 0.63 -36.77 -264.27 122.01 0.0 0.0 187.9904 -1.558 0.0 189.3222 2 0 0 0 0
767168 97944 -8.491 0.411621093 2.14 0.4 -119.24 -230.15 229.91 0.0 0.0 187.7315 -1.6852 0.0 189.0249 2 0 0 0 0
767188 97941 -8.491 0.291992187 2.09 0.34 -159.45 -202.53 302.96 0.0 0.0 187.9904 -1.768 0.0 188.8181 2 0 0 0 0
767209 97928 -8.493 0.12109375 2.3 0.19 -181.1 -156.89 333.75 0.0 0.0 189.1055 -1.745 0.0 188.8291 2 0 0 0 0
767229 97921 -8.484 -0.08203125 2.96 0.06 -166.28 -82.59 297.47 0.0 0.0 189.7053 -1.6749 0.0 188.9408 2 0 0 0 0
767250 97915 -8.48 -0.067871093 1.94 -0.07 -128.23 51.95 199.15 0.0 0.0 190.2206 -1.5725 0.0 189.1198 2 0 0 0 0
767270 97919 -8.486 0.134277343 0.68 -0.12 -99.54 120.88 131.52 0.0 0.0 189.8771 -1.5119 0.0 189.2151 2 0 0 0 0
767291 97923 -8.476 -0.014160157 0.7 0.18 -75.12 169.73 73.48 0.0 0.0 189.5336 -1.4865 0.0 189.2366 2 0 0 0 0
767311 97912 -8.486 0.043945312 0.88 0.06 -36.28 243.14 -4.91 0.0 0.0 190.4769 -1.3872 0.0 189.4144 2 0 0 0 0
767332 97915 -8.486 0.249511718 0.73 0.06 15.24 270.0 -53.17 0.0 0.0 190.2206 -1.3227 0.0 189.5202 2 0 0 0 0
767352 97940 -8.5 0.2421875 0.75 0.11 68.32 273.45 -77.04 0.0 0.0 188.075 -1.4384 0.0 189.252 2 0 0 0 0
767373 97933 -8.495 0.262207031 0.72 0.17 128.87 254.39 -85.43 0.0 0.0 188.6748 -1.4845 0.0 189.1251 2 0 0 0 0
767393 97933 -8.459 0.256347656 0.81 0.21 176.55 230.12 -77.62 0.0 0.0 188.6748 -1.5206 0.0 189.0201 2 0 0 0 0
767414 97921 -8.474 0.192871093 1.07 0.28 225.91 181.71 -64.33 0.0 0.0 189.7053 -1.4658 0.0 189.1029 2 0 0 0 0
767434 97927 -8.486 0.167480468 1.21 0.36 256.74 121.62 -42.35 0.0 0.0 189.1901 -1.4588 0.0 189.0882 2 0 0 0 0
767455 97932 -8.473 0.137695312 1.33 0.4 267.32 60.21 -15.79 0.0 0.0 188.762 -1.4849 0.0 189.0029 2 0 0 0 0
767475 97935 -8.478 0.122070312 1.33 0.4 262.29 20.64 7.84 0.0 0.0 188.503 -1.5249 0.0 188.8896 2 0 0 0 0
767496 97935 -8.493 0.122558593 1.2 0.34 249.02 7.16 26.8 0.0 0.0 188.503 -1.5558 0.0 188.7929 2 0 0 0 0
767516 97948 -8.48 0.149902343 1.13 0.33 221.86 11.95 47.44 0.0 0.0 187.388 -1.6682 0.0 188.5267 2 0 0 0 0
767537 97951 -8.487 0.120605468 0.95 0.31 183.02 28.93 63.81 0.0 0.0 187.1317 -1.7798 0.0 188.2582 2 0 0 0 0
767557 97962 -8.487 0.105957031 0.8 0.32 137.01 46.34 73.05 0.0 0.0 186.1884 -1.9454 0.0 187.8763 2 0 0 0 0
767578 97964 -8.48 0.100585937 0.79 0.29 88.54 61.1 78.23 0.0 0.0 186.0166 -2.0941 0.0 187.5242 2 0 0 0 0
767598 97965 -8.469 0.109375 0.76 0.3 35.67 82.16 82.71 0.0 0.0 185.9321 -2.2215 0.0 187.2159 2 0 0 0 0
767619 97967 -8.489 0.067871093 0.7 0.29 -19.63 113.78 80.03 0.0 0.0 185.7603 -2.338 0.0 186.9256 2 0 0 0 0
767639 97964 -8.486 0.000976562 0.7 0.25 -74.91 170.76 58.9 0.0 0.0 186.0166 -2.4107 0.0 186.7268 2 0 0 0 0
767660 97963 -8.48 -0.033203125 0.67 0.22 -121.55 246.8 20.18 0.0 0.0 186.1038 -2.4605 0.0 186.5719 2 0 0 0 0
767680 97966 -8.486 -0.038574218 0.68 0.21 -150.24 317.96 -29.51 0.0 0.0 185.8449 -2.5187 0.0 186.4011 2 0 0 0 0
767700 97985 -8.476 -0.104003906 0.76 0.26 -161.83 383.57 -87.56 0.0 0.0 184.2172 -2.6934 0.0 185.9853 2 0 0 0 0
767721 97970 -8.489 -0.18359375 0.8 0.29 -151.55 422.56 -143.54 0.0 0.0 185.504 -2.7319 0.0 185.8482 2 0 0 0 0
767741 97982 -8.484 -0.249511718 0.85 0.31 -118.96 425.43 -185.37 0.0 0.0 184.4735 -2.8419 0.0 185.5636 2 0 0 0 0
767762 97988 -8.478 -0.303222656 0.93 0.3 -70.85 385.85 -220.85 0.0 0.0 183.9609 -2.9701 0.0 185.2357 2 0 0 0 0
767782 97978 -8.478 -0.220214843 1.0 0.27 -5.37 294.45 -238.11 0.0 0.0 184.817 -3.0036 0.0 185.1062 2 0 0 0 0
767803 97957 -8.478 -0.03125 1.02 0.37 57.29 170.3 -233.32 0.0 0.0 186.6191 -2.8825 0.0 185.2964 2 0 0 0 0
767823 97911 -8.463 -0.009765625 0.89 0.42 86.74 36.95 -191.46 0.0 0.0 190.5614 -2.4613 0.0 186.1196 2 0 0 0 0
767844 97973 -8.484 0.104003906 0.83 0.48 96.98 -94.51 -144.7 0.0 0.0 185.2451 -2.5313 0.0 185.9215 2 0 0 0 0
767864 97980 -8.487 -0.150390625 0.87 0.34 112.9 -237.1 -111.68 0.0 0.0 184.6453 -2.6334 0.0 185.6574 2 0 0 0 0
767885 97965 -8.465 -0.076660156 0.76 0.42 131.95 -386.31 -89.05 0.0 0.0 185.9321 -2.6114 0.0 185.648 2 0 0 0 0
767905 97970 -8.473 -0.041992187 0.63 0.5 135.0 -503.9 -68.72 0.0 0.0 185.504 -2.6229 0.0 185.5717 2 0 0 0 0
767926 97989 -8.478 0.04296875 0.67 0.54 137.68 -607.8 -58.14 0.0 0.0 183.8737 -2.7588 0.0 185.2324 2 0 0 0 0
767946 97991 -8.473 -0.015136719 0.7 0.53 142.38 -695.88 -59.51 0.0 0.0 183.702 -2.8812 0.0 184.9212 2 0 0 0 0
767967 98000 -8.463 0.011230469 0.7 0.5 138.54 -749.24 -77.5 0.0 0.0 182.9304 -3.0405 0.0 184.5275 2 0 0 0 0
767987 98001 -8.473 0.018554687 0.73 0.43 129.02 -782.96 -103.75 0.0 0.0 182.8459 -3.175 0.0 184.1853 2 0 0 0 0
768008 98004 -8.484 0.014648438 0.73 0.38 111.95 -799.15 -133.05 0.0 0.0 182.5895 -3.3027 0.0 183.8516 2 0 0 0 0
768028 98006 -8.48 -0.018554687 0.78 0.36 79.02 -804.09 -168.72 0.0 0.0 182.4178 -3.4174 0.0 183.5456 2 0 0 0 0
768049 97998 -8.478 0.0 0.83 0.39 22.96 -805.82 -193.84 0.0 0.0 183.1022 -3.4528 0.0 183.3996 2 0 0 0 0
768069 97986 -8.474 0.003417968 0.89 0.25 -38.2 -817.38 -194.54 0.0 0.0 184.1327 -3.3942 0.0 183.4532 2 0 0 0 0
768090 98002 -8.478 0.012695313 0.93 0.23 -90.09 -833.66 -171.46 0.0 0.0 182.7613 -3.4496 0.0 183.2661 2 0 0 0 0
768110 98013 -8.471 -0.011230469 0.96 0.14 -129.79 -846.98 -130.15 0.0 0.0 181.818 -3.5654 0.0 182.9549 2 0 0 0 0
768131 98025 -8.478 -0.100585937 0.98 0.05 -149.42 -859.02 -79.6 0.0 0.0 180.7901 -3.7386 0.0 182.5177 2 0 0 0 0
768151 98034 -8.467 -0.183105468 0.99 -0.01 -149.85 -865.76 -24.6 0.0 0.0 180.0186 -3.9385 0.0 182.0248 2 0 0 0 0
768172 98044 -8.495 -0.235839843 0.99 -0.02 -132.87 -853.57 23.96 0.0 0.0 179.1598 -4.1677 0.0 181.4625 2 0 0 0 0
768192 98057 -8.489 -0.273925781 1.04 -0.04 -101.92 -811.4 53.05 0.0 0.0 178.0474 -4.4409 0.0 180.8078 2 0 0 0 0
768212 98065 -8.513 -0.273925781 0.99 -0.04 -71.86 -744.6 61.07 0.0 0.0 177.363 -4.7165 0.0 180.1427 2 0 0 0 0
768233 98073 -8.476 -0.260742187 0.95 -0.02 -49.54 -668.2 54.82 0.0 0.0 176.676 -4.9938 0.0 179.4634 2 0 0 0 0
768253 98074 -8.471 -0.26171875 0.88 -0.01 -36.98 -595.67 37.35 0.0 0.0 176.5915 -5.2236 0.0 178.883 2 0 0 0 0
768274 98064 -8.474 -0.254882812 0.89 0.01 -32.9 -528.87 13.81 0.0 0.0 177.4476 -5.3384 0.0 178.5331 2 0 0 0 0
768294 98063 -8.482 -0.253417968 0.92 0.04 -37.47 -463.84 -13.48 0.0 0.0 177.5321 -5.4185 0.0 178.2589 2 0 0 0 0
768315 98059 -8.474 -0.216308593 0.95 0.07 -49.85 -400.43 -42.16 0.0 0.0 177.8757 -5.4492 0.0 178.0809 2 0 0 0 0
768335 98057 -8.474 -0.150878906 1.04 0.12 -65.43 -372.13 -56.92 0.0 0.0 178.0474 -5.4518 0.0 177.9664 2 0 0 0 0
768356 98048 -8.478 -0.102050781 1.04 0.14 -76.04 -380.73 -57.01 0.0 0.0 178.819 -5.3836 0.0 177.9946 2 0 0 0 0
768376 98045 -8.471 -0.14453125 1.04 0.11 -76.74 -402.59 -54.39 0.0 0.0 179.0753 -5.2972 0.0 178.0677 2 0 0 0 0
768397 98047 -8.467 -0.164550781 1.0 0.09 -70.85 -418.23 -53.2 0.0 0.0 178.9035 -5.2303 0.0 178.0964 2 0 0 0 0
768417 98050 -8.476 -0.163574218 0.97 0.1 -61.19 -434.82 -46.83 0.0 0.0 178.6472 -5.1862 0.0 178.0839 2 0 0 0 0
768438 98065 -8.469 -0.159667968 1.04 0.11 -45.37 -450.79 -37.87 0.0 0.0 177.363 -5.2439 0.0 177.8543 2 0 0 0 0
768458 98061 -8.473 -0.140136718 0.96 0.14 -19.12 -445.0 -42.68 0.0 0.0 177.7039 -5.256 0.0 177.7243 2 0 0 0 0
768479 98052 -8.467 -0.069824218 0.9 0.19 11.65 -421.62 -62.5 0.0 0.0 178.4755 -5.1959 0.0 177.7396 2 0 0 0 0
768499 98049 -8.473 -0.040039062 0.91 0.21 40.73 -388.87 -90.0 0.0 0.0 178.7318 -5.1165 0.0 177.8017 2 0 0 0 0
768520 98047 -8.478 -0.034179687 0.87 0.21 57.84 -345.61 -120.46 0.0 0.0 178.9035 -5.0283 0.0 177.8787 2 0 0 0 0
768540 98057 -8.448 -0.071289062 0.95 0.18 73.02 -300.21 -158.6 0.0 0.0 178.0474 -5.0148 0.0 177.8063 2 0 0 0 0
768561 98066 -8.461 -0.119140625 0.98 0.15 88.84 -257.99 -203.63 0.0 0.0 177.2758 -5.0573 0.0 177.6122 2 0 0 0 0
768581 98068 -8.467 -0.033203125 1.09 0.22 99.15 -234.24 -242.5 0.0 0.0 177.1041 -5.0979 0.0 177.4261 2 0 0 0 0
768602 98062 -8.465 0.0390625 1.14 0.3 100.91 -242.93 -265.15 0.0 0.0 177.6193 -5.0825 0.0 177.3514 2 0 0 0 0
768622 98061 -8.473 0.088867187 1.25 0.37 95.61 -272.38 -276.65 0.0 0.0 177.7039 -5.0543 0.0 177.3087 2 0 0 0 0
768643 98057 -8.469 0.119140625 1.17 0.43 81.52 -310.85 -278.81 0.0 0.0 178.0474 -4.9952 0.0 177.3262 2 0 0 0 0
768663 98059 -8.463 0.145996093 1.09 0.48 57.84 -367.47 -266.52 0.0 0.0 177.8757 -4.9512 0.0 177.3182 2 0 0 0 0
768684 98062 -8.45 0.172851562 1.03 0.54 26.04 -437.1 -240.15 0.0 0.0 177.6193 -4.9271 0.0 177.2646 2 0 0 0 0
768704 98069 -8.467 0.109863281 0.96 0.49 -8.32 -499.57 -208.57 0.0 0.0 177.0195 -4.9467 0.0 177.1251 2 0 0 0 0
768724 98067 -8.469 -0.007324219 0.79 0.45 -34.7 -556.4 -175.49 0.0 0.0 177.1913 -4.9414 0.0 177.0372 2 0 0 0 0
768745 98087 -8.467 -0.385742187 0.89 0.39 -50.37 -611.92 -163.75 0.0 0.0 175.4764 -5.0663 0.0 176.6722 2 0 0 0 0
768765 98101 -8.461 -0.225097656 0.91 0.47 -59.66 -675.7 -162.68 0.0 0.0 174.2768 -5.2579 0.0 176.1701 2 0 0 0 0
768786 98079 -8.471 -0.028320312 1.0 0.47 -65.98 -734.27 -153.38 0.0 0.0 176.1634 -5.2585 0.0 176.0586 2 0 0 0 0
768806 98091 -8.452 0.026855468 0.72 0.43 -74.94 -757.65 -138.05 0.0 0.0 175.1356 -5.3323 0.0 175.799 2 0 0 0 0
768827 98088 -8.473 0.108886718 0.64 0.36 -92.13 -741.1 -120.7 0.0 0.0 175.3919 -5.3649 0.0 175.6189 2 0 0 0 0
768847 98101 -8.465 0.112792968 0.84 0.3 -106.95 -702.62 -110.85 0.0 0.0 174.2768 -5.4723 0.0 175.287 2 0 0 0 0
768868 98111 -8.463 0.200195312 0.97 0.06 -113.87 -646.59 -110.88 0.0 0.0 173.4207 -5.6216 0.0 174.8597 2 0 0 0 0
768888 98100 -8.463 0.218261718 1.05 0.02 -116.16 -590.82 -110.67 0.0 0.0 174.364 -5.6612 0.0 174.6644 2 0 0 0 0
