,packetType,timestamp_ms,imu1_accel_x,imu1_accel_y,imu1_accel_z,imu1_gyro_x,imu1_gyro_y,imu1_gyro_z,imu1_mag_x,imu1_mag_y,imu1_mag_z,imu2_accel_x,imu2_accel_y,imu2_accel_z,imu2_gyro_x,imu2_gyro_y,imu2_gyro_z,imu2_mag_x,imu2_mag_y,imu2_mag_z,high_g_accel_x,high_g_accel_y,high_g_accel_z,baro1_temp,baro1_pres,baro2_temp,baro2_pres,gps_lat,gps_long,gps_alt,gps_fix_quality,gps_sats_tracked,gps_hdop,battery_voltage,pyro_cont,trigger_status,heading,vtg,pos_x,pos_y,pos_z,vel_x,vel_y,vel_z,acc_x,acc_y,acc_z,q_x,q_y,q_z,q_w,state,gps_lat_mod,gps_long_mod,imu1_accel_x_real,imu1_accel_y_real,imu1_accel_z_real,imu2_accel_x_real,imu2_accel_y_real,imu2_accel_z_real,imu1_gyro_x_real,imu1_gyro_y_real,imu1_gyro_z_real,imu2_gyro_x_real,imu2_gyro_y_real,imu2_gyro_z_real,imu1_mag_x_real,imu1_mag_y_real,imu1_mag_z_real,imu2_mag_x_real,imu2_mag_y_real,imu2_mag_z_real,imu_accel_x_avg,imu_accel_y_avg,imu_accel_z_avg,imu_gyro_x_avg,imu_gyro_y_avg,imu_gyro_z_avg,imu_mag_x_avg,imu_mag_y_avg,imu_mag_z_avg,high_g_accel_x_real,high_g_accel_y_real,high_g_accel_z_real,baro_pres_avg,baro_temp_avg
8833,0,954039,-1,1317,-45,-19,54,29,-173,-2311,-1534,9,1333,-79,18,13,9,-327,-177,990,-80,-16,304,48.27,0.9933777448803356,52.04,0.9937823834196892,4449.50634765625,-7309.79248046875,37.900001525878906,2,12,0.6100000143051147,12.0308837890625,63,0,0.0,0.0,0.0,0.0,-0.1598253583712771,0.0,0.0,-0.4205552584809023,0.4450650035999999,-0.0287138712,9.511469835,-0.0383227318525314,-0.6881569027900696,-0.0364869646728038,0.7236298322677612,6,44.82510579427083,-73.1632080078125,-0.0071784678,9.4540420926,-0.323031051,0.0646062102,9.5688975774,-0.5670989562000001,-0.023212878968,0.065973445488,0.035430183688,0.021991148496,0.015882496136,0.010995574248,-0.10034,-1.34038,-0.88972,-0.18966,-0.10266,0.5742,0.0287138712,9.511469835,-0.4450650036,-0.0006108652359999994,0.040927970811999996,0.023212878968,-0.145,-0.7215199999999999,-0.15775999999999996,-2.3536,-0.47072,8.94368,0.9935800641500123,50.155
8834,0,954145,-4,1316,-43,-17,55,31,-173,-2311,-1534,10,1328,-77,18,17,7,-292,-163,894,-32,16,416,48.28,0.993219837157661,52.03,0.9936639526276831,4449.50634765625,-7309.79248046875,37.900001525878906,2,12,0.6100000143051147,12.0799560546875,63,0,0.0,0.0,0.0,0.0,-0.1068805581952595,0.0,0.0,-0.3481493847139407,0.4307080679999999,-0.0215354033999999,9.489934431599998,-0.0383193902671337,-0.6881852746009827,-0.0365024209022522,0.7236023545265198,6,44.82510579427083,-73.1632080078125,-0.0287138712,9.4468636248,-0.3086741154,0.071784678,9.533005238400001,-0.5527420206,-0.020769418023999998,0.06719517595999999,0.037873644632,0.021991148496,0.020769418023999998,0.008552113303999999,-0.10034,-1.34038,-0.88972,-0.16936,-0.09454,0.51852,0.0215354034,9.489934431600002,-0.430708068,0.0006108652360000012,0.04398229699199999,0.023212878968,-0.13485,-0.71746,-0.1856,-0.94144,0.47072,12.23872,0.9934418948926721,50.155
8835,0,954250,2,1321,-49,-16,59,31,-154,-2328,-1548,9,1327,-83,19,16,9,-292,-163,894,-16,48,448,48.26,0.9930816679003208,52.02,0.993703429558352,4449.50634765625,-7309.79248046875,37.900001525878906,2,12,0.6100000143051147,12.0635986328125,63,0,0.0,0.0,0.0,0.0,-0.0723726351681638,0.0,0.0,-0.3015409799814699,0.4737788747999999,-0.0394815729,9.5042913672,-0.038278441876173,-0.6881654262542725,-0.0364113561809062,0.7236278653144836,6,44.82510579427083,-73.1632080078125,0.0143569356,9.4827559638,-0.35174492220000003,0.0646062102,9.5258267706,-0.5958128274000001,-0.019547687552,0.072082097848,0.037873644632,0.023212878968,0.019547687552,0.010995574248,-0.08932,-1.35024,-0.89784,-0.16936,-0.09454,0.51852,0.0394815729,9.5042913672,-0.4737788748,0.001832595708,0.0458148927,0.024434609439999998,-0.12934,-0.7223900000000001,-0.18966,-0.47072,1.41216,13.18016,0.9933925487293365,50.14
8836,0,954356,3,1319,-49,-18,59,30,-154,-2328,-1548,13,1327,-83,23,15,9,-295,-183,932,-112,-16,368,48.28,0.993219837157661,52.03,0.9935948679990132,4449.50634765625,-7309.79248046875,37.900001525878906,2,12,0.6100000143051147,12.0799560546875,63,0,0.0,0.0,0.0,0.0,-0.0596593844134626,0.0,0.0,-0.2832017373200651,0.4737788747999999,-0.0574277423999999,9.497112899399998,-0.0382425114512443,-0.6882018446922302,-0.0362751930952072,0.7236020565032959,6,44.82510579427083,-73.1632080078125,0.0215354034,9.4683990282,-0.35174492220000003,0.0933200814,9.5258267706,-0.5958128274000001,-0.021991148496,0.072082097848,0.03665191416,0.028099800855999998,0.01832595708,0.010995574248,-0.08932,-1.35024,-0.89784,-0.1711,-0.10614,0.54056,0.0574277424,9.497112899400001,-0.4737788748,0.003054326179999999,0.045204027464,0.023823744204,-0.13021,-0.72819,-0.17863999999999997,-3.29504,-0.47072,10.82656,0.9934073525783371,50.155
8837,0,954461,4,1315,-55,-19,57,30,-169,-2317,-1574,10,1335,-81,19,14,7,-295,-183,932,-96,64,480,48.27,0.993160621761658,52.04,0.993841598815692,4449.50634765625,-7309.79248046875,37.900001525878906,2,12,0.6100000143051147,12.0799560546875,63,0,0.0,0.0,0.0,0.0,-0.143588255258843,0.0,0.0,-0.3679552715955847,0.4881358103999999,-0.0502492745999999,9.511469835,-0.0382841378450393,-0.6881779432296753,-0.0362500138580799,0.7236238718032837,6,44.82510579427083,-73.1632080078125,0.0287138712,9.439685157,-0.394815729,0.071784678,9.583254513,-0.5814558918,-0.023212878968,0.06963863690399999,0.03665191416,0.023212878968,0.017104226607999998,0.008552113303999999,-0.09802,-1.34386,-0.91292,-0.1711,-0.10614,0.54056,0.050249274600000005,9.511469835,-0.4881358104,0.0,0.043371431755999994,0.022602013732,-0.13456,-0.725,-0.18617999999999996,-2.82432,1.88288,14.1216,0.993501110288675,50.155
8838,0,954566,-3,1317,-35,-20,57,34,-169,-2317,-1574,7,1338,-77,22,15,12,-305,-164,926,-128,-64,336,48.27,0.9932691833209968,52.04,0.9936836910930176,4449.50634765625,-7309.79248046875,38.0,2,12,0.6100000143051147,12.0635986328125,63,0,0.0,0.0,0.0,0.0,-0.0693765544521189,0.0,0.0,-0.2834213701700617,0.4019941968,-0.0143569355999999,9.5294160045,-0.0382719784975051,-0.6882601976394653,-0.0363211818039417,0.7235426902770996,6,44.82510579427083,-73.1632080078125,-0.0215354034,9.4540420926,-0.251246373,0.050249274600000005,9.6047899164,-0.5527420206,-0.024434609439999998,0.06963863690399999,0.041538836047999995,0.026878070384,0.01832595708,0.014660765664,-0.09802,-1.34386,-0.91292,-0.1769,-0.09512,0.53708,0.014356935600000002,9.5294160045,-0.40199419680000004,0.0012217304720000006,0.04398229699199999,0.028099800855999998,-0.13746,-0.7194900000000001,-0.18791999999999998,-3.76576,-1.88288,9.88512,0.9934764372070072,50.155
8839,0,954672,1,1318,-52,-17,53,31,-158,-2336,-1590,9,1328,-92,19,12,5,-305,-164,926,-128,-48,384,48.26,0.992973106340982,52.04,0.9936146064643474,4449.50634765625,-7309.79248046875,38.0,2,12,0.6100000143051147,12.0635986328125,63,0,0.0,0.0,0.0,0.0,0.0393607885269893,0.0,0.0,-0.1708142106122097,0.5168496816,-0.035892339,9.4971128994,-0.038357987999916,-0.6882277131080627,-0.0364020392298698,0.7235649824142456,6,44.82510579427083,-73.1632080078125,0.0071784678,9.461220560400001,-0.3732803256,0.0646062102,9.533005238400001,-0.6604190376,-0.020769418023999998,0.064751715016,0.037873644632,0.023212878968,0.014660765664,0.0061086523599999994,-0.09164,-1.35488,-0.9222,-0.1769,-0.09512,0.53708,0.035892339,9.497112899400001,-0.5168496816,0.0012217304720000006,0.03970624034,0.021991148496,-0.13427,-0.7250000000000001,-0.19256,-3.76576,-1.41216,11.29728,0.9932938564026648,50.15
8840,0,954777,-3,1317,-34,-17,59,29,-158,-2303,-1552,3,1323,-70,16,14,7,-315,-182,876,-64,80,448,48.27,0.9932099679249938,52.05,0.993703429558352,4449.50634765625,-7309.79248046875,38.0,2,12,0.6100000143051147,12.0963134765625,63,0,0.0,0.0,0.0,0.0,0.1162079770597904,0.0,0.0,-0.1025742515230144,0.3732803255999999,0.0,9.475577496,-0.0383652634918689,-0.6882655620574951,-0.036432895809412,0.7235270738601685,6,44.82510579427083,-73.1632080078125,-0.0215354034,9.4540420926,-0.24406790520000002,0.0215354034,9.497112899400001,-0.502492746,-0.020769418023999998,0.072082097848,0.035430183688,0.019547687552,0.017104226607999998,0.008552113303999999,-0.09164,-1.33574,-0.90016,-0.1827,-0.10556,0.50808,0.0,9.475577496,-0.3732803256,-0.0006108652359999994,0.044593162228,0.021991148496,-0.13717000000000001,-0.72065,-0.19604,-1.88288,2.3536,13.18016,0.9934566987416729,50.16
8841,0,954883,0,1318,-54,-19,57,28,-158,-2303,-1552,18,1329,-90,21,10,8,-278,-194,899,-208,64,384,48.27,0.9931507525289908,52.04,0.9937330372563532,4449.50634765625,-7309.79248046875,38.0,2,12,0.6100000143051147,12.0799560546875,63,0,0.0,0.0,0.0,0.0,0.1393529605628519,0.0,0.0,-0.0993270986528318,0.5168496815999999,-0.0646062102,9.5007021333,-0.0312748253345489,-0.687593936920166,-0.0296155493706464,0.7248168587684631,6,44.82510579427083,-73.1632080078125,0.0,9.461220560400001,-0.3876372612,0.1292124204,9.5401837062,-0.646062102,-0.023212878968,0.06963863690399999,0.034208453215999995,0.025656339912,0.012217304719999999,0.009773843776,-0.09164,-1.33574,-0.90016,-0.16124,-0.11252,0.52142,0.0646062102,9.5007021333,-0.5168496816,0.0012217304720000006,0.040927970811999996,0.021991148495999997,-0.12644,-0.7241299999999999,-0.18936999999999998,-6.11936,1.88288,11.29728,0.993441894892672,50.155
8842,0,954988,-7,1320,-46,-21,55,28,-138,-2319,-1571,9,1330,-77,14,18,10,-278,-194,899,-64,-16,384,48.28,0.993160621761658,52.05,0.9938119911176906,4449.50634765625,-7309.79248046875,38.0,2,12,0.6100000143051147,12.0635986328125,63,0,0.0,0.0,0.0,0.0,0.105460221739238,0.0,0.0,-0.1538855352279804,0.4414757697,-0.0071784678,9.511469835,-0.0311939157545566,-0.6875966191291809,-0.0295565128326416,0.7248201966285706,6,44.82510579427083,-73.1632080078125,-0.050249274600000005,9.475577496,-0.3302095188,0.0646062102,9.547362174,-0.5527420206,-0.025656339912,0.06719517595999999,0.034208453215999995,0.017104226607999998,0.021991148496,0.012217304719999999,-0.08004,-1.34502,-0.91118,-0.16124,-0.11252,0.52142,0.007178467799999998,9.511469835,-0.4414757697,-0.004276056652000001,0.044593162228,0.023212878968,-0.12064,-0.72877,-0.19488,-1.88288,-0.47072,11.29728,0.9934863064396743,50.165
8843,0,955094,4,1317,-50,-19,56,28,-138,-2319,-1571,13,1332,-82,18,14,9,-314,-160,937,-176,-16,384,48.28,0.993160621761658,52.04,0.9939008142116952,4449.50634765625,-7309.79248046875,38.0,2,12,0.6100000143051147,12.0635986328125,63,0,0.0,0.0,0.0,0.0,0.1006718621030223,0.0,0.0,-0.1732607470806038,0.4737788747999999,-0.0610169763,9.507880601099998,-0.0312654078006744,-0.6876427531242371,-0.0295496545732021,0.724773645401001,6,44.82510579427083,-73.1632080078125,0.0287138712,9.4540420926,-0.35892339,0.0933200814,9.5617191096,-0.5886343596,-0.023212878968,0.06841690643199999,0.034208453215999995,0.021991148496,0.017104226607999998,0.010995574248,-0.08004,-1.34502,-0.91118,-0.18212,-0.0928,0.54346,0.061016976300000005,9.5078806011,-0.4737788748,-0.0006108652359999994,0.042760566519999994,0.022602013732,-0.13108,-0.71891,-0.18385999999999997,-5.17792,-0.47072,11.29728,0.9935307179866766,50.16
8844,0,955199,-1,1323,-44,-19,58,29,-189,-2316,-1558,8,1332,-85,16,12,10,-314,-160,937,-32,128,464,48.28,0.9930520602023192,52.04,0.9937922526523564,4449.50634765625,-7309.79248046875,38.0,2,12,0.6100000143051147,12.0635986328125,63,0,0.0,0.0,0.0,0.0,0.1792219580758273,0.0,0.0,-0.1038156117119398,0.4630111730999999,-0.0251246373,9.5294160045,-0.031235497444868,-0.6876599788665771,-0.029556568711996,0.7247582674026489,6,44.82510579427083,-73.1632080078125,-0.0071784678,9.497112899400001,-0.31585258320000004,0.0574277424,9.5617191096,-0.610169763,-0.023212878968,0.070860367376,0.035430183688,0.019547687552,0.014660765664,0.012217304719999999,-0.10962,-1.34328,-0.90364,-0.18212,-0.0928,0.54346,0.025124637300000002,9.5294160045,-0.46301117310000006,-0.001832595708,0.04276056652,0.023823744204,-0.14587,-0.71804,-0.18008999999999997,-0.94144,3.76576,13.65088,0.9934221564273378,50.16
8845,0,955305,3,1319,-41,-15,59,31,-189,-2316,-1558,12,1326,-68,20,17,9,-312,-173,937,-208,-80,272,48.28,0.993160621761658,52.04,0.9939008142116952,4449.50634765625,-7309.79248046875,38.0,2,12,0.6100000143051147,12.0799560546875,63,0,0.0,0.0,0.0,0.0,0.1325237904111071,0.0,0.0,-0.171156535423239,0.3912264950999999,-0.0538385085,9.4935236655,-0.03124326094985,-0.6877288818359375,-0.0295570194721221,0.7246925830841064,6,44.82510579427083,-73.1632080078125,0.0215354034,9.4683990282,-0.2943171798,0.0861416136,9.5186483028,-0.48813581040000004,-0.01832595708,0.072082097848,0.037873644632,0.024434609439999998,0.020769418023999998,0.010995574248,-0.10962,-1.34328,-0.90364,-0.18096,-0.10034,0.54346,0.0538385085,9.4935236655,-0.3912264951,0.003054326179999999,0.046425757936,0.024434609439999998,-0.14529,-0.7218100000000001,-0.18008999999999997,-6.11936,-2.3536,8.00224,0.9935307179866766,50.16
8846,0,955410,-5,1315,-49,-19,52,33,-151,-2324,-1579,5,1331,-82,16,14,7,-312,-173,937,-128,-80,384,48.27,0.9932099679249938,52.05,0.993584998766346,4449.50634765625,-7309.79248046875,38.0,2,12,0.6100000143051147,12.0799560546875,63,0,0.0,0.0,0.0,0.0,0.1482834098705283,0.0,0.0,-0.1682593717959269,0.4701896409,0.0,9.4971128994,-0.0311905462294816,-0.6876639723777771,-0.0295680090785026,0.7247559428215027,6,44.82510579427083,-73.1632080078125,-0.035892339,9.439685157,-0.35174492220000003,0.035892339,9.554540641800001,-0.5886343596,-0.023212878968,0.063529984544,0.040317105576,0.019547687552,0.017104226607999998,0.008552113303999999,-0.08758,-1.34792,-0.91582,-0.18096,-0.10034,0.54346,0.0,9.497112899400001,-0.47018964090000004,-0.001832595708,0.040317105576,0.024434609439999998,-0.13427,-0.72413,-0.18617999999999996,-3.76576,-2.3536,11.29728,0.9933974833456699,50.16
8847,0,955515,0,1318,-37,-20,59,29,-151,-2324,-1579,12,1334,-76,20,16,10,-313,-193,843,-160,0,352,48.28,0.9930520602023192,52.04,0.9937922526523564,4449.50634765625,-7309.79248046875,38.0,2,12,0.6100000143051147,12.0799560546875,63,0,0.0,0.0,0.0,0.0,0.0883529196703053,0.0,0.0,-0.2427618444332101,0.4055834306999999,-0.0430708068,9.5186483028,-0.0311880428344011,-0.6876566410064697,-0.0295460410416126,0.7247638702392578,6,44.82510579427083,-73.1632080078125,0.0,9.461220560400001,-0.26560330860000003,0.0861416136,9.5760760452,-0.5455635528,-0.024434609439999998,0.072082097848,0.035430183688,0.024434609439999998,0.019547687552,0.012217304719999999,-0.08758,-1.34792,-0.91582,-0.18154,-0.11194,0.48894,0.0430708068,9.5186483028,-0.4055834307,0.0,0.0458148927,0.023823744204,-0.13456,-0.72993,-0.21344,-4.7072,0.0,10.35584,0.9934221564273378,50.16
8848,0,955621,0,1315,-55,-19,56,28,-165,-2321,-1589,9,1332,-93,21,15,5,-313,-193,843,-176,0,256,48.27,0.993101406365655,52.05,0.9938119911176906,4449.50634765625,-7309.79248046875,38.0,2,12,0.6100000143051147,12.0472412109375,63,0,0.0,0.0,0.0,0.0,0.111369907311553,0.0,0.0,-0.2225919737527594,0.5312066172,-0.0323031051,9.5007021333,-0.0311733111739158,-0.6876066327095032,-0.0294970739632844,0.7248140573501587,6,44.82510579427083,-73.1632080078125,0.0,9.439685157,-0.394815729,0.0646062102,9.5617191096,-0.6675975054000001,-0.023212878968,0.06841690643199999,0.034208453215999995,0.025656339912,0.01832595708,0.0061086523599999994,-0.09570000000000001,-1.34618,-0.92162,-0.18154,-0.11194,0.48894,0.0323031051,9.500702133299999,-0.5312066172000001,0.0012217304720000006,0.043371431755999994,0.020158552788,-0.13862000000000002,-0.7290599999999999,-0.21634,-5.17792,0.0,7.53152,0.9934566987416729,50.16
8849,0,955726,3,1315,-49,-18,56,30,-165,-2321,-1589,7,1333,-86,21,17,10,-313,-155,921,-80,96,464,48.29,0.9932494448556624,52.04,0.9936244756970144,4449.50634765625,-7309.79248046875,38.0,2,12,0.6100000143051147,12.0635986328125,63,0,0.0,0.0,0.0,0.0,0.1323170731690362,0.0,0.0,-0.207227029519188,0.4845465764999999,-0.0358923389999999,9.5042913672,-0.0311861243098974,-0.6876887083053589,-0.029545409604907,0.7247335910797119,6,44.82510579427083,-73.1632080078125,0.0215354034,9.439685157,-0.35174492220000003,0.050249274600000005,9.5688975774,-0.6173482308,-0.021991148496,0.06841690643199999,0.03665191416,0.025656339912,0.020769418023999998,0.012217304719999999,-0.09570000000000001,-1.34618,-0.92162,-0.18154,-0.0899,0.53418,0.035892339,9.5042913672,-0.4845465765,0.001832595708,0.04459316222799999,0.024434609439999998,-0.13862000000000002,-0.71804,-0.19372,-2.3536,2.82432,13.65088,0.9934369602763384,50.165
8850,0,955832,2,1319,-45,-17,58,30,-161,-2305,-1556,7,1327,-79,22,15,10,-313,-155,921,-160,-64,368,48.29,0.9934172218110042,52.04,0.9937330372563532,4449.50634765625,-7309.79248046875,38.0,2,12,0.6100000143051147,12.0799560546875,63,0,0.0,0.0,0.0,0.0,0.1710261029354169,0.0,0.0,-0.1769480494100155,0.4450650035999999,-0.0323031051,9.497112899399998,-0.0312114749103784,-0.6877036690711975,-0.0295605901628732,0.7247177362442017,6,44.82510579427083,-73.1632080078125,0.0143569356,9.4683990282,-0.323031051,0.050249274600000005,9.5258267706,-0.5670989562000001,-0.020769418023999998,0.070860367376,0.03665191416,0.026878070384,0.01832595708,0.012217304719999999,-0.09338,-1.3369,-0.9024800000000001,-0.18154,-0.0899,0.53418,0.0323031051,9.497112899400001,-0.4450650036,0.0030543261800000006,0.044593162228,0.024434609439999998,-0.13746,-0.7134,-0.18415000000000004,-4.7072,-1.88288,10.82656,0.9935751295336788,50.165
8851,0,955937,1,1319,-48,-19,56,30,-161,-2305,-1556,10,1330,-84,16,11,8,-305,-179,920,-128,-80,384,48.28,0.9931704909943252,52.04,0.9935751295336788,4449.50634765625,-7309.79248046875,38.0,2,12,0.6100000143051147,12.0799560546875,63,0,0.0,0.0,0.0,0.0,0.2108952988311541,0.0,0.0,-0.146022532697328,0.4737788747999999,-0.0394815729,9.507880601099998,-0.0240629389882087,-0.6904765963554382,-0.0230001173913478,0.7225884795188904,6,44.82510579427083,-73.1632080078125,0.0071784678,9.4683990282,-0.3445664544,0.071784678,9.547362174,-0.6029912952,-0.023212878968,0.06841690643199999,0.03665191416,0.019547687552,0.013439035192,0.009773843776,-0.09338,-1.3369,-0.9024800000000001,-0.1769,-0.10382,0.5336,0.039481572900000005,9.5078806011,-0.4737788748,-0.001832595708,0.040927970811999996,0.023212878968,-0.13514,-0.72036,-0.18444000000000005,-3.76576,-2.3536,11.29728,0.993372810264002,50.16
8852,0,956043,2,1318,-45,-17,54,29,-154,-2321,-1574,9,1332,-79,21,13,4,-305,-179,920,-80,96,432,48.28,0.9932395756229954,52.04,0.9936244756970144,4449.50634765625,-7309.79248046875,38.0,2,12,0.6100000143051147,12.0799560546875,63,0,0.0,0.0,0.0,0.0,0.252650564272583,0.0,0.0,-0.1154161330617737,0.4450650035999999,-0.0394815729,9.511469835,-0.0241345334798097,-0.6904625296592712,-0.0229464024305343,0.7226012349128723,6,44.82510579427083,-73.1632080078125,0.0143569356,9.461220560400001,-0.323031051,0.0646062102,9.5617191096,-0.5670989562000001,-0.020769418023999998,0.065973445488,0.035430183688,0.025656339912,0.015882496136,0.004886921888,-0.08932,-1.34618,-0.91292,-0.1769,-0.10382,0.5336,0.0394815729,9.511469835,-0.4450650036,0.002443460944000001,0.040927970811999996,0.020158552788000002,-0.13311,-0.725,-0.18966,-2.3536,2.82432,12.70944,0.9934320256600049,50.16
8853,0,956148,2,1318,-48,-20,55,28,-154,-2321,-1574,8,1329,-89,18,15,7,-294,-165,879,-80,-16,384,48.29,0.9931310140636566,52.05,0.993654083395016,4449.50634765625,-7309.79248046875,38.0,2,12,0.6100000143051147,12.0799560546875,63,0,0.0,0.0,0.0,0.0,0.2212239381209449,0.0,0.0,-0.1636480369301603,0.4917250442999999,-0.0358923389999999,9.5007021333,-0.0241178572177886,-0.6903983354568481,-0.0229320488870143,0.7226635813713074,6,44.82510579427083,-73.1632080078125,0.0143569356,9.461220560400001,-0.3445664544,0.0574277424,9.5401837062,-0.6388836342,-0.024434609439999998,0.06719517595999999,0.034208453215999995,0.021991148496,0.01832595708,0.008552113303999999,-0.08932,-1.34618,-0.91292,-0.17052,-0.09570000000000001,0.50982,0.035892339,9.5007021333,-0.4917250443,-0.0012217304719999988,0.042760566519999994,0.021380283259999997,-0.12992,-0.7209399999999999,-0.20154999999999995,-2.3536,-0.47072,11.29728,0.9933925487293362,50.17
8854,0,956254,2,1324,-43,-14,57,29,-156,-2325,-1537,16,1337,-79,19,8,9,-294,-165,879,-48,48,432,48.28,0.9930125832716508,52.04,0.9936244756970144,4449.50634765625,-7309.79248046875,38.0,2,12,0.6100000143051147,12.0635986328125,63,0,0.0,0.0,0.0,0.0,0.2615721840381203,0.0,0.0,-0.1322136489036124,0.4378865357999999,-0.0646062102,9.550951407899998,-0.024174366146326,-0.6904379725456238,-0.0229935310781002,0.7226217985153198,6,44.82510579427083,-73.1632080078125,0.0143569356,9.5042913672,-0.3086741154,0.1148554848,9.5976114486,-0.5670989562000001,-0.017104226607999998,0.06963863690399999,0.035430183688,0.023212878968,0.009773843776,0.010995574248,-0.09048,-1.3485,-0.89146,-0.17052,-0.09570000000000001,0.50982,0.0646062102,9.550951407900001,-0.43788653580000003,0.0030543261800000006,0.03970624034,0.023212878968,-0.1305,-0.7221,-0.19082,-1.41216,1.41216,12.70944,0.9933185294843325,50.16
8855,0,956359,-1,1317,-51,-18,59,33,-156,-2325,-1537,7,1329,-86,21,15,8,-281,-188,944,-64,96,512,48.29,0.9932494448556624,52.04,0.9938514680483592,4449.50634765625,-7309.79248046875,38.0,2,12,0.6100000143051147,12.0635986328125,63,0,0.0,0.0,0.0,0.0,0.1943777665804344,0.0,0.0,-0.2183536588782489,0.4917250442999999,-0.0215354034,9.4971128994,-0.0241448432207107,-0.6904770731925964,-0.0229793563485145,0.722585916519165,6,44.82510579427083,-73.1632080078125,-0.0071784678,9.4540420926,-0.36610185780000004,0.050249274600000005,9.5401837062,-0.6173482308,-0.021991148496,0.072082097848,0.040317105576,0.025656339912,0.01832595708,0.009773843776,-0.09048,-1.3485,-0.89146,-0.16298,-0.10904,0.54752,0.021535403400000003,9.497112899400001,-0.4917250443,0.001832595708,0.045204027464,0.025045474675999997,-0.12673,-0.72877,-0.17197,-1.88288,2.82432,15.06304,0.9935504564520108,50.165
8856,0,956464,3,1313,-39,-15,57,35,-148,-2355,-1588,7,1328,-69,19,16,10,-281,-188,944,-112,96,368,48.28,0.9931803602269924,52.06,0.993772514187022,4449.50634765625,-7309.79248046875,38.0,2,12,0.6100000143051147,12.0799560546875,63,0,0.0,0.0,0.0,0.0,0.2514583856237393,0.0,0.0,-0.1652863961935416,0.3876372611999999,-0.0358923389999999,9.4791667299,-0.0240765307098627,-0.6905539631843567,-0.0230587907135486,0.7225122451782227,6,44.82510579427083,-73.1632080078125,0.0215354034,9.425328221400001,-0.2799602442,0.050249274600000005,9.533005238400001,-0.4953142782,-0.01832595708,0.06963863690399999,0.042760566519999994,0.023212878968,0.019547687552,0.012217304719999999,-0.08584,-1.3659000000000001,-0.92104,-0.16298,-0.10904,0.54752,0.035892339,9.479166729900001,-0.38763726119999997,0.0024434609439999994,0.04459316222799999,0.027488935619999995,-0.12441,-0.7374700000000001,-0.18675999999999998,-3.29504,2.82432,10.82656,0.9934764372070072,50.17
8857,0,956570,-5,1317,-39,-18,56,31,-169,-2336,-1586,7,1327,-83,19,16,12,-319,-158,906,-176,16,320,48.3,0.9932593140883296,52.05,0.9939205526770294,4449.50634765625,-7309.79248046875,38.0,2,12,0.6100000143051147,12.0635986328125,63,0,0.0,0.0,0.0,0.0,0.1180125049532701,0.0,0.0,-0.3154340667493062,0.4378865358,-0.0071784678,9.489934431599998,-0.0239904187619686,-0.6905617117881775,-0.0230243038386106,0.7225087881088257,6,44.82510579427083,-73.1632080078125,-0.035892339,9.4540420926,-0.2799602442,0.050249274600000005,9.5258267706,-0.5958128274000001,-0.021991148496,0.06841690643199999,0.037873644632,0.023212878968,0.019547687552,0.014660765664,-0.09802,-1.35488,-0.91988,-0.18502,-0.09164,0.5254800000000001,0.007178467800000001,9.4899344316,-0.43788653580000003,0.0006108652359999994,0.04398229699199999,0.026267205148,-0.14151999999999998,-0.72326,-0.1972,-5.17792,0.47072,9.4144,0.9935899333826794,50.175
8858,0,956675,-3,1321,-51,-18,52,30,-169,-2336,-1586,7,1324,-77,15,14,8,-319,-158,906,-64,-32,400,48.28,0.993219837157661,52.05,0.993703429558352,4449.50634765625,-7309.79248046875,38.0,2,12,0.6100000143051147,12.0963134765625,63,0,0.0,0.0,0.0,0.0,0.0131277529624333,0.0,0.0,-0.4194577104092554,0.4594219391999999,-0.0143569355999999,9.4935236655,-0.024034135043621,-0.6905486583709717,-0.0230262838304042,0.7225196957588196,6,44.82510579427083,-73.1632080078125,-0.0215354034,9.4827559638,-0.36610185780000004,0.050249274600000005,9.5042913672,-0.5527420206,-0.021991148496,0.063529984544,0.03665191416,0.01832595708,0.017104226607999998,0.009773843776,-0.09802,-1.35488,-0.91988,-0.18502,-0.09164,0.5254800000000001,0.014356935600000002,9.4935236655,-0.4594219392,-0.001832595708,0.040317105576,0.023212878968,-0.14151999999999998,-0.72326,-0.1972,-1.88288,-0.94144,11.768,0.9934616333580065,50.165
8859,0,956781,-1,1319,-50,-16,54,30,-152,-2314,-1601,7,1326,-86,18,11,8,-305,-174,863,-80,96,448,48.28,0.9931704909943252,52.06,0.9936639526276831,4449.50634765625,-7309.79248046875,38.0,2,12,0.6100000143051147,12.0799560546875,63,0,0.0,0.0,0.0,0.0,0.0922723662758554,0.0,0.0,-0.3259319041571274,0.4881358103999999,-0.0215354034,9.4935236655,-0.0241323560476303,-0.6905637979507446,-0.0231037847697734,0.7224994897842407,6,44.82510579427083,-73.1632080078125,-0.0071784678,9.4683990282,-0.35892339,0.050249274600000005,9.5186483028,-0.6173482308,-0.019547687552,0.065973445488,0.03665191416,0.021991148496,0.013439035192,0.009773843776,-0.08816,-1.34212,-0.92858,-0.1769,-0.10092,0.50054,0.021535403400000003,9.4935236655,-0.4881358104,0.0012217304720000006,0.03970624034,0.023212878968,-0.13253,-0.7215199999999999,-0.21402,-2.3536,2.82432,13.18016,0.9934172218110042,50.17
8860,0,956886,-8,1315,-48,-19,56,33,-152,-2314,-1601,10,1327,-83,19,15,9,-305,-174,863,-240,-32,320,48.29,0.9931310140636566,52.05,0.993703429558352,4449.50634765625,-7309.79248046875,38.0,2,12,0.6100000143051147,12.0635986328125,63,0,0.0,0.0,0.0,0.0,0.0759434009625835,0.0,0.0,-0.3380250371472975,0.4701896409,-0.0071784677999999,9.4827559638,-0.027175985276699,-0.6886476874351501,-0.0258679892867803,0.7241247892379761,6,44.82510579427083,-73.1632080078125,-0.0574277424,9.439685157,-0.3445664544,0.071784678,9.5258267706,-0.5958128274000001,-0.023212878968,0.06841690643199999,0.040317105576,0.023212878968,0.01832595708,0.010995574248,-0.08816,-1.34212,-0.92858,-0.1769,-0.10092,0.50054,0.007178467800000001,9.482755963799999,-0.47018964090000004,0.0,0.043371431755999994,0.025656339911999997,-0.13253,-0.7215199999999999,-0.21402,-7.0608,-0.94144,9.4144,0.9934172218110042,50.17
8861,0,956992,0,1322,-45,-18,60,31,-151,-2347,-1608,6,1327,-74,18,13,8,-311,-168,912,-144,64,368,48.29,0.9931408832963236,52.07,0.9937527757216876,4449.50634765625,-7309.79248046875,38.0,2,12,0.6100000143051147,12.0799560546875,63,0,0.0,0.0,0.0,0.0,0.0370713075895266,0.0,0.0,-0.3707922991332704,0.4271188340999999,-0.0215354034,9.507880601099998,-0.0271414332091808,-0.6886310577392578,-0.0259242318570613,0.724139928817749,6,44.82510579427083,-73.1632080078125,0.0,9.4899344316,-0.323031051,0.0430708068,9.5258267706,-0.5312066172000001,-0.021991148496,0.07330382832,0.037873644632,0.021991148496,0.015882496136,0.009773843776,-0.08758,-1.36126,-0.93264,-0.18038,-0.09744,0.52896,0.0215354034,9.5078806011,-0.42711883410000007,0.0,0.044593162228,0.023823744204,-0.13398000000000002,-0.7293499999999999,-0.20184000000000002,-4.23648,1.88288,10.82656,0.9934468295090055,50.18
8862,0,957097,2,1319,-47,-20,58,31,-151,-2347,-1608,8,1329,-86,18,15,9,-311,-168,912,-64,0,416,48.29,0.9931310140636566,52.05,0.9938218603503578,4449.50634765625,-7309.79248046875,38.0,2,12,0.6100000143051147,12.0799560546875,63,0,0.0,0.0,0.0,0.0,0.0601004874784693,0.0,0.0,-0.3383756523722956,0.4773681086999999,-0.0358923389999999,9.5042913672,-0.027079040184617,-0.6885788440704346,-0.0259566083550453,0.7241907715797424,6,44.82510579427083,-73.1632080078125,0.0143569356,9.4683990282,-0.3373879866,0.0574277424,9.5401837062,-0.6173482308,-0.024434609439999998,0.070860367376,0.037873644632,0.021991148496,0.01832595708,0.010995574248,-0.08758,-1.36126,-0.93264,-0.18038,-0.09744,0.52896,0.035892339,9.5042913672,-0.4773681087,-0.0012217304719999988,0.044593162228,0.024434609439999998,-0.13398000000000002,-0.7293499999999999,-0.20184000000000002,-1.88288,0.0,12.23872,0.9934764372070072,50.17
8863,0,957203,-2,1315,-51,-19,59,34,-160,-2337,-1572,9,1327,-81,16,12,6,-311,-165,958,-32,96,432,48.29,0.9931902294596596,52.06,0.9936146064643474,4449.50634765625,-7309.79248046875,38.0,2,12,0.6100000143051147,12.0635986328125,63,0,0.0,0.0,0.0,0.0,0.0762292570801317,0.0,0.0,-0.3159997777667841,0.4737788747999999,-0.0251246373,9.4827559638,-0.0270388796925544,-0.6885390281677246,-0.0259523168206214,0.7242302894592285,6,44.82510579427083,-73.1632080078125,-0.0143569356,9.439685157,-0.36610185780000004,0.0646062102,9.5258267706,-0.5814558918,-0.023212878968,0.072082097848,0.041538836047999995,0.019547687552,0.014660765664,0.007330382832,-0.0928,-1.35546,-0.91176,-0.18038,-0.09570000000000001,0.55564,0.0251246373,9.482755963799999,-0.4737788748,-0.001832595708,0.043371431756,0.024434609439999998,-0.13659,-0.7255800000000001,-0.17806,-0.94144,2.82432,12.70944,0.9934024179620036,50.175
8864,0,957308,1,1318,-49,-18,56,29,-160,-2337,-1572,5,1326,-89,19,18,9,-311,-165,958,-16,16,448,48.29,0.9933086602516654,52.06,0.9938317295830248,4449.50634765625,-7309.79248046875,38.0,2,12,0.6100000143051147,12.0799560546875,63,0,0.0,0.0,0.0,0.0,0.0658969870012166,0.0,0.0,-0.3258579161721654,0.4953142781999999,-0.0215354033999999,9.489934431599998,-0.0270204339176416,-0.68850177526474,-0.0259052608162164,0.7242681384086609,6,44.82510579427083,-73.1632080078125,0.0071784678,9.461220560400001,-0.35174492220000003,0.035892339,9.5186483028,-0.6388836342,-0.021991148496,0.06841690643199999,0.035430183688,0.023212878968,0.021991148496,0.010995574248,-0.0928,-1.35546,-0.91176,-0.18038,-0.09570000000000001,0.55564,0.0215354034,9.489934431600002,-0.49531427820000007,0.0006108652359999994,0.045204027464,0.023212878968,-0.13659,-0.7255800000000001,-0.17806,-0.47072,0.47072,13.18016,0.9935701949173451,50.175
8865,0,957414,5,1317,-41,-17,57,30,-149,-2332,-1545,9,1329,-82,17,16,5,-287,-177,905,-64,0,352,48.3,0.9933185294843326,52.06,0.9936244756970144,4449.50634765625,-7309.79248046875,38.0,2,12,0.6100000143051147,12.0799560546875,63,0,0.0,0.0,0.0,0.0,0.0796394152264144,0.0,0.0,-0.305212859788299,0.4414757697,-0.0502492746,9.4971128994,-0.0270687863230705,-0.6884652376174927,-0.0259341020137071,0.7242999076843262,6,44.82510579427083,-73.1632080078125,0.035892339,9.4540420926,-0.2943171798,0.0646062102,9.5401837062,-0.5886343596,-0.020769418023999998,0.06963863690399999,0.03665191416,0.020769418023999998,0.019547687552,0.0061086523599999994,-0.08642,-1.35256,-0.8961,-0.16646,-0.10266,0.5249,0.050249274600000005,9.497112899400001,-0.4414757697,0.0,0.04459316222799999,0.02138028326,-0.12644,-0.72761,-0.1856,-1.88288,0.0,10.35584,0.9934715025906735,50.18
8866,0,957519,0,1322,-43,-18,56,30,-149,-2332,-1545,7,1328,-78,19,17,8,-287,-177,905,-112,-80,416,48.28,0.9932987910189984,52.06,0.993713298791019,4449.50634765625,-7309.79248046875,38.0,2,12,0.6100000143051147,12.0635986328125,63,0,0.0,0.0,0.0,0.0,-0.0238229057319737,0.0,0.0,-0.409084496045294,0.4342973018999999,-0.0251246373,9.511469835,-0.0269935932010412,-0.6885330677032471,-0.0259268376976251,0.7242385149002075,6,44.82510579427083,-73.1632080078125,0.0,9.4899344316,-0.3086741154,0.050249274600000005,9.533005238400001,-0.5599204884,-0.021991148496,0.06841690643199999,0.03665191416,0.023212878968,0.020769418023999998,0.009773843776,-0.08642,-1.35256,-0.8961,-0.16646,-0.10266,0.5249,0.025124637300000002,9.511469835,-0.4342973019,0.0006108652359999994,0.04459316222799999,0.023212878968,-0.12644,-0.72761,-0.1856,-3.29504,-2.3536,12.23872,0.9935060449050087,50.17
8867,0,957624,-1,1314,-39,-18,59,31,-157,-2311,-1577,11,1332,-77,21,17,9,-299,-186,887,-64,-16,352,48.29,0.9930816679003208,52.06,0.993841598815692,4449.50634765625,-7309.79248046875,38.0,2,12,0.6100000143051147,12.0799560546875,63,0,0.0,0.0,0.0,0.0,-0.1105476245105652,0.0,0.0,-0.4841824623164686,0.4163511324,-0.0358923389999999,9.497112899399998,-0.0269727949053049,-0.6885656118392944,-0.0259420610964298,0.7242078185081482,6,44.82510579427083,-73.1632080078125,-0.0071784678,9.4325066892,-0.2799602442,0.07896314580000001,9.5617191096,-0.5527420206,-0.021991148496,0.072082097848,0.037873644632,0.025656339912,0.020769418023999998,0.010995574248,-0.09106,-1.34038,-0.91466,-0.17342,-0.10788,0.51446,0.035892339,9.497112899400001,-0.4163511324,0.001832595708,0.046425757936,0.024434609439999998,-0.13224,-0.7241299999999999,-0.2001,-1.88288,-0.47072,10.35584,0.9934616333580064,50.175
8868,0,957730,-2,1318,-51,-19,58,29,-157,-2311,-1577,7,1329,-86,16,16,8,-299,-186,887,-128,-48,400,48.29,0.992973106340982,52.07,0.9938514680483592,4449.50634765625,-7309.79248046875,38.0,2,12,0.6100000143051147,12.0799560546875,63,0,0.0,0.0,0.0,0.0,-0.0006049843533799,0.0,0.0,-0.3502811150213266,0.4917250442999999,-0.0179461694999999,9.5007021333,-0.0269894506782293,-0.6885536313056946,-0.0259643867611885,0.7242178320884705,6,44.82510579427083,-73.1632080078125,-0.0143569356,9.461220560400001,-0.36610185780000004,0.050249274600000005,9.5401837062,-0.6173482308,-0.023212878968,0.070860367376,0.035430183688,0.019547687552,0.019547687552,0.009773843776,-0.09106,-1.34038,-0.91466,-0.17342,-0.10788,0.51446,0.0179461695,9.5007021333,-0.4917250443,-0.001832595708,0.045204027464,0.022602013732,-0.13224,-0.7241299999999999,-0.2001,-3.76576,-1.41216,11.768,0.9934122871946707,50.18
8869,0,957835,0,1317,-48,-20,55,29,-182,-2310,-1586,8,1331,-82,20,16,8,-286,-172,909,-64,32,368,48.29,0.9932593140883296,52.05,0.993703429558352,4449.50634765625,-7309.79248046875,38.0,2,12,0.6100000143051147,12.0799560546875,63,0,0.0,0.0,0.0,0.0,-0.0608046720734141,0.0,0.0,-0.4058167152562492,0.466600407,-0.0287138711999999,9.5042913672,-0.0270781107246875,-0.6885188221931458,-0.0259176138788461,0.7242493033409119,6,44.82510579427083,-73.1632080078125,0.0,9.4540420926,-0.3445664544,0.0574277424,9.554540641800001,-0.5886343596,-0.024434609439999998,0.06719517595999999,0.035430183688,0.024434609439999998,0.019547687552,0.009773843776,-0.10556,-1.3398,-0.91988,-0.16588,-0.09976,0.52722,0.0287138712,9.5042913672,-0.466600407,0.0,0.043371431755999994,0.022602013732,-0.13572,-0.7197800000000001,-0.19633,-1.88288,0.94144,10.82656,0.9934813718233408,50.17
8870,0,957941,-3,1314,-48,-18,58,31,-182,-2310,-1586,7,1334,-82,17,15,6,-286,-172,909,-128,64,384,48.3,0.993160621761658,52.06,0.9938810757463608,4449.50634765625,-7309.79248046875,38.0,2,12,0.6100000143051147,12.0308837890625,63,0,0.0,0.0,0.0,0.0,-0.0071317059892984,0.0,0.0,-0.3396853997534718,0.466600407,-0.0143569355999999,9.5042913672,-0.03406697884202,-0.6876398324966431,-0.0323006398975849,0.7245326638221741,6,44.82510579427083,-73.1632080078125,-0.0215354034,9.4325066892,-0.3445664544,0.050249274600000005,9.5760760452,-0.5886343596,-0.021991148496,0.070860367376,0.037873644632,0.020769418023999998,0.01832595708,0.007330382832,-0.10556,-1.3398,-0.91988,-0.16588,-0.09976,0.52722,0.014356935600000002,9.5042913672,-0.466600407,-0.0006108652360000012,0.044593162228,0.022602013732,-0.13572,-0.7197800000000001,-0.19633,-3.76576,1.88288,11.29728,0.9935208487540094,50.18
8871,0,958046,-1,1318,-53,-17,61,29,-171,-2321,-1592,13,1332,-84,19,17,8,-291,-169,865,-112,48,304,48.3,0.9931507525289908,52.07,0.9936836910930176,4449.50634765625,-7309.79248046875,38.0,2,12,0.6100000143051147,12.0635986328125,63,0,0.0,0.0,0.0,0.0,0.0764483304946344,0.0,0.0,-0.2469333047586614,0.4917250442999999,-0.0430708067999999,9.511469835,-0.0340247713029384,-0.6876503229141235,-0.0322686433792114,0.7245261669158936,6,44.82510579427083,-73.1632080078125,-0.0071784678,9.461220560400001,-0.3804587934,0.0933200814,9.5617191096,-0.6029912952,-0.020769418023999998,0.074525558792,0.035430183688,0.023212878968,0.020769418023999998,0.009773843776,-0.09918,-1.34618,-0.92336,-0.16878,-0.09802,0.5017,0.0430708068,9.511469835,-0.4917250443,0.0012217304720000006,0.047647488408,0.022602013732,-0.13398000000000002,-0.7221,-0.21082999999999996,-3.29504,1.41216,8.94368,0.9934172218110042,50.185
8872,0,958152,-4,1311,-47,-19,56,31,-171,-2321,-1592,7,1330,-80,21,16,5,-291,-169,865,-112,112,416,48.29,0.9930224525043178,52.07,0.9936343449296816,4449.50634765625,-7309.79248046875,38.0,2,12,0.6100000143051147,12.0635986328125,63,0,0.0,0.0,0.0,0.0,0.1996348235701966,0.0,0.0,-0.1222362417080309,0.4558327053,-0.0107677017,9.4791667299,-0.0340506993234157,-0.6876512765884399,-0.0323776118457317,0.7245191931724548,6,44.82510579427083,-73.1632080078125,-0.0287138712,9.4109712858,-0.3373879866,0.050249274600000005,9.547362174,-0.574277424,-0.023212878968,0.06841690643199999,0.037873644632,0.025656339912,0.019547687552,0.0061086523599999994,-0.09918,-1.34618,-0.92336,-0.16878,-0.09802,0.5017,0.010767701700000002,9.479166729900001,-0.45583270530000003,0.0012217304720000006,0.04398229699199999,0.021991148496,-0.13398000000000002,-0.7221,-0.21082999999999996,-3.29504,3.29504,12.23872,0.9933283987169996,50.18
8873,0,958257,3,1317,-42,-15,58,31,-174,-2312,-1535,9,1333,-75,19,18,10,-307,-165,906,-192,-48,352,48.28,0.9931211448309892,52.06,0.993772514187022,4449.50634765625,-7309.79248046875,38.0,2,12,0.6100000143051147,12.0635986328125,63,0,0.0,0.0,0.0,0.0,0.2099084981594235,0.0,0.0,-0.128439567031391,0.4199403663,-0.0430708068,9.511469835,-0.0341041423380374,-0.6876773834228516,-0.0323778241872787,0.7244918942451477,6,44.82510579427083,-73.1632080078125,0.0215354034,9.4540420926,-0.3014956476,0.0646062102,9.5688975774,-0.538385085,-0.01832595708,0.070860367376,0.037873644632,0.023212878968,0.021991148496,0.012217304719999999,-0.10092,-1.34096,-0.8903,-0.17806,-0.09570000000000001,0.5254800000000001,0.0430708068,9.511469835,-0.41994036630000003,0.0024434609439999994,0.046425757936,0.025045474675999997,-0.13949,-0.7183299999999999,-0.18240999999999996,-5.64864,-1.41216,10.35584,0.9934468295090055,50.17
8874,0,958363,2,1314,-49,-20,54,28,-149,-2304,-1591,7,1336,-78,17,16,6,-307,-165,906,-176,-64,288,48.29,0.9931310140636566,52.06,0.9936639526276831,4449.50634765625,-7309.79248046875,38.0,2,12,0.6100000143051147,12.0963134765625,63,0,0.0,0.0,0.0,0.0,0.3190940409438799,0.0,0.0,-0.0330406822514675,0.4558327053,-0.0323031051,9.511469835,-0.0342357382178306,-0.6876332759857178,-0.0323887541890144,0.7245270013809204,6,44.82510579427083,-73.1632080078125,0.0143569356,9.4325066892,-0.35174492220000003,0.050249274600000005,9.590432980800001,-0.5599204884,-0.024434609439999998,0.065973445488,0.034208453215999995,0.020769418023999998,0.019547687552,0.007330382832,-0.08642,-1.33632,-0.92278,-0.17806,-0.09570000000000001,0.5254800000000001,0.0323031051,9.511469835,-0.4558327053,-0.001832595708,0.042760566519999994,0.020769418023999998,-0.13224,-0.71601,-0.19865,-5.17792,-1.88288,8.47296,0.9933974833456698,50.175
8875,0,958468,-6,1319,-41,-17,57,32,-149,-2304,-1591,9,1328,-74,20,17,7,-308,-161,887,-176,16,336,48.28,0.9930717986676536,52.06,0.9936047372316802,4449.50634765625,-7309.79248046875,38.0,2,12,0.6100000143051147,12.0635986328125,63,0,0.0,0.0,0.0,0.0,0.313262490386237,0.0,0.0,-0.0648731309998949,0.4127618985,-0.0107677017,9.5007021333,-0.0343601666390895,-0.6875927448272705,-0.0323673598468303,0.7245606184005737,6,44.82510579427083,-73.1632080078125,-0.0430708068,9.4683990282,-0.2943171798,0.0646062102,9.533005238400001,-0.5312066172000001,-0.020769418023999998,0.06963863690399999,0.039095375104,0.024434609439999998,0.020769418023999998,0.008552113303999999,-0.08642,-1.33632,-0.92278,-0.17864,-0.09338,0.51446,0.0107677017,9.5007021333,-0.4127618985,0.001832595708,0.04520402746399999,0.023823744204,-0.13252999999999998,-0.71485,-0.20416,-5.17792,0.47072,9.88512,0.993338267949667,50.17
8876,0,958573,0,1318,-53,-18,55,32,-189,-2321,-1553,7,1329,-85,20,13,9,-308,-161,887,-128,-80,304,48.3,0.9933283987169996,52.07,0.9939698988403652,4449.50634765625,-7309.79248046875,38.0,2,12,0.6100000143051147,12.0635986328125,63,0,0.0,0.0,0.0,0.0,0.2971284791467162,0.0,0.0,-0.1061345798920361,0.4953142781999999,-0.0251246373,9.5007021333,-0.0343882925808429,-0.6875469088554382,-0.0323942564427852,0.7246015667915344,6,44.82510579427083,-73.1632080078125,0.0,9.461220560400001,-0.3804587934,0.050249274600000005,9.5401837062,-0.610169763,-0.021991148496,0.06719517595999999,0.039095375104,0.024434609439999998,0.015882496136,0.010995574248,-0.10962,-1.34618,-0.90074,-0.17864,-0.09338,0.51446,0.025124637300000002,9.5007021333,-0.4953142782,0.0012217304719999988,0.041538836047999995,0.025045474675999997,-0.14412999999999998,-0.71978,-0.19313999999999998,-3.76576,-2.3536,8.94368,0.9936491487786825,50.185
8877,0,958679,-1,1312,-44,-17,58,31,-189,-2321,-1553,9,1330,-83,18,17,11,-304,-180,814,-144,-16,256,48.3,0.9932099679249938,52.06,0.993841598815692,4449.50634765625,-7309.79248046875,38.0,2,12,0.6100000143051147,12.0799560546875,63,0,0.0,0.0,0.0,0.0,0.2519913684608144,0.0,0.0,-0.1700414617825208,0.4558327053,-0.0287138712,9.4827559638,-0.0343394577503204,-0.687567949295044,-0.0324623323976993,0.7245808243751526,6,44.82510579427083,-73.1632080078125,-0.0071784678,9.4181497536,-0.31585258320000004,0.0646062102,9.547362174,-0.5958128274000001,-0.020769418023999998,0.070860367376,0.037873644632,0.021991148496,0.020769418023999998,0.013439035192,-0.10962,-1.34618,-0.90074,-0.17632,-0.1044,0.47212,0.0287138712,9.482755963799999,-0.4558327053000001,0.0006108652360000012,0.0458148927,0.025656339912,-0.14296999999999999,-0.72529,-0.21431,-4.23648,-0.47072,7.53152,0.9935257833703429,50.18
8878,0,958784,-5,1318,-48,-17,58,29,-156,-2298,-1561,9,1322,-88,18,14,11,-304,-180,814,-112,-64,320,48.29,0.9931408832963236,52.07,0.9937429064890204,4449.50634765625,-7309.79248046875,38.0,2,12,0.6100000143051147,12.0472412109375,63,0,0.0,0.0,0.0,0.0,0.1932237946278441,0.0,0.0,-0.2405908442138954,0.4881358104,-0.0143569356,9.475577496,-0.0343596935272216,-0.687609076499939,-0.0325307585299015,0.7245377898216248,6,44.82510579427083,-73.1632080078125,-0.035892339,9.461220560400001,-0.3445664544,0.0646062102,9.4899344316,-0.6317051664000001,-0.020769418023999998,0.070860367376,0.035430183688,0.021991148496,0.017104226607999998,0.013439035192,-0.09048,-1.33284,-0.90538,-0.17632,-0.1044,0.47212,0.014356935599999999,9.475577496,-0.48813581040000004,0.0006108652360000012,0.043982296992,0.02443460944,-0.13340000000000002,-0.71862,-0.21663,-3.29504,-1.88288,9.4144,0.993441894892672,50.18
8879,0,958890,-5,1321,-42,-20,58,28,-156,-2298,-1561,5,1328,-84,17,16,9,-292,-164,860,-80,48,368,48.3,0.993101406365655,52.07,0.9938021218850236,4449.50634765625,-7309.7919921875,38.0,2,12,0.6100000143051147,12.0963134765625,63,0,0.0,0.0,0.0,0.0,0.1727287435448559,0.0,0.0,-0.2681027828808013,0.4522434714,0.0,9.507880601099998,-0.0343712233006954,-0.6876272559165955,-0.0325551703572273,0.724518895149231,6,44.82510579427083,-73.16319986979167,-0.035892339,9.4827559638,-0.3014956476,0.035892339,9.533005238400001,-0.6029912952,-0.024434609439999998,0.070860367376,0.034208453215999995,0.020769418023999998,0.019547687552,0.010995574248,-0.09048,-1.33284,-0.90538,-0.16936,-0.09512,0.4988,0.0,9.507880601100002,-0.45224347140000004,-0.001832595708,0.045204027464,0.022602013732,-0.12992,-0.7139800000000001,-0.20328999999999997,-2.3536,1.41216,10.82656,0.9934517641253393,50.185
8880,0,958995,1,1317,-48,-19,53,29,-157,-2317,-1572,11,1330,-79,19,14,8,-293,-170,922,-80,48,448,48.3,0.993219837157661,52.07,0.9937429064890204,4449.50634765625,-7309.7919921875,38.0,2,12,0.6100000143051147,12.0963134765625,63,0,0.0,0.0,0.0,0.0,0.0902199486283471,0.0,0.0,-0.352987098153008,0.4558327053,-0.0430708068,9.5007021333,-0.0001159043531515,-0.6901025772094727,-9.08932343008928e-05,0.7237115502357483,6,44.82510579427083,-73.16319986979167,0.0071784678,9.4540420926,-0.3445664544,0.07896314580000001,9.547362174,-0.5670989562000001,-0.023212878968,0.064751715016,0.035430183688,0.023212878968,0.017104226607999998,0.009773843776,-0.09106,-1.34386,-0.91176,-0.16994,-0.09860000000000001,0.53476,0.04307080680000001,9.500702133299999,-0.45583270530000003,0.0,0.040927970811999996,0.022602013732,-0.1305,-0.72123,-0.1885,-2.3536,1.41216,13.18016,0.9934813718233407,50.185
8881,0,959101,1,1314,-46,-18,54,31,-157,-2317,-1572,9,1333,-84,15,15,7,-293,-170,922,-96,-16,480,48.31,0.99339748334567,52.07,0.9937527757216876,4449.50634765625,-7309.7919921875,38.0,2,12,0.6100000143051147,12.0799560546875,63,0,0.0,0.0,0.0,0.0,0.0471738688967401,0.0,0.0,-0.391529317419289,0.4666004069999999,-0.035892339,9.5007021333,-0.0001809891255106,-0.6900441646575928,-8.903261186787859e-05,0.7237672805786133,6,44.82510579427083,-73.16319986979167,0.0071784678,9.4325066892,-0.3302095188,0.0646062102,9.5688975774,-0.6029912952,-0.021991148496,0.065973445488,0.037873644632,0.01832595708,0.01832595708,0.008552113303999999,-0.09106,-1.34386,-0.91176,-0.16994,-0.09860000000000001,0.53476,0.035892339,9.500702133299999,-0.46660040700000005,-0.001832595708,0.042149701283999995,0.023212878968,-0.1305,-0.72123,-0.1885,-2.82432,-0.47072,14.1216,0.9935751295336788,50.19
8882,0,959206,0,1316,-42,-17,55,31,-165,-2317,-1548,11,1327,-87,19,16,10,-298,-163,875,-160,0,320,48.31,0.9932889217863312,52.07,0.9936442141623488,4449.50634765625,-7309.79248046875,38.0,2,12,0.6100000143051147,12.0635986328125,63,0,0.0,0.0,0.0,0.0,0.1393877322921432,0.0,0.0,-0.2882967718901627,0.4630111730999999,-0.0394815729,9.4863451977,-0.0001710459328023,-0.6900222897529602,-6.626833783229813e-05,0.7237881422042847,6,44.82510579427083,-73.1632080078125,0.0,9.4468636248,-0.3014956476,0.07896314580000001,9.5258267706,-0.6245266986,-0.020769418023999998,0.06719517595999999,0.037873644632,0.023212878968,0.019547687552,0.012217304719999999,-0.09570000000000001,-1.34386,-0.89784,-0.17284,-0.09454,0.5075,0.039481572900000005,9.4863451977,-0.4630111731,0.0012217304720000006,0.043371431755999994,0.025045474675999997,-0.13427,-0.7192000000000001,-0.19517,-4.7072,0.0,9.4144,0.99346656797434,50.19
8883,0,959312,1,1323,-52,-15,57,29,-165,-2317,-1548,6,1334,-94,17,18,9,-298,-163,875,-48,-16,416,48.31,0.9930520602023192,52.06,0.9935652603010116,4449.50634765625,-7309.79248046875,38.0,2,12,0.6100000143051147,12.0799560546875,63,0,0.0,0.0,0.0,0.0,0.1598482225967321,0.0,0.0,-0.2617757623388987,0.5240281494,-0.0251246373,9.5365944723,-9.109644452109932e-05,-0.6900668144226074,-9.700599912321196e-05,0.7237457036972046,6,44.82510579427083,-73.1632080078125,0.0071784678,9.497112899400001,-0.3732803256,0.0430708068,9.5760760452,-0.6747759732,-0.01832595708,0.06963863690399999,0.035430183688,0.020769418023999998,0.021991148496,0.010995574248,-0.09570000000000001,-1.34386,-0.89784,-0.17284,-0.09454,0.5075,0.0251246373,9.536594472300001,-0.5240281494000001,0.0012217304719999988,0.0458148927,0.023212878968,-0.13427,-0.7192000000000001,-0.19517,-1.41216,-0.47072,12.23872,0.9933086602516654,50.185
8884,0,959417,-1,1319,-45,-20,55,32,-167,-2315,-1587,10,1329,-81,20,17,6,-301,-179,896,-32,64,384,48.3,0.993219837157661,52.06,0.9937922526523564,4449.50634765625,-7309.79248046875,38.0,2,12,0.6100000143051147,12.0472412109375,63,0,0.0,0.0,0.0,0.0,0.1713541260732032,0.0,0.0,-0.252160921831548,0.4522434713999999,-0.0323031050999999,9.5042913672,-5.679206878994592e-05,-0.690088152885437,-0.0001396221778122,0.7237253785133362,6,44.82510579427083,-73.1632080078125,-0.0071784678,9.4683990282,-0.323031051,0.071784678,9.5401837062,-0.5814558918,-0.024434609439999998,0.06719517595999999,0.039095375104,0.024434609439999998,0.020769418023999998,0.007330382832,-0.09686,-1.3427,-0.9204600000000001,-0.17458,-0.10382,0.51968,0.0323031051,9.5042913672,-0.4522434714,0.0,0.04398229699199999,0.023212878968,-0.13572,-0.72326,-0.20039,-0.94144,1.88288,11.29728,0.9935060449050087,50.18
8885,0,959522,-1,1316,-51,-18,56,27,-167,-2315,-1587,8,1326,-85,19,10,11,-301,-179,896,-64,-16,512,48.3,0.9932099679249938,52.07,0.9938514680483592,4449.50634765625,-7309.79248046875,38.0,2,12,0.6100000143051147,12.0308837890625,63,0,0.0,0.0,0.0,0.0,0.0556508078340017,0.0,0.0,-0.3756548901509168,0.4881358104,-0.0251246373,9.4827559638,-0.0001142479668487,-0.690102756023407,-0.000225424329983,0.723711371421814,6,44.82510579427083,-73.1632080078125,-0.0071784678,9.4468636248,-0.36610185780000004,0.0574277424,9.5186483028,-0.610169763,-0.021991148496,0.06841690643199999,0.032986722744,0.023212878968,0.012217304719999999,0.013439035192,-0.09686,-1.3427,-0.9204600000000001,-0.17458,-0.10382,0.51968,0.025124637300000002,9.4827559638,-0.48813581040000004,0.0006108652359999994,0.040317105576,0.023212878968,-0.13572,-0.72326,-0.20039,-1.88288,-0.47072,15.06304,0.9935307179866766,50.185
8886,0,959628,1,1320,-48,-22,55,31,-158,-2308,-1561,7,1323,-75,16,15,4,-311,-171,941,-176,0,384,48.31,0.9931211448309892,52.08,0.9938119911176906,4449.50634765625,-7309.79248046875,38.0,2,12,0.6100000143051147,12.0799560546875,63,0,0.0,0.0,0.0,0.0,0.0240266649783576,0.0,0.0,-0.3962618127455349,0.4414757696999999,-0.0287138711999999,9.4863451977,-0.0002531336795073,-0.6900941133499146,-0.0001926402183016,0.723719596862793,6,44.82510579427083,-73.1632080078125,0.0071784678,9.475577496,-0.3445664544,0.050249274600000005,9.497112899400001,-0.538385085,-0.026878070384,0.06719517595999999,0.037873644632,0.019547687552,0.01832595708,0.004886921888,-0.09164,-1.33864,-0.90538,-0.18038,-0.09918,0.54578,0.0287138712,9.4863451977,-0.4414757697,-0.003665191416,0.042760566519999994,0.02138028326,-0.13601000000000002,-0.71891,-0.17979999999999996,-5.17792,0.0,11.29728,0.99346656797434,50.195
8887,0,959733,1,1321,-54,-22,56,31,-158,-2308,-1561,7,1332,-89,19,14,8,-311,-171,941,-208,0,368,48.3,0.9932099679249938,52.06,0.9937823834196892,4449.50634765625,-7309.79248046875,38.0,2,12,0.6100000143051147,12.0635986328125,63,0,0.0,0.0,0.0,0.0,0.0620194522983127,0.0,0.0,-0.3463335440998406,0.5132604477,-0.0287138711999999,9.5222375367,-0.0003540697798598,-0.6900590062141418,-0.0001996511855395,0.7237530946731567,6,44.82510579427083,-73.1632080078125,0.0071784678,9.4827559638,-0.3876372612,0.050249274600000005,9.5617191096,-0.6388836342,-0.026878070384,0.06841690643199999,0.037873644632,0.023212878968,0.017104226607999998,0.009773843776,-0.09164,-1.33864,-0.90538,-0.18038,-0.09918,0.54578,0.0287138712,9.5222375367,-0.5132604477,-0.001832595708,0.042760566519999994,0.023823744204,-0.13601000000000002,-0.71891,-0.17979999999999996,-6.11936,0.0,10.82656,0.9934961756723415,50.18
8888,0,959839,3,1322,-50,-20,59,30,-180,-2308,-1584,9,1324,-87,18,16,9,-306,-173,885,-192,-112,288,48.3,0.9931507525289908,52.07,0.9938119911176906,4449.50634765625,-7309.7919921875,38.0,2,12,0.6100000143051147,12.0963134765625,63,0,0.0,0.0,0.0,0.0,0.02175346182006,0.0,0.0,-0.3823847465852976,0.4917250442999999,-0.0430708068,9.4971128994,-0.0003471337840892,-0.6900471448898315,-0.0001670934288995,0.7237643599510193,6,44.82510579427083,-73.16319986979167,0.0215354034,9.4899344316,-0.35892339,0.0646062102,9.5042913672,-0.6245266986,-0.024434609439999998,0.072082097848,0.03665191416,0.021991148496,0.019547687552,0.010995574248,-0.1044,-1.33864,-0.91872,-0.17748,-0.10034,0.5133,0.0430708068,9.497112899400001,-0.49172504429999997,-0.0012217304719999988,0.0458148927,0.023823744204,-0.14094,-0.7194900000000001,-0.20271,-5.64864,-3.29504,8.47296,0.9934813718233406,50.185
8889,0,959944,-2,1315,-44,-17,53,32,-180,-2308,-1584,8,1328,-82,17,19,11,-306,-173,885,-32,64,384,48.31,0.993219837157661,52.08,0.9938218603503578,4449.50634765625,-7309.7919921875,38.0,2,12,0.6100000143051147,12.0799560546875,63,0,0.0,0.0,0.0,0.0,0.108918546224255,0.0,0.0,-0.2821482699369729,0.4522434714,-0.0215354034,9.4863451977,-0.0143402637913823,-0.6899794340133667,-0.0137068573385477,0.7235570549964905,6,44.82510579427083,-73.16319986979167,-0.0143569356,9.439685157,-0.31585258320000004,0.0574277424,9.533005238400001,-0.5886343596,-0.020769418023999998,0.064751715016,0.039095375104,0.020769418023999998,0.023212878968,0.013439035192,-0.1044,-1.33864,-0.91872,-0.17748,-0.10034,0.5133,0.0215354034,9.4863451977,-0.4522434714,0.0,0.043982296992,0.026267205148,-0.14094,-0.7194900000000001,-0.20271,-0.94144,1.88288,11.29728,0.9935208487540095,50.195
8890,0,960050,-2,1320,-47,-20,56,31,-171,-2317,-1586,6,1331,-82,16,15,10,-302,-158,921,-96,-32,336,48.31,0.9931112755983222,52.08,0.9938712065136937,4449.50634765625,-7309.7919921875,38.0,2,12,0.6100000143051147,12.0635986328125,63,0,0.0,0.0,0.0,0.0,0.0928328661934957,0.0,0.0,-0.2993946024070864,0.4630111730999999,-0.0143569356,9.5150590689,-0.0143165821209549,-0.6899788975715637,-0.0137336794286966,0.7235575914382935,6,44.82510579427083,-73.16319986979167,-0.0143569356,9.475577496,-0.3373879866,0.0430708068,9.554540641800001,-0.5886343596,-0.024434609439999998,0.06841690643199999,0.037873644632,0.019547687552,0.01832595708,0.012217304719999999,-0.09918,-1.34386,-0.91988,-0.17516,-0.09164,0.53418,0.014356935599999999,9.515059068900001,-0.4630111731,-0.0024434609439999994,0.043371431755999994,0.025045474675999997,-0.13717000000000001,-0.71775,-0.19285000000000002,-2.82432,-0.94144,9.88512,0.993491241056008,50.195
8891,0,960155,-1,1316,-45,-18,58,30,-142,-2306,-1573,5,1325,-81,20,15,7,-302,-158,921,-96,64,416,48.3,0.9931507525289908,52.07,0.9939106834443622,4449.50634765625,-7309.7919921875,38.0,2,12,0.6100000143051147,12.0472412109375,63,0,0.0,0.0,0.0,0.0,0.1823619773320776,0.0,0.0,-0.204135243258592,0.4522434713999999,-0.0143569355999999,9.4791667299,-0.0144245587289333,-0.6899623870849609,-0.01372198946774,0.7235714197158813,6,44.82510579427083,-73.16319986979167,-0.0071784678,9.4468636248,-0.323031051,0.035892339,9.511469835,-0.5814558918,-0.021991148496,0.070860367376,0.03665191416,0.024434609439999998,0.01832595708,0.008552113303999999,-0.08236,-1.33748,-0.91234,-0.17516,-0.09164,0.53418,0.0143569356,9.479166729900001,-0.4522434714,0.0012217304719999988,0.044593162228,0.022602013732,-0.12876,-0.71456,-0.18908000000000003,-2.82432,1.88288,12.23872,0.9935307179866765,50.185
8892,0,960261,2,1322,-50,-19,58,29,-142,-2306,-1573,15,1332,-83,18,15,8,-289,-179,908,-208,48,368,48.31,0.9931112755983222,52.09,0.9936639526276831,4449.50634765625,-7309.7919921875,38.0,2,12,0.6100000143051147,12.0635986328125,63,0,0.0,0.0,0.0,0.0,0.1817151902680353,0.0,0.0,-0.2135101994857397,0.4773681086999999,-0.0610169762999999,9.525826770599998,-0.0145401190966367,-0.6899391412734985,-0.0137620884925127,0.7235905528068542,6,44.82510579427083,-73.16319986979167,0.0143569356,9.4899344316,-0.35892339,0.107677017,9.5617191096,-0.5958128274000001,-0.023212878968,0.070860367376,0.035430183688,0.021991148496,0.01832595708,0.009773843776,-0.08236,-1.33748,-0.91234,-0.16762,-0.10382,0.52664,0.0610169763,9.5258267706,-0.4773681087,-0.0006108652359999994,0.044593162228,0.022602013732,-0.12498999999999999,-0.72065,-0.19285000000000002,-6.11936,1.41216,10.82656,0.9933876141130027,50.2
8893,0,960366,0,1322,-46,-21,55,27,-156,-2303,-1577,6,1329,-83,19,15,8,-289,-179,908,-64,96,448,48.3,0.993219837157661,52.07,0.9938514680483592,4449.50634765625,-7309.7919921875,38.0,2,12,0.6100000143051147,12.0635986328125,63,0,0.0,0.0,0.0,0.0,0.1727322265595097,0.0,0.0,-0.2319745693815678,0.4630111730999999,-0.0215354034,9.5150590689,-0.0146006634458899,-0.6899632811546326,-0.0137669444084167,0.7235661745071411,6,44.82510579427083,-73.16319986979167,0.0,9.4899344316,-0.3302095188,0.0430708068,9.5401837062,-0.5958128274000001,-0.025656339912,0.06719517595999999,0.032986722744,0.023212878968,0.01832595708,0.009773843776,-0.09048,-1.33574,-0.91466,-0.16762,-0.10382,0.52664,0.0215354034,9.515059068900001,-0.46301117310000006,-0.0012217304720000006,0.042760566519999994,0.021380283259999997,-0.12905,-0.71978,-0.19401000000000002,-1.88288,2.82432,13.18016,0.9935356526030101,50.185
8894,0,960471,1,1321,-48,-17,59,30,-156,-2303,-1577,9,1332,-86,20,16,8,-301,-168,869,-112,80,336,48.31,0.9931112755983222,52.08,0.993703429558352,4449.50634765625,-7309.7919921875,38.0,2,12,0.6100000143051147,12.0635986328125,63,0,0.0,0.0,0.0,0.0,0.2310613096030771,0.0,0.0,-0.1784814989211752,0.4809573425999999,-0.035892339,9.5222375367,-0.0146371014416217,-0.6900014281272888,-0.0138369109481573,0.723527729511261,6,44.82510579427083,-73.16319986979167,0.0071784678,9.4827559638,-0.3445664544,0.0646062102,9.5617191096,-0.6173482308,-0.020769418023999998,0.072082097848,0.03665191416,0.024434609439999998,0.019547687552,0.009773843776,-0.09048,-1.33574,-0.91466,-0.17458,-0.09744,0.50402,0.035892339,9.5222375367,-0.4809573426,0.001832595708,0.0458148927,0.023212878968,-0.13253,-0.71659,-0.20532,-3.29504,2.3536,9.88512,0.9934073525783371,50.195
8895,0,960577,-1,1316,-53,-17,54,30,-171,-2343,-1576,8,1329,-79,20,15,8,-301,-168,869,-128,-80,304,48.31,0.9931803602269924,52.08,0.9938218603503578,4449.50634765625,-7309.7919921875,37.900001525878906,2,12,0.6100000143051147,12.0799560546875,63,0,0.0,0.0,0.0,0.0,0.2605985735267994,0.0,0.0,-0.1568707665410293,0.4737788747999999,-0.0251246373,9.4935236655,-0.014664645306766,-0.690062940120697,-0.0139228291809558,0.7234668731689453,6,44.82510579427083,-73.16319986979167,-0.0071784678,9.4468636248,-0.3804587934,0.0574277424,9.5401837062,-0.5670989562000001,-0.020769418023999998,0.065973445488,0.03665191416,0.024434609439999998,0.01832595708,0.009773843776,-0.09918,-1.35894,-0.91408,-0.17458,-0.09744,0.50402,0.025124637300000002,9.4935236655,-0.4737788748,0.001832595708,0.042149701283999995,0.023212878968,-0.13688,-0.72819,-0.20503,-3.76576,-2.3536,8.94368,0.993501110288675,50.195
8896,0,960682,-1,1318,-38,-22,54,29,-171,-2343,-1576,9,1325,-77,21,14,10,-287,-160,904,-128,0,480,48.3,0.993101406365655,52.08,0.9938712065136937,4449.50634765625,-7309.7919921875,37.900001525878906,2,12,0.6100000143051147,12.0799560546875,63,0,0.0,0.0,0.0,0.0,0.3095763901312066,0.0,0.0,-0.1214300559437362,0.4127618985,-0.0287138712,9.4863451977,-0.0147713301703333,-0.6900563836097717,-0.0139855053275823,0.7234696745872498,6,44.82510579427083,-73.16319986979167,-0.0071784678,9.461220560400001,-0.2727817764,0.0646062102,9.511469835,-0.5527420206,-0.026878070384,0.065973445488,0.035430183688,0.025656339912,0.017104226607999998,0.012217304719999999,-0.09918,-1.35894,-0.91408,-0.16646,-0.0928,0.52432,0.0287138712,9.4863451977,-0.4127618985,-0.0006108652359999994,0.041538836047999995,0.023823744204,-0.13282,-0.72587,-0.19488,-3.76576,0.0,14.1216,0.9934863064396744,50.19
8897,0,960788,-2,1320,-49,-18,53,30,-170,-2334,-1553,11,1331,-86,20,15,9,-287,-160,904,-80,96,416,48.31,0.9932889217863312,52.09,0.993841598815692,4449.50634765625,-7309.7919921875,37.900001525878906,2,12,0.6100000143051147,12.0635986328125,63,0,0.0,0.0,0.0,0.0,0.2625114049149994,0.0,0.0,-0.1897850166161034,0.4845465764999999,-0.0323031051,9.5150590689,-0.01483522541821,-0.6900342106819153,-0.0140333324670791,0.7234886288642883,6,44.82510579427083,-73.16319986979167,-0.0143569356,9.475577496,-0.35174492220000003,0.07896314580000001,9.554540641800001,-0.6173482308,-0.021991148496,0.064751715016,0.03665191416,0.024434609439999998,0.01832595708,0.010995574248,-0.09860000000000001,-1.35372,-0.90074,-0.16646,-0.0928,0.52432,0.03230310510000001,9.515059068900001,-0.4845465765,0.0012217304719999988,0.041538836047999995,0.023823744204,-0.13253,-0.72326,-0.18821,-2.3536,2.82432,12.23872,0.9935652603010117,50.2
8898,0,960893,3,1317,-43,-20,53,31,-170,-2334,-1553,11,1329,-79,20,14,10,-289,-174,899,-96,64,416,48.3,0.993160621761658,52.08,0.993703429558352,4449.50634765625,-7309.7919921875,37.79999923706055,2,12,0.6100000143051147,12.0963134765625,63,0,0.0,0.0,0.0,0.0,0.2195697199063498,0.0,0.0,-0.2424827500609988,0.4378865357999999,-0.0502492746,9.4971128994,-0.0149378525093197,-0.6900444030761719,-0.0140471803024411,0.7234765887260437,6,44.82510579427083,-73.16319986979167,0.0215354034,9.4540420926,-0.3086741154,0.07896314580000001,9.5401837062,-0.5670989562000001,-0.024434609439999998,0.064751715016,0.037873644632,0.024434609439999998,0.017104226607999998,0.012217304719999999,-0.09860000000000001,-1.35372,-0.90074,-0.16762,-0.10092,0.52142,0.050249274600000005,9.497112899400001,-0.43788653580000003,0.0,0.040927970811999996,0.025045474675999997,-0.13311,-0.72732,-0.18966,-2.82432,1.88288,12.23872,0.993432025660005,50.19
8899,0,960999,0,1324,-47,-17,55,28,-157,-2318,-1572,8,1329,-78,18,17,11,-289,-174,899,-128,-16,368,48.3,0.993091537132988,52.09,0.9936639526276831,4449.50634765625,-7309.7919921875,37.79999923706055,2,12,0.6100000143051147,12.0635986328125,63,0,0.0,0.0,0.0,0.0,0.2096521561818751,0.0,0.0,-0.2564889838911863,0.4486542375,-0.0287138711999999,9.5222375367,-0.0268174149096012,-0.6883659362792969,-0.025521645322442,0.7244183421134949,6,44.82510579427083,-73.16319986979167,0.0,9.5042913672,-0.3373879866,0.0574277424,9.5401837062,-0.5599204884,-0.020769418023999998,0.06719517595999999,0.034208453215999995,0.021991148496,0.020769418023999998,0.013439035192,-0.09106,-1.34444,-0.91176,-0.16762,-0.10092,0.52142,0.0287138712,9.5222375367,-0.4486542375,0.0006108652360000012,0.04398229699199999,0.023823744204,-0.12934,-0.72268,-0.19517,-3.76576,-0.47072,10.82656,0.9933777448803356,50.195
8900,0,961104,0,1318,-46,-20,60,29,-157,-2318,-1572,8,1329,-84,19,15,13,-297,-154,903,-48,-16,368,48.31,0.9931211448309892,52.08,0.99353565260301,4449.50634765625,-7309.7919921875,37.79999923706055,2,12,0.6100000143051147,12.0635986328125,63,0,0.0,0.0,0.0,0.0,0.1552674642779035,0.0,0.0,-0.311711370444385,0.4666004069999999,-0.0287138711999999,9.5007021333,-0.0267840139567852,-0.6883952021598816,-0.0255435165017843,0.724390983581543,6,44.82510579427083,-73.16319986979167,0.0,9.461220560400001,-0.3302095188,0.0574277424,9.5401837062,-0.6029912952,-0.024434609439999998,0.07330382832,0.035430183688,0.023212878968,0.01832595708,0.015882496136,-0.09106,-1.34444,-0.91176,-0.17226,-0.08932,0.52374,0.0287138712,9.5007021333,-0.46660040700000005,-0.0006108652359999994,0.0458148927,0.025656339912,-0.13166,-0.7168800000000001,-0.19401000000000002,-1.41216,-0.47072,10.82656,0.9933283987169996,50.195
8901,0,961210,-2,1320,-35,-20,55,30,-169,-2309,-1606,6,1333,-69,17,16,8,-297,-154,903,-80,64,304,48.31,0.9932889217863312,52.08,0.993772514187022,4449.50634765625,-7309.7919921875,37.79999923706055,2,12,0.6100000143051147,12.0963134765625,63,0,0.0,0.0,0.0,0.0,0.0602582923111925,0.0,0.0,-0.407279479167425,0.3732803255999999,-0.0143569356,9.5222375367,-0.0267841815948486,-0.6883633732795715,-0.0255699250847101,0.7244202494621277,6,44.82510579427083,-73.16319986979167,-0.0143569356,9.475577496,-0.251246373,0.0430708068,9.5688975774,-0.4953142782,-0.024434609439999998,0.06719517595999999,0.03665191416,0.020769418023999998,0.019547687552,0.009773843776,-0.09802,-1.33922,-0.93148,-0.17226,-0.08932,0.52374,0.014356935599999999,9.5222375367,-0.3732803256,-0.001832595708,0.043371431755999994,0.023212878968,-0.13513999999999998,-0.7142700000000001,-0.20387,-2.3536,1.88288,8.94368,0.9935307179866766,50.195
8902,0,961315,-2,1320,-45,-16,59,28,-169,-2309,-1606,7,1331,-87,13,16,3,-308,-191,897,-144,-16,368,48.31,0.993338267949667,52.09,0.993841598815692,4449.50634765625,-7309.7919921875,37.79999923706055,2,12,0.6100000143051147,12.0635986328125,63,0,0.0,0.0,0.0,0.0,0.0254148624231138,0.0,0.0,-0.431441622468857,0.4737788747999999,-0.0179461694999999,9.5150590689,-0.0268808715045452,-0.6883212327957153,-0.0255811531096696,0.7244563102722168,6,44.82510579427083,-73.16319986979167,-0.0143569356,9.475577496,-0.323031051,0.050249274600000005,9.554540641800001,-0.6245266986,-0.019547687552,0.072082097848,0.034208453215999995,0.015882496136,0.019547687552,0.003665191416,-0.09802,-1.33922,-0.93148,-0.17864,-0.11078,0.5202600000000001,0.0179461695,9.515059068900001,-0.4737788748,-0.001832595708,0.0458148927,0.018936822315999996,-0.13833,-0.7250000000000001,-0.20560999999999996,-4.23648,-0.47072,10.82656,0.9935899333826794,50.2
8903,0,961421,-1,1319,-39,-23,60,29,-166,-2324,-1574,9,1329,-80,20,14,9,-308,-191,897,-112,-16,400,48.3,0.9931507525289908,52.07,0.9937429064890204,4449.50634765625,-7309.7919921875,37.79999923706055,2,12,0.6100000143051147,12.0963134765625,63,0,0.0,0.0,0.0,0.0,-0.0034082041576136,0.0,0.0,-0.4427877672301436,0.4271188340999999,-0.0287138712,9.5042913672,-0.0268806517124176,-0.6882827877998352,-0.0256013441830873,0.7244921326637268,6,44.82510579427083,-73.16319986979167,-0.0071784678,9.4683990282,-0.2799602442,0.0646062102,9.5401837062,-0.574277424,-0.028099800855999998,0.07330382832,0.035430183688,0.024434609439999998,0.017104226607999998,0.010995574248,-0.09628,-1.34792,-0.91292,-0.17864,-0.11078,0.5202600000000001,0.0287138712,9.5042913672,-0.4271188341,-0.001832595708,0.045204027464,0.023212878968,-0.13746,-0.72935,-0.19632999999999995,-3.29504,-0.47072,11.768,0.9934468295090055,50.185
8904,0,961526,2,1321,-49,-17,53,31,-166,-2324,-1574,14,1336,-84,16,14,10,-311,-169,952,-144,48,368,48.32,0.9933678756476684,52.08,0.9938712065136937,4449.50634765625,-7309.79248046875,37.70000076293945,2,12,0.6100000143051147,12.0799560546875,63,0,0.0,0.0,0.0,0.0,-0.0281038684914252,0.0,0.0,-0.4538629640114583,0.4773681086999999,-0.0574277423999999,9.5365944723,-0.0269416738301515,-0.6882985234260559,-0.0256567802280187,0.7244729399681091,6,44.82510579427083,-73.1632080078125,0.0143569356,9.4827559638,-0.35174492220000003,0.10049854920000001,9.590432980800001,-0.6029912952,-0.020769418023999998,0.064751715016,0.037873644632,0.019547687552,0.017104226607999998,0.012217304719999999,-0.09628,-1.34792,-0.91292,-0.18038,-0.09802,0.55216,0.0574277424,9.536594472300001,-0.4773681087,-0.0006108652359999994,0.040927970811999996,0.025045474675999997,-0.13833,-0.72297,-0.18037999999999998,-4.23648,1.41216,10.82656,0.993619541080681,50.2
8905,0,961631,-7,1317,-42,-16,54,30,-157,-2330,-1559,9,1331,-82,17,16,10,-311,-169,952,-64,80,384,48.3,0.993042190969652,52.09,0.9935652603010116,4449.50634765625,-7309.79248046875,37.70000076293945,2,12,0.6100000143051147,12.0799560546875,63,0,0.0,0.0,0.0,0.0,0.0117121185273095,0.0,0.0,-0.3935837955721731,0.4450650036,-0.0071784678,9.5042913672,-0.0269571207463741,-0.6883226633071899,-0.0256937071681022,0.7244482040405273,6,44.82510579427083,-73.1632080078125,-0.050249274600000005,9.4540420926,-0.3014956476,0.0646062102,9.554540641800001,-0.5886343596,-0.019547687552,0.065973445488,0.03665191416,0.020769418023999998,0.019547687552,0.012217304719999999,-0.09106,-1.3514,-0.90422,-0.18038,-0.09802,0.55216,0.007178467799999998,9.5042913672,-0.4450650036,0.0006108652359999994,0.042760566519999994,0.024434609439999998,-0.13572,-0.72471,-0.17603000000000002,-1.88288,2.3536,11.29728,0.9933037256353318,50.195
8906,0,961737,2,1320,-42,-18,52,34,-157,-2330,-1559,8,1324,-81,20,14,10,-301,-161,929,-112,-16,368,48.32,0.9931408832963236,52.09,0.9937231680236862,4449.50634765625,-7309.79248046875,37.70000076293945,2,12,0.6100000143051147,12.0635986328125,63,0,0.0,0.0,0.0,0.0,0.0034958802192141,0.0,0.0,-0.3876056112663019,0.4414757696999999,-0.0358923389999999,9.489934431599998,-0.026972871273756,-0.6883368492126465,-0.025756899267435,0.7244319319725037,6,44.82510579427083,-73.1632080078125,0.0143569356,9.475577496,-0.3014956476,0.0574277424,9.5042913672,-0.5814558918,-0.021991148496,0.063529984544,0.041538836047999995,0.024434609439999998,0.017104226607999998,0.012217304719999999,-0.09106,-1.3514,-0.90422,-0.17458,-0.09338,0.53882,0.035892339,9.4899344316,-0.4414757697,0.0012217304719999988,0.040317105576,0.026878070383999995,-0.13282,-0.72239,-0.18270000000000003,-3.29504,-0.47072,10.82656,0.9934320256600049,50.205
8907,0,961842,0,1319,-44,-19,58,28,-159,-2310,-1561,7,1323,-74,16,12,6,-301,-161,929,-128,-48,384,48.31,0.9930619294349864,52.09,0.9936738218603504,4449.50634765625,-7309.79248046875,37.70000076293945,2,12,0.6100000143051147,12.0635986328125,63,0,0.0,0.0,0.0,0.0,0.0757277006638149,0.0,0.0,-0.2996465382509292,0.4235296001999999,-0.0251246373,9.4827559638,-0.0270510371774435,-0.6883020997047424,-0.0257942713797092,0.7244606018066406,6,44.82510579427083,-73.1632080078125,0.0,9.4683990282,-0.31585258320000004,0.050249274600000005,9.497112899400001,-0.5312066172000001,-0.023212878968,0.070860367376,0.034208453215999995,0.019547687552,0.014660765664,0.007330382832,-0.09222,-1.3398,-0.90538,-0.17458,-0.09338,0.53882,0.025124637300000002,9.4827559638,-0.4235296002000001,-0.001832595708,0.04276056652,0.020769418023999998,-0.13340000000000002,-0.7165900000000001,-0.18328,-3.76576,-1.41216,11.29728,0.9933678756476684,50.2
8908,0,961948,-6,1316,-44,-20,57,26,-151,-2317,-1563,7,1330,-80,20,15,5,-283,-190,849,-64,96,384,48.32,0.9933678756476684,52.09,0.993841598815692,4449.50634765625,-7309.79248046875,37.70000076293945,2,12,0.6100000143051147,12.0635986328125,63,0,0.0,0.0,0.0,0.0,0.0954953320981263,0.0,0.0,-0.2811071352177081,0.4450650035999999,-0.0035892338999999,9.4971128994,-0.0109018785879015,-0.689078688621521,-0.0103275282308459,0.7245309948921204,6,44.82510579427083,-73.1632080078125,-0.0430708068,9.4468636248,-0.31585258320000004,0.050249274600000005,9.547362174,-0.574277424,-0.024434609439999998,0.06963863690399999,0.031764992272,0.024434609439999998,0.01832595708,0.0061086523599999994,-0.08758,-1.34386,-0.90654,-0.16414,-0.1102,0.49242,0.0035892339000000023,9.497112899400001,-0.4450650036,0.0,0.04398229699199999,0.018936822316,-0.12586,-0.7270300000000001,-0.20706,-1.88288,2.82432,11.29728,0.9936047372316802,50.205
8909,0,962053,2,1319,-54,-20,58,30,-151,-2317,-1563,13,1333,-91,20,15,7,-283,-190,849,-48,32,448,48.31,0.9932987910189984,52.09,0.9936639526276831,4449.50634765625,-7309.79248046875,37.70000076293945,2,12,0.6100000143051147,12.0635986328125,63,0,0.0,0.0,0.0,0.0,0.0300935258361704,0.0,0.0,-0.3507041850863305,0.5204389155,-0.0538385084999999,9.5186483028,-0.0108834775164723,-0.6890254616737366,-0.0102710956707596,0.7245826721191406,6,44.82510579427083,-73.1632080078125,0.0143569356,9.4683990282,-0.3876372612,0.0933200814,9.5688975774,-0.6532405698,-0.024434609439999998,0.070860367376,0.03665191416,0.024434609439999998,0.01832595708,0.008552113303999999,-0.08758,-1.34386,-0.90654,-0.16414,-0.1102,0.49242,0.0538385085,9.518648302799999,-0.5204389155,0.0,0.044593162228,0.022602013732,-0.12586,-0.7270300000000001,-0.20706,-1.41216,0.94144,13.18016,0.9934813718233408,50.2
8910,0,962159,4,1317,-41,-19,57,30,-187,-2306,-1560,7,1329,-83,19,15,9,-285,-186,976,-64,96,496,48.32,0.9930816679003208,52.09,0.9936738218603504,4449.50634765625,-7309.79248046875,37.70000076293945,2,12,0.6100000143051147,12.0635986328125,63,0,0.0,0.0,0.0,0.0,0.1164242984352756,0.0,0.0,-0.2537293503294758,0.4450650036,-0.0394815729,9.4971128994,-0.0108358738943934,-0.6890590190887451,-0.010291900485754,0.7245511412620544,6,44.82510579427083,-73.1632080078125,0.0287138712,9.4540420926,-0.2943171798,0.050249274600000005,9.5401837062,-0.5958128274000001,-0.023212878968,0.06963863690399999,0.03665191416,0.023212878968,0.01832595708,0.010995574248,-0.10846,-1.33748,-0.9048,-0.1653,-0.10788,0.56608,0.039481572900000005,9.497112899400001,-0.4450650036,0.0,0.04398229699199999,0.023823744204,-0.13688,-0.72268,-0.16936,-1.88288,2.82432,14.59232,0.9933777448803356,50.205
8911,0,962264,-3,1319,-49,-17,51,30,-187,-2306,-1560,6,1332,-90,23,16,9,-285,-186,976,-144,48,368,48.32,0.9931902294596596,52.08,0.9938218603503578,4449.50634765625,-7309.79248046875,37.59999847412109,2,12,0.6100000143051147,12.0799560546875,63,0,0.0,0.0,0.0,0.0,0.1019297510224056,0.0,0.0,-0.2732493007686304,0.4989035120999999,-0.0107677017,9.515059068899998,-0.0108264656737446,-0.6891186833381653,-0.0103988479822874,0.7244930267333984,6,44.82510579427083,-73.1632080078125,-0.0215354034,9.4683990282,-0.35174492220000003,0.0430708068,9.5617191096,-0.646062102,-0.020769418023999998,0.062308254072,0.03665191416,0.028099800855999998,0.019547687552,0.010995574248,-0.10846,-1.33748,-0.9048,-0.1653,-0.10788,0.56608,0.0107677017,9.515059068900001,-0.49890351210000006,0.003665191416,0.040927970811999996,0.023823744204,-0.13688,-0.72268,-0.16936,-4.23648,1.41216,10.82656,0.9935060449050087,50.2
8912,0,962370,-4,1319,-42,-18,57,28,-160,-2310,-1580,6,1330,-76,15,16,11,-289,-172,901,-128,0,336,48.32,0.9931902294596596,52.09,0.9937922526523564,4449.50634765625,-7309.79248046875,37.59999847412109,2,12,0.6100000143051147,12.0635986328125,63,0,0.0,0.0,0.0,0.0,0.0999737818166693,0.0,0.0,-0.2775704751939086,0.4235296001999999,-0.0071784678,9.507880601099998,-0.0108179440721869,-0.6891782879829407,-0.0104118045419454,0.724436342716217,6,44.82510579427083,-73.1632080078125,-0.0287138712,9.4683990282,-0.3014956476,0.0430708068,9.547362174,-0.5455635528,-0.021991148496,0.06963863690399999,0.034208453215999995,0.01832595708,0.019547687552,0.013439035192,-0.0928,-1.3398,-0.9164,-0.16762,-0.09976,0.52258,0.007178467799999999,9.5078806011,-0.4235296002,-0.001832595708,0.04459316222799999,0.023823744204,-0.13021,-0.7197800000000001,-0.19690999999999997,-3.76576,0.0,9.88512,0.993491241056008,50.205
8913,0,962475,2,1320,-45,-16,53,29,-160,-2310,-1580,9,1341,-87,17,18,10,-289,-172,901,-64,128,368,48.31,0.9930125832716508,52.09,0.9937922526523564,4449.50634765625,-7309.79248046875,37.59999847412109,2,12,0.6100000143051147,12.0635986328125,63,0,0.0,0.0,0.0,0.0,0.0870458354021075,0.0,0.0,-0.2884472094938048,0.4737788747999999,-0.0394815729,9.5509514079,-0.0109254708513617,-0.6891430616378784,-0.0104556195437908,0.7244675159454346,6,44.82510579427083,-73.1632080078125,0.0143569356,9.475577496,-0.323031051,0.0646062102,9.626325319800001,-0.6245266986,-0.019547687552,0.064751715016,0.035430183688,0.020769418023999998,0.021991148496,0.012217304719999999,-0.0928,-1.3398,-0.9164,-0.16762,-0.09976,0.52258,0.0394815729,9.550951407900001,-0.4737788748,0.0006108652359999994,0.043371431756,0.023823744204,-0.13021,-0.7197800000000001,-0.19690999999999997,-1.88288,3.76576,10.82656,0.9934024179620036,50.2
8914,0,962580,4,1319,-49,-20,58,30,-147,-2307,-1646,12,1332,-86,19,15,7,-299,-160,841,-176,-16,304,48.33,0.993219837157661,52.09,0.9936738218603504,4449.50634765625,-7309.7919921875,37.59999847412109,2,12,0.6100000143051147,12.0963134765625,63,0,0.0,0.0,0.0,0.0,0.0669005285059864,0.0,0.0,-0.3090678638175364,0.4845465764999999,-0.0574277423999999,9.515059068899998,-0.0109367137774825,-0.6890960335731506,-0.0104145519435405,0.7245127558708191,6,44.82510579427083,-73.16319986979167,0.0287138712,9.4683990282,-0.35174492220000003,0.0861416136,9.5617191096,-0.6173482308,-0.024434609439999998,0.070860367376,0.03665191416,0.023212878968,0.01832595708,0.008552113303999999,-0.08526,-1.33806,-0.95468,-0.17342,-0.0928,0.48778,0.0574277424,9.515059068900001,-0.4845465765,-0.0006108652359999994,0.044593162228,0.022602013732,-0.12934,-0.71543,-0.23345,-5.17792,-0.47072,8.94368,0.9934468295090058,50.21
8915,0,962686,4,1318,-45,-21,62,30,-147,-2307,-1646,10,1332,-85,18,13,9,-299,-160,841,-144,-16,416,48.31,0.9931310140636566,52.09,0.9937429064890204,4449.50634765625,-7309.7919921875,37.59999847412109,2,12,0.6100000143051147,12.0635986328125,63,0,0.0,0.0,0.0,0.0,0.0630985188104125,0.0,0.0,-0.3109504899916831,0.4666004069999999,-0.0502492745999999,9.511469835,-0.0109600666910409,-0.6890522837638855,-0.0104670999571681,0.7245532870292664,6,44.82510579427083,-73.16319986979167,0.0287138712,9.461220560400001,-0.323031051,0.071784678,9.5617191096,-0.610169763,-0.025656339912,0.075747289264,0.03665191416,0.021991148496,0.015882496136,0.010995574248,-0.08526,-1.33806,-0.95468,-0.17342,-0.0928,0.48778,0.050249274600000005,9.511469835,-0.46660040700000005,-0.001832595708,0.0458148927,0.023823744204,-0.12934,-0.71543,-0.23345,-4.23648,-0.47072,12.23872,0.9934369602763384,50.2
8916,0,962791,-1,1314,-51,-16,54,32,-156,-2304,-1569,7,1327,-80,19,16,10,-302,-185,924,-80,160,368,48.32,0.993032321736985,52.09,0.9935751295336788,4449.50634765625,-7309.7919921875,37.59999847412109,2,12,0.6100000143051147,12.0635986328125,63,0,0.0,0.0,0.0,0.0,0.1308345185282437,0.0,0.0,-0.2372527997035944,0.4701896408999999,-0.0215354034,9.479166729899998,-0.0108909280970692,-0.6890795230865479,-0.0105371419340372,0.7245272994041443,6,44.82510579427083,-73.16319986979167,-0.0071784678,9.4325066892,-0.36610185780000004,0.050249274600000005,9.5258267706,-0.574277424,-0.019547687552,0.065973445488,0.039095375104,0.023212878968,0.019547687552,0.012217304719999999,-0.09048,-1.33632,-0.91002,-0.17516,-0.1073,0.53592,0.021535403400000003,9.479166729900001,-0.47018964090000004,0.001832595708,0.042760566519999994,0.025656339911999997,-0.13282,-0.72181,-0.18705000000000005,-2.3536,4.7072,10.82656,0.9933037256353319,50.205
8917,0,962897,-3,1319,-41,-20,60,33,-156,-2304,-1569,7,1330,-76,16,19,8,-313,-181,988,-160,-96,400,48.33,0.9932099679249938,52.09,0.9937823834196892,4449.50634765625,-7309.7919921875,37.59999847412109,2,12,0.6100000143051147,12.0635986328125,63,0,0.0,0.0,0.0,0.0,0.1777233337361772,0.0,0.0,-0.1942856121634917,0.4199403663,-0.0143569355999999,9.507880601099998,-0.0108859864994883,-0.6891224980354309,-0.0105729280039668,0.7244859933853149,6,44.82510579427083,-73.16319986979167,-0.0215354034,9.4683990282,-0.2943171798,0.050249274600000005,9.547362174,-0.5455635528,-0.024434609439999998,0.07330382832,0.040317105576,0.019547687552,0.023212878968,0.009773843776,-0.09048,-1.33632,-0.91002,-0.18154,-0.10498,0.57304,0.014356935600000002,9.5078806011,-0.4199403663,-0.0024434609439999994,0.048258353643999996,0.025045474675999997,-0.13601000000000002,-0.72065,-0.16849000000000003,-4.7072,-2.82432,11.768,0.9934961756723415,50.21
8918,0,963002,2,1319,-49,-20,59,31,-154,-2288,-1580,7,1330,-82,21,14,11,-313,-181,988,-64,64,448,48.33,0.9931507525289908,52.11,0.9937626449543548,4449.50634765625,-7309.7919921875,37.59999847412109,2,12,0.6100000143051147,12.0635986328125,63,0,0.0,0.0,0.0,0.0,0.2051100327409835,0.0,0.0,-0.1743645165106775,0.4701896409,-0.0323031051,9.507880601099998,-0.0303153209388256,-0.6903846859931946,-0.0290088485926389,0.7222246527671814,6,44.82510579427083,-73.16319986979167,0.0143569356,9.4683990282,-0.35174492220000003,0.050249274600000005,9.547362174,-0.5886343596,-0.024434609439999998,0.072082097848,0.037873644632,0.025656339912,0.017104226607999998,0.013439035192,-0.08932,-1.32704,-0.9164,-0.18154,-0.10498,0.57304,0.0323031051,9.5078806011,-0.47018964090000004,0.0006108652360000012,0.044593162228,0.025656339912,-0.13543,-0.71601,-0.17168,-1.88288,1.88288,13.18016,0.9934566987416729,50.22
8919,0,963108,1,1315,-39,-15,59,31,-154,-2288,-1580,6,1325,-71,20,14,8,-288,-176,920,-80,80,368,48.31,0.9931803602269924,52.1,0.9936935603256848,4449.50634765625,-7309.7919921875,37.59999847412109,2,12,0.6100000143051147,12.0635986328125,63,0,0.0,0.0,0.0,0.0,0.1879613315411182,0.0,0.0,-0.202461001632995,0.3948157289999999,-0.0251246373,9.475577496,-0.0303186625242233,-0.6904375553131104,-0.0289887897670269,0.722174882888794,6,44.82510579427083,-73.16319986979167,0.0071784678,9.439685157,-0.2799602442,0.0430708068,9.511469835,-0.5096712138,-0.01832595708,0.072082097848,0.037873644632,0.024434609439999998,0.017104226607999998,0.009773843776,-0.08932,-1.32704,-0.9164,-0.16704,-0.10208,0.5336,0.0251246373,9.475577496,-0.394815729,0.003054326179999999,0.044593162228,0.023823744204,-0.12818,-0.71456,-0.19140000000000001,-2.3536,2.3536,10.82656,0.9934369602763387,50.205
8920,0,963213,4,1319,-60,-18,58,27,-147,-2319,-1594,9,1333,-90,19,13,6,-288,-176,920,-160,-32,272,48.32,0.9932593140883296,52.09,0.993890944979028,4449.50634765625,-7309.7919921875,37.59999847412109,2,12,0.6100000143051147,12.0963134765625,63,0,0.0,0.0,0.0,0.0,0.1438063464767931,0.0,0.0,-0.2582832241260939,0.5383850849999999,-0.0466600407,9.5186483028,-0.0303349327296018,-0.6904069781303406,-0.0289750769734382,0.7222038507461548,6,44.82510579427083,-73.16319986979167,0.0287138712,9.4683990282,-0.430708068,0.0646062102,9.5688975774,-0.646062102,-0.021991148496,0.070860367376,0.032986722744,0.023212878968,0.015882496136,0.007330382832,-0.08526,-1.34502,-0.92452,-0.16704,-0.10208,0.5336,0.0466600407,9.518648302799999,-0.538385085,0.0006108652359999994,0.043371431756,0.020158552788,-0.12614999999999998,-0.72355,-0.19546000000000002,-4.7072,-0.94144,8.00224,0.9935751295336788,50.205
8921,0,963319,-3,1315,-46,-17,58,29,-147,-2319,-1594,6,1337,-80,17,15,8,-307,-180,908,-64,96,384,48.32,0.9932593140883296,52.09,0.9936836910930176,4449.50634765625,-7309.7919921875,37.59999847412109,2,12,0.6100000143051147,12.0635986328125,63,0,0.0,0.0,0.0,0.0,0.0326233081256233,0.0,0.0,-0.3775398903909912,0.4522434714,-0.0107677017,9.5186483028,-0.0302664842456579,-0.6904297471046448,-0.0289903674274683,0.7221843600273132,6,44.82510579427083,-73.16319986979167,-0.0215354034,9.439685157,-0.3302095188,0.0430708068,9.5976114486,-0.574277424,-0.020769418023999998,0.070860367376,0.035430183688,0.020769418023999998,0.01832595708,0.009773843776,-0.08526,-1.34502,-0.92452,-0.17806,-0.1044,0.52664,0.0107677017,9.518648302799999,-0.4522434714,0.0,0.044593162228,0.022602013732,-0.13166,-0.7247100000000001,-0.19894,-1.88288,2.82432,11.29728,0.9934715025906735,50.205
8922,0,963424,1,1311,-45,-15,55,30,-157,-2323,-1631,12,1326,-76,21,14,9,-307,-180,908,-48,-16,480,48.33,0.9932099679249938,52.08,0.9938810757463608,4449.50634765625,-7309.7919921875,37.59999847412109,2,12,0.6100000143051147,12.0963134765625,63,0,0.0,0.0,0.0,0.0,0.0226687180675744,0.0,0.0,-0.3802091286176081,0.4342973018999999,-0.0466600407,9.4648097943,-0.0302783232182264,-0.6905354857444763,-0.0291071739047765,0.7220781445503235,6,44.82510579427083,-73.16319986979167,0.0071784678,9.4109712858,-0.323031051,0.0861416136,9.5186483028,-0.5455635528,-0.01832595708,0.06719517595999999,0.03665191416,0.025656339912,0.017104226607999998,0.010995574248,-0.09106,-1.34734,-0.94598,-0.17806,-0.1044,0.52664,0.0466600407,9.4648097943,-0.43429730190000004,0.003665191416,0.042149701283999995,0.023823744204,-0.13456,-0.72587,-0.20967000000000002,-1.41216,-0.47072,14.1216,0.9935455218356772,50.205
8923,0,963529,-6,1315,-44,-18,58,28,-157,-2323,-1631,7,1330,-80,18,15,4,-284,-183,882,-160,-80,272,48.33,0.9932691833209968,52.09,0.993841598815692,4449.50634765625,-7309.7919921875,37.59999847412109,2,12,0.6100000143051147,12.0635986328125,63,0,0.0,0.0,0.0,0.0,0.0068932659639506,0.0,0.0,-0.3869731456560716,0.4450650035999999,-0.0035892338999999,9.4935236655,-0.0302528552711009,-0.6905630826950073,-0.0291503593325614,0.7220510244369507,6,44.82510579427083,-73.16319986979167,-0.0430708068,9.439685157,-0.31585258320000004,0.050249274600000005,9.547362174,-0.574277424,-0.021991148496,0.070860367376,0.034208453215999995,0.021991148496,0.01832595708,0.004886921888,-0.09106,-1.34734,-0.94598,-0.16472,-0.10614,0.51156,0.0035892339000000023,9.4935236655,-0.4450650036,0.0,0.044593162228,0.019547687552,-0.12789,-0.7267399999999999,-0.21721000000000001,-4.7072,-2.3536,8.00224,0.9935553910683443,50.21
8924,0,963635,2,1315,-43,-20,57,28,-154,-2329,-1598,10,1330,-80,22,14,8,-284,-183,882,-80,16,480,48.32,0.9933185294843326,52.09,0.9937231680236862,4449.50634765625,-7309.7919921875,37.59999847412109,2,12,0.6100000143051147,12.0963134765625,63,0,0.0,0.0,0.0,0.0,0.035149313191202,0.0,0.0,-0.3474795065769339,0.4414757696999999,-0.0430708067999999,9.4935236655,-0.0302812214940786,-0.6905751824378967,-0.0291637536138296,0.7220377922058105,6,44.82510579427083,-73.16319986979167,0.0143569356,9.439685157,-0.3086741154,0.071784678,9.547362174,-0.574277424,-0.024434609439999998,0.06963863690399999,0.034208453215999995,0.026878070384,0.017104226607999998,0.009773843776,-0.08932,-1.35082,-0.92684,-0.16472,-0.10614,0.51156,0.0430708068,9.4935236655,-0.4414757697,0.0012217304720000006,0.043371431755999994,0.021991148495999997,-0.12702,-0.7284799999999999,-0.20764,-2.3536,0.47072,14.1216,0.9935208487540095,50.205
8925,0,963740,3,1320,-48,-18,56,30,-158,-2329,-1592,7,1326,-83,20,14,6,-288,-196,824,-80,112,416,48.32,0.9932593140883296,52.09,0.9937922526523564,4449.50634765625,-7309.7919921875,37.59999847412109,2,12,0.6100000143051147,12.0963134765625,63,0,0.0,0.0,0.0,0.0,0.0337031603362585,0.0,0.0,-0.3409795025735824,0.4701896409,-0.0358923389999999,9.4971128994,-0.0302924700081348,-0.6905416250228882,-0.0292215179651975,0.7220669984817505,6,44.82510579427083,-73.16319986979167,0.0215354034,9.475577496,-0.3445664544,0.050249274600000005,9.5186483028,-0.5958128274000001,-0.021991148496,0.06841690643199999,0.03665191416,0.024434609439999998,0.017104226607999998,0.007330382832,-0.09164,-1.35082,-0.92336,-0.16704,-0.11368,0.47792,0.035892339,9.497112899400001,-0.47018964090000004,0.0012217304719999988,0.042760566519999994,0.021991148496,-0.12934,-0.73225,-0.22271999999999997,-2.3536,3.29504,12.23872,0.993525783370343,50.205
8926,0,963846,1,1316,-46,-19,58,31,-158,-2329,-1592,8,1332,-92,19,12,8,-288,-196,824,-128,-64,336,48.32,0.9932000986923266,52.1,0.9936343449296816,4449.50634765625,-7309.7919921875,37.59999847412109,2,12,0.6100000143051147,12.0799560546875,63,0,0.0,0.0,0.0,0.0,0.1103123146773983,0.0,0.0,-0.2553870761522804,0.4953142781999999,-0.0323031051,9.5042913672,-0.0302767474204301,-0.6905820965766907,-0.0292412769049406,0.7220282554626465,6,44.82510579427083,-73.16319986979167,0.0071784678,9.4468636248,-0.3302095188,0.0574277424,9.5617191096,-0.6604190376,-0.023212878968,0.070860367376,0.037873644632,0.023212878968,0.014660765664,0.009773843776,-0.09164,-1.35082,-0.92336,-0.16704,-0.11368,0.47792,0.0323031051,9.5042913672,-0.49531427819999996,0.0,0.04276056652,0.023823744204,-0.12934,-0.73225,-0.22271999999999997,-3.76576,-1.88288,9.88512,0.9934172218110041,50.21
8927,0,963951,-3,1315,-46,-18,52,32,-155,-2336,-1590,9,1331,-86,14,15,9,-295,-185,971,-112,96,368,48.33,0.9933777448803356,52.09,0.9937231680236862,4449.50634765625,-7309.7919921875,37.59999847412109,2,12,0.6100000143051147,12.0799560546875,63,0,0.0,0.0,0.0,0.0,0.0500344027124823,0.0,0.0,-0.3215492678230324,0.4737788747999999,-0.0215354034,9.4971128994,-0.0194818526506423,-0.6892136931419373,-0.0185687094926834,0.724058210849762,6,44.82510579427083,-73.16319986979167,-0.0215354034,9.439685157,-0.3302095188,0.0646062102,9.554540641800001,-0.6173482308,-0.021991148496,0.063529984544,0.039095375104,0.017104226607999998,0.01832595708,0.010995574248,-0.0899,-1.35488,-0.9222,-0.1711,-0.1073,0.56318,0.0215354034,9.497112899400001,-0.4737788748,-0.002443460944000001,0.040927970811999996,0.025045474675999997,-0.1305,-0.73109,-0.17951,-3.29504,2.82432,10.82656,0.9935504564520109,50.21
8928,0,964057,-1,1314,-44,-19,56,31,-155,-2336,-1590,9,1319,-77,18,16,11,-295,-185,971,-128,96,432,48.32,0.9932593140883296,52.09,0.9936738218603504,4449.50634765625,-7309.7919921875,37.59999847412109,2,12,0.6100000143051147,12.0635986328125,63,0,0.0,0.0,0.0,0.0,0.1179905041798956,0.0,0.0,-0.2480318234080697,0.4342973019,-0.0287138712,9.4504528587,-0.0194622911512851,-0.6892573833465576,-0.0186231210827827,0.7240157127380371,6,44.82510579427083,-73.16319986979167,-0.0071784678,9.4325066892,-0.31585258320000004,0.0646062102,9.4683990282,-0.5527420206,-0.023212878968,0.06841690643199999,0.037873644632,0.021991148496,0.019547687552,0.013439035192,-0.0899,-1.35488,-0.9222,-0.1711,-0.1073,0.56318,0.0287138712,9.4504528587,-0.43429730190000004,-0.0006108652359999994,0.04398229699199999,0.025656339912,-0.1305,-0.73109,-0.17951,-3.76576,2.82432,12.70944,0.99346656797434,50.205
8929,0,964162,2,1316,-42,-19,58,33,-164,-2301,-1537,8,1328,-87,19,16,5,-291,-199,917,-144,32,432,48.33,0.9933283987169996,52.1,0.9937527757216876,4449.50634765625,-7309.7919921875,37.59999847412109,2,12,0.6100000143051147,12.0963134765625,63,0,0.0,0.0,0.0,0.0,0.1215414622673625,0.0,0.0,-0.2498294020448684,0.4630111730999999,-0.0358923389999999,9.489934431599998,-0.0194536000490188,-0.6892443895339966,-0.0186528358608484,0.7240275144577026,6,44.82510579427083,-73.16319986979167,0.0143569356,9.4468636248,-0.3014956476,0.0574277424,9.533005238400001,-0.6245266986,-0.023212878968,0.070860367376,0.040317105576,0.023212878968,0.019547687552,0.0061086523599999994,-0.09512,-1.33458,-0.89146,-0.16878,-0.11542,0.53186,0.035892339,9.489934431600002,-0.4630111731,0.0,0.045204027464,0.023212878968,-0.13195,-0.7250000000000001,-0.17980000000000002,-4.23648,0.94144,12.70944,0.9935405872193437,50.215
8930,0,964268,-1,1308,-45,-19,54,30,-164,-2301,-1537,10,1330,-87,17,17,7,-291,-199,917,-144,48,448,48.33,0.9933283987169996,52.1,0.9939304219096964,4449.50634765625,-7309.7919921875,37.59999847412109,2,12,0.6100000143051147,12.0799560546875,63,0,0.0,0.0,0.0,0.0,0.1878243909245442,0.0,0.0,-0.1882603344474036,0.4737788747999999,-0.0323031050999999,9.4683990282,-0.0194411389529705,-0.6892446875572205,-0.018646664917469,0.7240277528762817,6,44.82510579427083,-73.16319986979167,-0.0071784678,9.3894358824,-0.323031051,0.071784678,9.547362174,-0.6245266986,-0.023212878968,0.065973445488,0.03665191416,0.020769418023999998,0.020769418023999998,0.008552113303999999,-0.09512,-1.33458,-0.89146,-0.16878,-0.11542,0.53186,0.0323031051,9.4683990282,-0.4737788748,-0.0012217304720000006,0.043371431755999994,0.022602013732,-0.13195,-0.7250000000000001,-0.17980000000000002,-4.23648,1.41216,13.18016,0.9936294103133481,50.215
8931,0,964373,2,1317,-41,-16,57,31,-161,-2321,-1575,10,1327,-83,19,15,8,-298,-172,881,-144,16,368,48.34,0.993348137182334,52.1,0.9938712065136937,4449.50634765625,-7309.7919921875,37.59999847412109,2,12,0.6100000143051147,12.0635986328125,63,0,0.0,0.0,0.0,0.0,0.1844482934020297,0.0,0.0,-0.2029565484247292,0.4450650036,-0.0430708067999999,9.489934431599998,-0.0193637367337942,-0.6892765760421753,-0.0186024382710456,0.7240006327629089,6,44.82510579427083,-73.16319986979167,0.0143569356,9.4540420926,-0.2943171798,0.071784678,9.5258267706,-0.5958128274000001,-0.019547687552,0.06963863690399999,0.037873644632,0.023212878968,0.01832595708,0.009773843776,-0.09338,-1.34618,-0.9135,-0.17284,-0.09976,0.51098,0.0430708068,9.4899344316,-0.4450650036,0.001832595708,0.04398229699199999,0.023823744204,-0.13311,-0.72297,-0.20126,-4.23648,0.47072,10.82656,0.9936096718480139,50.22
8932,0,964478,-1,1316,-48,-18,58,32,-161,-2321,-1575,9,1335,-84,18,16,10,-298,-172,881,-96,-32,352,48.33,0.993279052553664,52.1,0.993703429558352,4449.50634765625,-7309.7919921875,37.59999847412109,2,12,0.6100000143051147,12.0635986328125,63,0,0.0,0.0,0.0,0.0,0.1879243632175319,0.0,0.0,-0.2081947801872204,0.4737788747999999,-0.0287138712,9.5150590689,-0.0193182118237018,-0.689281165599823,-0.0186974108219146,0.7239950299263,6,44.82510579427083,-73.16319986979167,-0.0071784678,9.4468636248,-0.3445664544,0.0646062102,9.583254513,-0.6029912952,-0.021991148496,0.070860367376,0.039095375104,0.021991148496,0.019547687552,0.012217304719999999,-0.09338,-1.34618,-0.9135,-0.17284,-0.09976,0.51098,0.0287138712,9.515059068900001,-0.4737788748,0.0,0.045204027464,0.025656339911999997,-0.13311,-0.72297,-0.20126,-2.82432,-0.94144,10.35584,0.993491241056008,50.215
8933,0,964584,-2,1317,-47,-17,60,34,-148,-2339,-1588,11,1329,-80,23,13,10,-317,-193,870,-208,-80,288,48.33,0.993160621761658,52.1,0.9937527757216876,4449.50634765625,-7309.7919921875,37.5,2,12,0.6100000143051147,12.0799560546875,63,0,0.0,0.0,0.0,0.0,0.1463002890318493,0.0,0.0,-0.2595352600328448,0.4558327053,-0.0323031051,9.4971128994,-0.0192177835851907,-0.6893568634986877,-0.0187238957732915,0.7239249348640442,6,44.82510579427083,-73.16319986979167,-0.0143569356,9.4540420926,-0.3373879866,0.07896314580000001,9.5401837062,-0.574277424,-0.020769418023999998,0.07330382832,0.041538836047999995,0.028099800855999998,0.015882496136,0.012217304719999999,-0.08584,-1.35662,-0.92104,-0.18386,-0.11194,0.5046,0.03230310510000001,9.497112899400001,-0.45583270530000003,0.003665191416,0.044593162228,0.026878070383999995,-0.13485,-0.7342799999999999,-0.20821999999999996,-6.11936,-2.3536,8.47296,0.9934566987416729,50.215
8934,0,964689,-6,1319,-44,-17,54,32,-148,-2339,-1588,4,1332,-83,19,15,10,-317,-193,870,-96,-16,480,48.33,0.993160621761658,52.1,0.9939304219096964,4449.50634765625,-7309.7919921875,37.5,2,12,0.6100000143051147,12.0635986328125,63,0,0.0,0.0,0.0,0.0,0.0791170835776542,0.0,0.0,-0.3337858636339309,0.4558327053,0.0071784678,9.515059068899998,-0.0191506240516901,-0.6894482970237732,-0.0187685694545507,0.7238385081291199,6,44.82510579427083,-73.16319986979167,-0.0430708068,9.4683990282,-0.31585258320000004,0.0287138712,9.5617191096,-0.5958128274000001,-0.020769418023999998,0.065973445488,0.039095375104,0.023212878968,0.01832595708,0.012217304719999999,-0.08584,-1.35662,-0.92104,-0.18386,-0.11194,0.5046,-0.007178467799999999,9.515059068900001,-0.4558327053000001,0.0012217304720000006,0.042149701283999995,0.025656339911999997,-0.13485,-0.7342799999999999,-0.20821999999999996,-2.82432,-0.47072,14.1216,0.9935455218356772,50.215
8935,0,964795,0,1320,-45,-16,55,29,-157,-2334,-1579,14,1332,-87,17,16,8,-304,-166,903,-48,64,464,48.34,0.9932889217863312,52.09,0.9939106834443622,4449.50634765625,-7309.7919921875,37.5,2,12,0.6100000143051147,12.0635986328125,63,0,0.0,0.0,0.0,0.0,-0.0159958529153195,0.0,0.0,-0.4285986537238021,0.4737788747999999,-0.0502492746,9.5186483028,-0.0191881768405437,-0.6894639134407043,-0.0188028551638126,0.7238216996192932,6,44.82510579427083,-73.16319986979167,0.0,9.475577496,-0.323031051,0.10049854920000001,9.5617191096,-0.6245266986,-0.019547687552,0.06719517595999999,0.035430183688,0.020769418023999998,0.019547687552,0.009773843776,-0.09106,-1.35372,-0.91582,-0.17632,-0.09628,0.52374,0.050249274600000005,9.518648302799999,-0.4737788748,0.0006108652359999994,0.043371431755999994,0.022602013732,-0.13369,-0.725,-0.19604,-1.41216,1.88288,13.65088,0.9935998026153467,50.215
8936,0,964900,3,1319,-45,-21,61,29,-157,-2334,-1579,9,1325,-82,18,16,7,-304,-166,903,-160,-16,368,48.33,0.9933283987169996,52.1,0.993703429558352,4449.50634765625,-7309.7919921875,37.5,2,12,0.6100000143051147,12.0635986328125,63,0,0.0,0.0,0.0,0.0,-0.0435413737859831,0.0,0.0,-0.4404888491350492,0.4558327053,-0.0430708068,9.489934431599998,-0.0191387291997671,-0.689481794834137,-0.0187226440757513,0.7238081097602844,6,44.82510579427083,-73.16319986979167,0.0215354034,9.4683990282,-0.323031051,0.0646062102,9.511469835,-0.5886343596,-0.025656339912,0.074525558792,0.035430183688,0.021991148496,0.019547687552,0.008552113303999999,-0.09106,-1.35372,-0.91582,-0.17632,-0.09628,0.52374,0.0430708068,9.4899344316,-0.4558327053,-0.001832595708,0.047036623172,0.021991148496,-0.13369,-0.725,-0.19604,-4.7072,-0.47072,10.82656,0.9935159141376758,50.215
8937,0,965006,1,1318,-48,-19,55,32,-150,-2338,-1577,14,1339,-86,15,16,10,-290,-162,893,-160,48,432,48.33,0.9931112755983222,52.11,0.9937626449543548,4449.50634765625,-7309.7919921875,37.5,2,12,0.6100000143051147,12.0635986328125,63,0,0.0,0.0,0.0,0.0,0.0170402649692544,0.0,0.0,-0.3632663727472496,0.4809573425999999,-0.0538385085,9.5365944723,-0.0359696224331855,-0.6899479031562805,-0.0344628393650054,0.7221429347991943,6,44.82510579427083,-73.16319986979167,0.0071784678,9.461220560400001,-0.3445664544,0.10049854920000001,9.6119683842,-0.6173482308,-0.023212878968,0.06719517595999999,0.039095375104,0.01832595708,0.019547687552,0.012217304719999999,-0.087,-1.35604,-0.91466,-0.1682,-0.09396,0.51794,0.05383850850000001,9.536594472300001,-0.4809573426,-0.0024434609439999994,0.043371431755999994,0.025656339911999997,-0.1276,-0.725,-0.19836000000000004,-4.7072,1.41216,12.70944,0.9934369602763385,50.22
8938,0,965111,-2,1320,-47,-18,58,28,-150,-2338,-1577,7,1330,-86,16,13,9,-290,-162,893,-64,96,480,48.33,0.9933283987169996,52.1,0.99353565260301,4449.50634765625,-7309.7919921875,37.5,2,12,0.6100000143051147,12.0799560546875,63,0,0.0,0.0,0.0,0.0,0.0905241224342124,0.0,0.0,-0.2789025566155976,0.4773681086999999,-0.0179461694999999,9.511469835,-0.0358478501439094,-0.6899186968803406,-0.0345346629619598,0.7221734523773193,6,44.82510579427083,-73.16319986979167,-0.0143569356,9.475577496,-0.3373879866,0.050249274600000005,9.547362174,-0.6173482308,-0.021991148496,0.070860367376,0.034208453215999995,0.019547687552,0.015882496136,0.010995574248,-0.087,-1.35604,-0.91466,-0.1682,-0.09396,0.51794,0.0179461695,9.511469835,-0.4773681087,-0.0012217304720000006,0.043371431756,0.022602013732,-0.1276,-0.725,-0.19836000000000004,-1.88288,2.82432,14.1216,0.9934320256600049,50.215
8939,0,965217,-6,1320,-45,-18,56,31,-152,-2331,-1556,5,1333,-80,15,16,7,-308,-186,954,-176,16,304,48.32,0.9932593140883296,52.1,0.993703429558352,4449.50634765625,-7309.7919921875,37.5,2,12,0.6100000143051147,12.0635986328125,63,0,0.0,0.0,0.0,0.0,0.0507995304127752,0.0,0.0,-0.3196190935985922,0.4486542374999999,0.0035892339,9.5222375367,-0.0358350463211536,-0.6899141073226929,-0.0346381515264511,0.7221736311912537,6,44.82510579427083,-73.16319986979167,-0.0430708068,9.475577496,-0.323031051,0.035892339,9.5688975774,-0.574277424,-0.021991148496,0.06841690643199999,0.037873644632,0.01832595708,0.019547687552,0.008552113303999999,-0.08816,-1.35198,-0.9024800000000001,-0.17864,-0.10788,0.55332,-0.003589233899999999,9.5222375367,-0.4486542375,-0.001832595708,0.04398229699199999,0.023212878968,-0.1334,-0.72993,-0.17458,-5.17792,0.47072,8.94368,0.9934813718233408,50.21
8940,0,965322,-4,1315,-43,-17,54,30,-152,-2331,-1556,7,1331,-81,17,15,9,-308,-186,954,-144,64,432,48.33,0.9929829755736492,52.1,0.99353565260301,4449.50634765625,-7309.7919921875,37.5,2,12,0.6100000143051147,12.0635986328125,63,0,0.0,0.0,0.0,0.0,0.1466988477973035,0.0,0.0,-0.2128115641100986,0.4450650035999999,-0.0107677017,9.4971128994,-0.0358933396637439,-0.6899289488792419,-0.0346871018409729,0.7221541404724121,6,44.82510579427083,-73.16319986979167,-0.0287138712,9.439685157,-0.3086741154,0.050249274600000005,9.554540641800001,-0.5814558918,-0.020769418023999998,0.065973445488,0.03665191416,0.020769418023999998,0.01832595708,0.010995574248,-0.08816,-1.35198,-0.9024800000000001,-0.17864,-0.10788,0.55332,0.010767701700000002,9.497112899400001,-0.4450650036,0.0,0.042149701283999995,0.023823744204,-0.1334,-0.72993,-0.17458,-4.23648,1.88288,12.70944,0.9932593140883297,50.215
8941,0,965428,1,1317,-48,-18,53,30,-150,-2332,-1591,11,1333,-81,21,16,10,-277,-183,953,-64,96,432,48.33,0.993219837157661,52.09,0.9935652603010116,4449.50634765625,-7309.7919921875,37.5,2,12,0.6100000143051147,12.0635986328125,63,0,0.0,0.0,0.0,0.0,0.2123241162439371,0.0,0.0,-0.1517072849047288,0.4630111730999999,-0.0430708068,9.511469835,-0.0359637774527072,-0.6899265646934509,-0.034736581146717,0.722150444984436,6,44.82510579427083,-73.16319986979167,0.0071784678,9.4540420926,-0.3445664544,0.07896314580000001,9.5688975774,-0.5814558918,-0.021991148496,0.064751715016,0.03665191416,0.025656339912,0.019547687552,0.012217304719999999,-0.087,-1.35256,-0.92278,-0.16066,-0.10614,0.55274,0.04307080680000001,9.511469835,-0.4630111731,0.001832595708,0.042149701283999995,0.024434609439999998,-0.12383,-0.7293499999999999,-0.18502000000000002,-1.88288,2.82432,12.70944,0.9933925487293362,50.21
8942,0,965533,1,1321,-55,-16,54,30,-150,-2348,-1541,9,1333,-86,18,13,8,-277,-183,953,-144,-16,432,48.35,0.9932494448556624,52.12,0.993841598815692,4449.50634765625,-7309.7919921875,37.59999847412109,2,12,0.6100000143051147,12.0635986328125,63,0,0.0,0.0,0.0,0.0,0.0875430991635461,0.0,0.0,-0.2969820475022326,0.5060819798999999,-0.035892339,9.525826770599998,-0.0359528213739395,-0.6899250149726868,-0.034771904349327,0.7221508622169495,6,44.82510579427083,-73.16319986979167,0.0071784678,9.4827559638,-0.394815729,0.0646062102,9.5688975774,-0.6173482308,-0.019547687552,0.065973445488,0.03665191416,0.021991148496,0.015882496136,0.009773843776,-0.087,-1.36184,-0.89378,-0.16066,-0.10614,0.55274,0.035892339,9.5258267706,-0.5060819799,0.0012217304720000006,0.040927970811999996,0.023212878968,-0.12383,-0.7339899999999999,-0.17052,-4.23648,-0.47072,12.70944,0.9935455218356772,50.235
8943,0,965638,2,1314,-52,-21,55,32,-150,-2348,-1541,9,1331,-82,18,18,8,-291,-201,848,-144,64,416,48.33,0.9930619294349864,52.1,0.9938021218850236,4449.50634765625,-7309.7919921875,37.59999847412109,2,12,0.6100000143051147,12.0799560546875,63,0,0.0,0.0,0.0,0.0,0.0579747926515618,0.0,0.0,-0.3271281281058951,0.4809573426,-0.0394815729,9.4935236655,-0.0359043627977371,-0.6899052858352661,-0.0347669683396816,0.7221723794937134,6,44.82510579427083,-73.16319986979167,0.0143569356,9.4325066892,-0.3732803256,0.0646062102,9.554540641800001,-0.5886343596,-0.025656339912,0.06719517595999999,0.039095375104,0.021991148496,0.021991148496,0.009773843776,-0.087,-1.36184,-0.89378,-0.16878,-0.11658,0.49184,0.0394815729,9.4935236655,-0.4809573426,-0.001832595708,0.044593162228,0.024434609439999998,-0.12789,-0.7392099999999999,-0.20097,-4.23648,1.88288,12.23872,0.993432025660005,50.215
8944,0,965744,-2,1321,-47,-18,57,31,-154,-2350,-1544,4,1328,-84,19,13,10,-291,-201,848,-64,48,432,48.34,0.9931902294596596,52.11,0.9937626449543548,4449.50634765625,-7309.7919921875,37.59999847412109,2,12,0.6100000143051147,12.0472412109375,63,0,0.0,0.0,0.0,0.0,0.0935941326593793,0.0,0.0,-0.2853925273296783,0.4701896408999999,-0.0071784677999999,9.507880601099998,-0.0358173064887523,-0.6899207830429077,-0.0348422229290008,0.7221582531929016,6,44.82510579427083,-73.16319986979167,-0.0143569356,9.4827559638,-0.3373879866,0.0287138712,9.533005238400001,-0.6029912952,-0.021991148496,0.06963863690399999,0.037873644632,0.023212878968,0.015882496136,0.012217304719999999,-0.08932,-1.363,-0.89552,-0.16878,-0.11658,0.49184,0.0071784678,9.507880601100002,-0.47018964090000004,0.0006108652359999994,0.042760566519999994,0.025045474675999997,-0.12905,-0.73979,-0.20184,-1.88288,1.41216,12.70944,0.9934764372070073,50.225
8945,0,965849,-3,1321,-44,-18,61,32,-154,-2350,-1544,8,1337,-77,19,14,10,-284,-196,920,-80,-64,384,48.33,0.993219837157661,52.11,0.993713298791019,4449.50634765625,-7309.7919921875,37.59999847412109,2,12,0.6100000143051147,12.0635986328125,63,0,0.0,0.0,0.0,0.0,0.1070276101318958,0.0,0.0,-0.2705480247211398,0.4342973019,-0.0179461694999999,9.5401837062,-0.0357469022274017,-0.6899718046188354,-0.0348603017628192,0.7221121191978455,6,44.82510579427083,-73.16319986979167,-0.0215354034,9.4827559638,-0.31585258320000004,0.0574277424,9.5976114486,-0.5527420206,-0.021991148496,0.074525558792,0.039095375104,0.023212878968,0.017104226607999998,0.012217304719999999,-0.08932,-1.363,-0.89552,-0.16472,-0.11368,0.5336,0.0179461695,9.5401837062,-0.43429730190000004,0.0006108652359999994,0.0458148927,0.025656339911999997,-0.12702,-0.73834,-0.18096,-2.3536,-1.88288,11.29728,0.99346656797434,50.22
8946,0,965955,-1,1321,-47,-18,54,31,-168,-2318,-1569,7,1331,-79,19,15,8,-284,-196,920,-144,16,384,48.34,0.9930717986676536,52.11,0.993654083395016,4449.50634765625,-7309.7919921875,37.59999847412109,2,12,0.6100000143051147,12.0635986328125,63,0,0.0,0.0,0.0,0.0,0.1440123541934135,0.0,0.0,-0.2310565741234566,0.4522434714,-0.0215354034,9.5186483028,-0.0357760079205036,-0.6899847984313965,-0.0349133275449276,0.7220957279205322,6,44.82510579427083,-73.16319986979167,-0.0071784678,9.4827559638,-0.3373879866,0.050249274600000005,9.554540641800001,-0.5670989562000001,-0.021991148496,0.065973445488,0.037873644632,0.023212878968,0.01832595708,0.009773843776,-0.09744,-1.34444,-0.91002,-0.16472,-0.11368,0.5336,0.021535403400000003,9.5186483028,-0.45224347140000004,0.0006108652359999994,0.042149701283999995,0.023823744204,-0.13108,-0.72906,-0.18821000000000004,-4.23648,0.47072,11.29728,0.9933629410313348,50.225
8947,0,966060,-1,1323,-48,-20,54,30,-168,-2318,-1569,12,1325,-82,17,16,11,-285,-180,900,-112,48,432,48.34,0.993348137182334,52.1,0.9936442141623488,4449.50634765625,-7309.7919921875,37.59999847412109,2,12,0.6100000143051147,12.0963134765625,63,0,0.0,0.0,0.0,0.0,0.1031648281250568,0.0,0.0,-0.2787244305843994,0.466600407,-0.0394815729,9.5042913672,-0.0172506868839263,-0.6898908019065857,-0.0164529923349618,0.7235208749771118,6,44.82510579427083,-73.16319986979167,-0.0071784678,9.497112899400001,-0.3445664544,0.0861416136,9.511469835,-0.5886343596,-0.024434609439999998,0.065973445488,0.03665191416,0.020769418023999998,0.019547687552,0.013439035192,-0.09744,-1.34444,-0.91002,-0.1653,-0.1044,0.522,0.0394815729,9.5042913672,-0.466600407,-0.001832595708,0.042760566519999994,0.025045474676,-0.13137,-0.7244200000000001,-0.19401000000000002,-3.29504,1.41216,12.70944,0.9934961756723414,50.22
8948,0,966166,1,1315,-50,-17,57,31,-154,-2309,-1595,14,1328,-84,17,15,8,-285,-180,900,-80,-16,368,48.34,0.9931902294596596,52.11,0.993772514187022,4449.50634765625,-7309.7919921875,37.59999847412109,2,12,0.6100000143051147,12.0635986328125,63,0,0.0,0.0,0.0,0.0,0.1213549504299498,0.0,0.0,-0.2622082811666841,0.4809573425999999,-0.0538385085,9.4863451977,-0.0172680094838142,-0.6898960471153259,-0.016440138220787,0.7235158085823059,6,44.82510579427083,-73.16319986979167,0.0071784678,9.439685157,-0.35892339,0.10049854920000001,9.533005238400001,-0.6029912952,-0.020769418023999998,0.06963863690399999,0.037873644632,0.020769418023999998,0.01832595708,0.009773843776,-0.08932,-1.33922,-0.9251,-0.1653,-0.1044,0.522,0.05383850850000001,9.4863451977,-0.4809573426,0.0,0.04398229699199999,0.023823744204,-0.12731,-0.7218100000000001,-0.20155,-2.3536,-0.47072,10.82656,0.9934813718233408,50.225
8949,0,966271,3,1323,-54,-19,55,32,-154,-2309,-1595,14,1324,-87,15,19,8,-308,-188,854,-64,-32,448,48.35,0.9933678756476684,52.1,0.9937626449543548,4449.50634765625,-7309.7919921875,37.59999847412109,2,12,0.6100000143051147,12.0799560546875,63,0,0.0,0.0,0.0,0.0,0.0334711799439318,0.0,0.0,-0.3552670697794725,0.5060819799,-0.0610169763,9.5007021333,-0.0172329321503639,-0.6898494362831116,-0.0164556875824928,0.7235606908798218,6,44.82510579427083,-73.16319986979167,0.0215354034,9.497112899400001,-0.3876372612,0.10049854920000001,9.5042913672,-0.6245266986,-0.023212878968,0.06719517595999999,0.039095375104,0.01832595708,0.023212878968,0.009773843776,-0.08932,-1.33922,-0.9251,-0.17864,-0.10904,0.49532,0.061016976300000005,9.5007021333,-0.5060819799,-0.0024434609439999994,0.045204027464,0.024434609439999998,-0.13398,-0.72413,-0.21489000000000003,-1.88288,-0.94144,13.18016,0.9935652603010117,50.225
8950,0,966377,-1,1314,-41,-22,56,33,-157,-2308,-1594,8,1333,-78,21,14,9,-308,-188,854,-160,64,448,48.33,0.9930619294349864,52.1,0.99346656797434,4449.50634765625,-7309.7919921875,37.59999847412109,2,12,0.6100000143051147,12.0799560546875,63,0,0.0,0.0,0.0,0.0,0.1555107455763402,0.0,0.0,-0.2193387984156397,0.4271188340999999,-0.0251246373,9.5007021333,-0.0170894134789705,-0.689891517162323,-0.0164588522166013,0.7235238552093506,6,44.82510579427083,-73.16319986979167,-0.0071784678,9.4325066892,-0.2943171798,0.0574277424,9.5688975774,-0.5599204884,-0.026878070384,0.06841690643199999,0.040317105576,0.025656339912,0.017104226607999998,0.010995574248,-0.09106,-1.33864,-0.92452,-0.17864,-0.10904,0.49532,0.025124637300000002,9.500702133299999,-0.42711883409999996,-0.0006108652359999994,0.042760566519999994,0.025656339911999997,-0.13485,-0.72384,-0.2146,-4.7072,1.88288,13.18016,0.9932642487046632,50.215
8951,0,966482,2,1316,-47,-18,60,30,-157,-2308,-1594,9,1326,-85,19,11,9,-289,-181,898,-112,-16,416,48.34,0.9931803602269924,52.12,0.9939501603750308,4449.50634765625,-7309.7919921875,37.59999847412109,2,12,0.6100000143051147,12.0635986328125,63,0,0.0,0.0,0.0,0.0,0.1843992660707905,0.0,0.0,-0.1970238952821252,0.4737788747999999,-0.0394815729,9.4827559638,-0.0170563124120235,-0.6899045705795288,-0.016498876735568,0.723511278629303,6,44.82510579427083,-73.16319986979167,0.0143569356,9.4468636248,-0.3373879866,0.0646062102,9.5186483028,-0.610169763,-0.021991148496,0.07330382832,0.03665191416,0.023212878968,0.013439035192,0.010995574248,-0.09106,-1.33864,-0.92452,-0.16762,-0.10498,0.52084,0.0394815729,9.4827559638,-0.4737788748,0.0006108652359999994,0.043371431756,0.023823744204,-0.12934,-0.7218100000000001,-0.20184000000000002,-3.29504,-0.47072,12.23872,0.9935652603010117,50.230000000000004
8952,0,966587,-3,1319,-46,-19,53,29,-185,-2317,-1590,7,1325,-85,18,12,6,-289,-181,898,-80,-16,400,48.34,0.9932987910189984,52.09,0.9937330372563532,4449.50634765625,-7309.7919921875,37.59999847412109,2,12,0.6100000143051147,12.0635986328125,63,0,0.0,0.0,0.0,0.0,0.1582736208660551,0.0,0.0,-0.2332846199979792,0.4701896408999999,-0.0143569355999999,9.489934431599998,-0.0170609280467033,-0.6898735761642456,-0.0165325198322534,0.7235400080680847,6,44.82510579427083,-73.16319986979167,-0.0215354034,9.4683990282,-0.3302095188,0.050249274600000005,9.511469835,-0.610169763,-0.023212878968,0.064751715016,0.035430183688,0.021991148496,0.014660765664,0.007330382832,-0.1073,-1.34386,-0.9222,-0.16762,-0.10498,0.52084,0.014356935600000002,9.4899344316,-0.47018964090000004,-0.0006108652359999994,0.03970624034,0.02138028326,-0.13746,-0.7244200000000001,-0.20068000000000003,-2.3536,-0.47072,11.768,0.9935159141376758,50.215
8953,0,966693,-5,1319,-51,-19,55,31,-185,-2317,-1590,8,1326,-84,18,14,5,-290,-197,911,-96,32,384,48.34,0.993348137182334,52.1,0.9938021218850236,4449.50634765625,-7309.7919921875,37.59999847412109,2,12,0.6100000143051147,12.0963134765625,63,0,0.0,0.0,0.0,0.0,0.1606545793540586,0.0,0.0,-0.2382886716827197,0.4845465765,-0.0107677017,9.4935236655,-0.0171241909265518,-0.6898776292800903,-0.0165444873273372,0.723534345626831,6,44.82510579427083,-73.16319986979167,-0.035892339,9.4683990282,-0.36610185780000004,0.0574277424,9.5186483028,-0.6029912952,-0.023212878968,0.06719517595999999,0.037873644632,0.021991148496,0.017104226607999998,0.0061086523599999994,-0.1073,-1.34386,-0.9222,-0.1682,-0.11426,0.52838,0.0107677017,9.4935236655,-0.48454657650000005,-0.0006108652359999994,0.042149701283999995,0.021991148496,-0.13774999999999998,-0.72906,-0.19691000000000003,-2.82432,0.94144,11.29728,0.9935751295336788,50.22
8954,0,966798,0,1315,-52,-15,57,30,-144,-2330,-1542,8,1333,-85,16,15,9,-305,-178,879,-32,64,432,48.35,0.9933678756476684,52.12,0.9938514680483592,4449.50634765625,-7309.7919921875,37.59999847412109,2,12,0.6100000143051147,12.0799560546875,63,0,0.0,0.0,0.0,0.0,0.052323555232171,0.0,0.0,-0.3578177108499022,0.4917250442999999,-0.0287138711999999,9.5042913672,-0.0171415153890848,-0.6898761987686157,-0.0165382660925388,0.723535418510437,6,44.82510579427083,-73.16319986979167,0.0,9.439685157,-0.3732803256,0.0574277424,9.5688975774,-0.610169763,-0.01832595708,0.06963863690399999,0.03665191416,0.019547687552,0.01832595708,0.010995574248,-0.08352,-1.3514,-0.89436,-0.1769,-0.10324,0.50982,0.0287138712,9.5042913672,-0.4917250443,0.0006108652359999994,0.04398229699199999,0.023823744204,-0.13021,-0.72732,-0.19227,-0.94144,1.88288,12.70944,0.9936096718480139,50.235
8955,0,966904,2,1316,-47,-16,56,34,-144,-2330,-1542,10,1329,-79,22,12,9,-305,-178,879,-48,-16,352,48.33,0.9931704909943252,52.12,0.9939501603750308,4449.50634765625,-7309.7919921875,37.59999847412109,2,12,0.6100000143051147,12.0799560546875,63,0,0.0,0.0,0.0,0.0,0.0263976751490317,0.0,0.0,-0.378418654328087,0.4522434714,-0.0430708067999999,9.4935236655,-0.0171668250113725,-0.689934253692627,-0.0165369510650634,0.7234795689582825,6,44.82510579427083,-73.16319986979167,0.0143569356,9.4468636248,-0.3373879866,0.071784678,9.5401837062,-0.5670989562000001,-0.019547687552,0.06841690643199999,0.041538836047999995,0.026878070384,0.014660765664,0.010995574248,-0.08352,-1.3514,-0.89436,-0.1769,-0.10324,0.50982,0.0430708068,9.4935236655,-0.45224347140000004,0.003665191416,0.041538836047999995,0.026267205147999996,-0.13021,-0.72732,-0.19227,-1.41216,-0.47072,10.35584,0.993560325684678,50.224999999999994
8956,0,967009,-5,1316,-48,-21,56,30,-159,-2302,-1578,12,1331,-79,19,16,7,-301,-197,850,-128,-32,432,48.33,0.9932889217863312,52.11,0.993772514187022,4449.50634765625,-7309.7919921875,37.59999847412109,2,12,0.6100000143051147,12.0472412109375,63,0,0.0,0.0,0.0,0.0,0.0263913650946666,0.0,0.0,-0.3708514280277302,0.4558327053,-0.0251246373,9.5007021333,-0.0182196088135242,-0.6907761693000793,-0.0174429230391979,0.7226287126541138,6,44.82510579427083,-73.16319986979167,-0.035892339,9.4468636248,-0.3445664544,0.0861416136,9.554540641800001,-0.5670989562000001,-0.025656339912,0.06841690643199999,0.03665191416,0.023212878968,0.019547687552,0.008552113303999999,-0.09222,-1.33516,-0.91524,-0.17458,-0.11426,0.493,0.0251246373,9.5007021333,-0.45583270530000003,-0.0012217304720000006,0.04398229699199999,0.022602013732,-0.13340000000000002,-0.72471,-0.21112000000000003,-3.76576,-0.94144,12.70944,0.9935307179866766,50.22
8957,0,967115,0,1315,-49,-21,56,30,-159,-2302,-1578,9,1327,-78,22,15,10,-301,-197,850,-128,-80,272,48.35,0.9931507525289908,52.12,0.9937823834196892,4449.50634765625,-7309.7919921875,37.59999847412109,2,12,0.6100000143051147,12.0635986328125,63,0,0.0,0.0,0.0,0.0,-0.0438959134734235,0.0,0.0,-0.4337919163959469,0.4558327053,-0.0323031051,9.4827559638,-0.0181939490139484,-0.6907945871353149,-0.0174492113292217,0.7226114869117737,6,44.82510579427083,-73.16319986979167,0.0,9.439685157,-0.35174492220000003,0.0646062102,9.5258267706,-0.5599204884,-0.025656339912,0.06841690643199999,0.03665191416,0.026878070384,0.01832595708,0.012217304719999999,-0.09222,-1.33516,-0.91524,-0.17458,-0.11426,0.493,0.0323031051,9.482755963799999,-0.4558327053,0.0006108652359999994,0.043371431755999994,0.024434609439999998,-0.13340000000000002,-0.72471,-0.21112000000000003,-3.76576,-2.3536,8.00224,0.99346656797434,50.235
8958,0,967220,0,1319,-46,-20,55,28,-174,-2312,-1571,9,1328,-80,15,17,7,-288,-173,963,-160,-16,336,48.33,0.993229706390328,52.1,0.9936935603256848,4449.50634765625,-7309.7919921875,37.59999847412109,2,12,0.6100000143051147,12.0635986328125,63,0,0.0,0.0,0.0,0.0,0.044222068014535,0.0,0.0,-0.3254833586761347,0.4522434714,-0.0323031051,9.5007021333,-0.0182384587824344,-0.6907915472984314,-0.0174285005778074,0.7226138710975647,6,44.82510579427083,-73.16319986979167,0.0,9.4683990282,-0.3302095188,0.0646062102,9.533005238400001,-0.574277424,-0.024434609439999998,0.06719517595999999,0.034208453215999995,0.01832595708,0.020769418023999998,0.008552113303999999,-0.10092,-1.34096,-0.91118,-0.16704,-0.10034,0.55854,0.0323031051,9.5007021333,-0.4522434714,-0.003054326179999999,0.04398229699199999,0.021380283259999997,-0.13398,-0.72065,-0.17631999999999998,-4.7072,-0.47072,9.88512,0.9934616333580064,50.215
8959,0,967326,2,1316,-44,-17,53,32,-170,-2305,-1596,8,1330,-88,21,17,7,-288,-173,963,-208,48,304,48.34,0.9931902294596596,52.11,0.993713298791019,4449.50634765625,-7309.7919921875,37.59999847412109,2,12,0.6100000143051147,12.0635986328125,63,0,0.0,0.0,0.0,0.0,0.0492532173617412,0.0,0.0,-0.3157237217344212,0.4737788747999999,-0.0358923389999999,9.4971128994,-0.0182211566716432,-0.6908230781555176,-0.0173597726970911,0.7225857377052307,6,44.82510579427083,-73.16319986979167,0.0143569356,9.4468636248,-0.31585258320000004,0.0574277424,9.547362174,-0.6317051664000001,-0.020769418023999998,0.064751715016,0.039095375104,0.025656339912,0.020769418023999998,0.008552113303999999,-0.09860000000000001,-1.3369,-0.9256800000000001,-0.16704,-0.10034,0.55854,0.035892339,9.497112899400001,-0.4737788748,0.002443460944000001,0.042760566519999994,0.023823744204,-0.13282,-0.71862,-0.18357,-6.11936,1.41216,8.94368,0.9934517641253393,50.225
8960,0,967431,3,1323,-46,-18,57,29,-170,-2305,-1596,12,1328,-83,21,16,6,-305,-179,986,-64,-32,384,48.34,0.9930717986676536,52.11,0.9938317295830248,4449.50634765625,-7309.7919921875,37.59999847412109,2,12,0.6100000143051147,12.0963134765625,63,0,0.0,0.0,0.0,0.0,0.1050871329345322,0.0,0.0,-0.2563974812884733,0.4630111730999999,-0.0538385085,9.5150590689,-0.0182077940553426,-0.690838098526001,-0.0173399578779935,0.7225722670555115,6,44.82510579427083,-73.16319986979167,0.0215354034,9.497112899400001,-0.3302095188,0.0861416136,9.533005238400001,-0.5958128274000001,-0.021991148496,0.06963863690399999,0.035430183688,0.025656339912,0.019547687552,0.007330382832,-0.09860000000000001,-1.3369,-0.9256800000000001,-0.1769,-0.10382,0.57188,0.0538385085,9.515059068900001,-0.46301117310000006,0.001832595708,0.04459316222799999,0.02138028326,-0.13775,-0.72036,-0.1769,-1.88288,-0.94144,11.29728,0.9934517641253392,50.225
8961,0,967536,-2,1316,-49,-19,58,29,-166,-2331,-1568,7,1328,-80,20,15,8,-305,-179,986,-80,48,400,48.35,0.9932099679249938,52.1,0.9938119911176906,4449.50634765625,-7309.7919921875,37.70000076293945,2,12,0.6100000143051147,12.0963134765625,63,0,0.0,0.0,0.0,0.0,0.0598454151268267,0.0,0.0,-0.3071981176868023,0.4630111730999999,-0.0179461694999999,9.489934431599998,-0.0181901175528764,-0.690793514251709,-0.0173379052430391,0.7226153016090393,6,44.82510579427083,-73.16319986979167,-0.0143569356,9.4468636248,-0.35174492220000003,0.050249274600000005,9.533005238400001,-0.574277424,-0.023212878968,0.070860367376,0.035430183688,0.024434609439999998,0.01832595708,0.009773843776,-0.09628,-1.35198,-0.90944,-0.1769,-0.10382,0.57188,0.0179461695,9.489934431600002,-0.46301117310000006,0.0006108652359999994,0.044593162228,0.022602013732,-0.13659,-0.7279,-0.16877999999999999,-2.3536,1.41216,11.768,0.9935109795213422,50.225
8962,0,967642,3,1320,-40,-20,58,32,-166,-2331,-1568,5,1328,-81,21,13,10,-297,-184,819,-96,64,448,48.34,0.9930717986676536,52.11,0.993713298791019,4449.50634765625,-7309.7919921875,37.70000076293945,2,12,0.6100000143051147,12.0799560546875,63,0,0.0,0.0,0.0,0.0,0.0695545242633699,0.0,0.0,-0.2910942959366153,0.4342973018999999,-0.0287138711999999,9.5042913672,-0.0181874670088291,-0.6907982230186462,-0.0173731595277786,0.7226100564002991,6,44.82510579427083,-73.16319986979167,0.0215354034,9.475577496,-0.287138712,0.035892339,9.533005238400001,-0.5814558918,-0.024434609439999998,0.070860367376,0.039095375104,0.025656339912,0.015882496136,0.012217304719999999,-0.09628,-1.35198,-0.90944,-0.17226,-0.10672,0.47502,0.0287138712,9.5042913672,-0.43429730190000004,0.0006108652360000012,0.043371431756,0.025656339911999997,-0.13427,-0.7293499999999999,-0.21721000000000001,-2.82432,1.88288,13.18016,0.9933925487293362,50.225
8963,0,967747,2,1318,-47,-17,58,32,-165,-2328,-1607,10,1328,-86,20,12,8,-297,-184,819,-96,128,416,48.34,0.9930717986676536,52.1,0.9939304219096964,4449.50634765625,-7309.7919921875,37.70000076293945,2,12,0.6100000143051147,12.0963134765625,63,0,0.0,0.0,0.0,0.0,0.0042152217426727,0.0,0.0,-0.3566101275876469,0.4773681086999999,-0.0430708067999999,9.4971128994,-0.0181875023990869,-0.690819501876831,-0.017365837469697,0.722589910030365,6,44.82510579427083,-73.16319986979167,0.0143569356,9.461220560400001,-0.3373879866,0.071784678,9.533005238400001,-0.6173482308,-0.020769418023999998,0.070860367376,0.039095375104,0.024434609439999998,0.014660765664,0.009773843776,-0.09570000000000001,-1.35024,-0.93206,-0.17226,-0.10672,0.47502,0.0430708068,9.497112899400001,-0.4773681087,0.001832595708,0.04276056652,0.024434609439999998,-0.13398,-0.72848,-0.22852,-2.82432,3.76576,12.23872,0.993501110288675,50.22
8964,0,967853,0,1316,-39,-17,56,29,-165,-2328,-1607,12,1329,-76,21,14,9,-280,-165,920,-144,-16,464,48.35,0.9932593140883296,52.12,0.993841598815692,4449.50634765625,-7309.7919921875,37.70000076293945,2,12,0.6100000143051147,12.0963134765625,63,0,0.0,0.0,0.0,0.0,-0.0068938218170959,0.0,0.0,-0.3597769052255585,0.4127618984999999,-0.0430708068,9.4935236655,-0.018183771520853,-0.690834105014801,-0.017342559993267,0.7225765585899353,6,44.82510579427083,-73.16319986979167,0.0,9.4468636248,-0.2799602442,0.0861416136,9.5401837062,-0.5455635528,-0.020769418023999998,0.06841690643199999,0.035430183688,0.025656339912,0.017104226607999998,0.010995574248,-0.09570000000000001,-1.35024,-0.93206,-0.1624,-0.09570000000000001,0.5336,0.0430708068,9.4935236655,-0.4127618985,0.002443460944000001,0.042760566519999994,0.023212878968,-0.12905,-0.7229700000000001,-0.19923000000000002,-4.23648,-0.47072,13.65088,0.9935504564520108,50.235
