timestampMs,pressurePa,tempK,accelX,accelY,accelZ,gyroX,gyroY,gyroZ,imuTemp,battV,altitudeM,velocityMS,accelerationMSS,unfiltAlt,flightState,drogueCont,drogueFired,mainCont,mainFired,tiltMagnitudeDeg,angularVelRadS_x,angularVelRadS_y,angularVelRadS_z,quaternion_a,quaternion_b,quaternion_c,quaternion_d
5115,101770.531250,280.83,0.512359,-9.830592,-0.153228,-0.004256,0.012770,-0.004256,278.53,4.05,-0.38,-0.24,0.02,-36.059921,0,0,0,0,0,,,,,,,,
10115,101785.671875,280.90,0.502782,-9.840168,-0.177170,-0.004256,0.012770,-0.004256,278.61,4.06,-0.32,-0.46,0.03,-37.283107,0,0,0,0,0,,,,,,,,
15115,101763.859375,280.96,0.478840,-9.840168,-0.177170,-0.004256,0.013834,-0.003192,278.59,4.02,0.55,0.45,0.02,-35.520862,0,0,0,0,0,,,,,,,,
20115,101760.531250,281.03,0.488417,-9.830592,-0.153228,-0.004256,0.013834,-0.005321,278.72,4.05,0.37,0.14,0.02,-35.251956,0,0,0,0,0,,,,,,,,
25115,101779.484375,281.11,0.493205,-9.835380,-0.162805,-0.005321,0.014899,-0.003192,278.72,4.03,-0.08,-0.71,0.03,-36.783248,0,0,0,0,0,,,,,,,,
30115,101757.609375,281.17,0.478840,-9.830592,-0.177170,-0.004256,0.013834,-0.004256,278.76,4.01,0.81,0.28,0.02,-35.015865,0,0,0,0,0,,,,,,,,
35115,101758.046875,281.25,0.493205,-9.830592,-0.162805,-0.004256,0.013834,-0.003192,278.87,4.03,0.50,-0.10,0.02,-35.051216,0,0,0,0,0,,,,,,,,
40115,101754.703125,281.32,0.483628,-9.835380,-0.172382,-0.004256,0.013834,-0.004256,278.85,4.03,1.14,0.33,0.03,-34.781032,0,0,0,0,0,,,,,,,,
45115,101751.343750,281.38,0.483628,-9.840168,-0.177170,-0.003192,0.013834,-0.004256,279.00,4.02,1.33,0.51,0.02,-34.509578,0,0,0,0,0,,,,,,,,
50115,101766.468750,281.45,0.488417,-9.830592,-0.177170,-0.004256,0.013834,-0.004256,279.11,4.05,0.94,0.03,0.02,-35.731693,0,0,0,0,0,,,,,,,,
55115,101766.890625,281.53,0.483628,-9.840168,-0.172382,-0.004256,0.012770,-0.004256,279.11,4.05,1.18,0.13,0.02,-35.765777,0,0,0,0,0,,,,,,,,
60115,101741.203125,281.58,0.493205,-9.840168,-0.162805,-0.004256,0.013834,-0.004256,279.17,4.01,1.49,0.44,0.02,-33.690128,0,0,0,0,0,,,,,,,,
65115,101737.812500,281.64,0.493205,-9.835380,-0.167594,-0.004256,0.014899,-0.004256,279.27,4.05,1.41,0.17,0.02,-33.416118,0,0,0,0,0,,,,,,,,
70115,101752.953125,281.71,0.483628,-9.840168,-0.162805,-0.005321,0.012770,-0.004256,279.27,4.05,1.38,0.19,0.03,-34.639625,0,0,0,0,0,,,,,,,,
75115,101745.781250,281.76,0.483628,-9.835380,-0.172382,-0.004256,0.014899,-0.004256,279.32,4.01,1.50,0.32,0.02,-34.060089,0,0,0,0,0,,,,,,,,
80115,101757.109375,281.81,0.478840,-9.835380,-0.167594,-0.004256,0.014899,-0.003192,279.36,4.03,1.01,-0.16,0.02,-34.975463,0,0,0,0,0,,,,,,,,
85115,101749.937500,281.86,0.478840,-9.835380,-0.172382,-0.004256,0.013834,-0.004256,279.46,4.05,1.34,-0.16,0.02,-34.395946,0,0,0,0,0,,,,,,,,
90115,101761.265625,281.90,0.493205,-9.825803,-0.172382,-0.004256,0.013834,-0.003192,279.53,4.02,1.50,0.12,0.02,-35.311290,0,0,0,0,0,,,,,,,,
95115,101754.078125,281.95,0.493205,-9.835380,-0.172382,-0.004256,0.014899,-0.003192,279.58,4.03,1.35,0.03,0.03,-34.730529,0,0,0,0,0,,,,,,,,
100115,101765.421875,282.00,0.488417,-9.821015,-0.167594,-0.004256,0.014899,-0.003192,279.56,4.03,1.26,-0.27,0.02,-35.647109,0,0,0,0,0,,,,,,,,
105115,101735.890625,282.03,0.488417,-9.825803,-0.172382,-0.005321,0.013834,-0.003192,279.65,4.01,2.44,0.86,0.02,-33.260803,0,0,0,0,0,,,,,,,,
110115,101747.250000,282.08,0.521935,-9.835380,-0.158017,-0.004256,0.014899,-0.004256,279.67,4.03,1.92,0.28,0.02,-34.178775,0,0,0,0,0,,,,,,,,
115115,101736.250000,282.12,0.363918,-9.835380,-0.119710,-0.004256,0.017027,-0.002128,279.77,4.03,1.90,-0.01,0.02,-33.289848,0,0,0,0,0,,,,,,,,
120115,101743.843750,282.15,0.483628,-9.844957,-0.177170,-0.006385,0.013834,-0.003192,279.79,4.02,1.96,0.41,0.03,-33.903518,0,0,0,0,0,,,,,,,,
125115,101755.156250,282.20,0.493205,-9.835380,-0.181959,-0.004256,0.014899,-0.003192,279.79,4.03,2.00,0.24,0.02,-34.817646,0,0,0,0,0,,,,,,,,
130115,101747.953125,282.25,0.493205,-9.835380,-0.181959,-0.005321,0.010642,-0.003192,279.95,4.03,-0.52,-0.20,0.03,-34.423252,0,0,0,0,0,,,,,,,,
135115,101733.187500,282.26,0.632069,-9.825803,-0.158017,-0.004256,0.020220,-0.002128,279.95,4.02,0.45,0.85,0.02,-33.223464,0,0,0,0,0,,,,,,,,
140115,101744.500000,282.31,0.493205,-9.840168,-0.167594,-0.004256,0.017027,-0.003192,280.00,4.05,-0.28,0.12,0.02,-34.142681,0,0,0,0,0,,,,,,,,
145115,101733.515625,282.34,0.474051,-9.840168,-0.158017,-0.004256,0.014899,-0.004256,280.01,4.02,-0.42,-0.21,0.02,-33.250129,0,0,0,0,0,,,,,,,,
150115,101741.062500,282.38,0.502782,-9.835380,-0.186747,-0.005321,0.013834,-0.003192,280.06,4.01,0.05,0.20,0.02,-33.863368,0,0,0,0,0,,,,,,,,
155115,101748.609375,282.41,0.464475,-9.835380,-0.172382,-0.004256,0.014899,-0.004256,280.09,4.03,-0.39,-0.15,0.02,-34.476573,0,0,0,0,0,,,,,,,,
160115,101756.171875,282.44,0.464475,-9.835380,-0.057460,-0.006385,0.009578,-0.003192,280.07,4.03,-0.26,-0.29,0.02,-35.091011,0,0,0,0,0,,,,,,,,
165115,101745.156250,282.47,0.330399,-9.844957,-0.349553,-0.009578,-0.001064,-0.007449,280.15,4.01,0.42,0.42,0.02,-34.196002,0,0,0,0,0,,,,,,,,
170115,101752.718750,282.51,0.497993,-9.830592,-0.205901,-0.003192,0.014899,-0.004256,280.20,4.03,-0.03,-0.10,0.02,-34.810459,0,0,0,0,0,,,,,,,,
175115,101760.265625,282.54,0.497993,-9.830592,-0.191536,-0.003192,0.013834,-0.004256,280.18,4.03,-0.48,-0.73,0.03,-35.423606,0,0,0,0,0,,,,,,,,
180115,101730.703125,282.57,0.512359,-9.830592,-0.167594,-0.005321,0.013834,-0.004256,280.29,4.01,0.71,0.67,0.02,-33.021579,0,0,0,0,0,,,,,,,,
185115,101753.031250,282.59,0.493205,-9.844957,-0.181959,-0.005321,0.012770,-0.003192,280.26,4.03,-0.19,-0.31,0.02,-34.835845,0,0,0,0,0,,,,,,,,
190115,101742.031250,282.62,0.478840,-9.830592,-0.177170,-0.004256,0.014899,-0.003192,280.29,4.03,-0.13,-0.26,0.03,-33.942085,0,0,0,0,0,,,,,,,,
195115,101727.234375,282.64,0.497993,-9.816226,-0.172382,-0.005321,0.013834,-0.003192,280.32,4.01,0.49,0.46,0.02,-32.739700,0,0,0,0,0,,,,,,,,
200115,101738.546875,282.68,0.497993,-9.840168,-0.172382,-0.005321,0.013834,-0.003192,280.42,4.03,0.42,0.26,0.02,-33.658958,0,0,0,0,0,,,,,,,,
205115,101723.750000,282.70,0.430956,-9.835380,-0.172382,-0.005321,0.013834,-0.004256,280.36,4.03,0.77,0.33,0.02,-32.456542,0,0,0,0,0,,,,,,,,
210115,101727.546875,282.72,0.478840,-9.835380,-0.177170,-0.005321,0.012770,-0.004256,280.39,4.01,0.79,0.59,0.02,-32.765094,0,0,0,0,0,,,,,,,,
215115,101735.093750,282.75,0.488417,-9.830592,-0.177170,-0.004256,0.013834,-0.002128,280.44,4.03,0.47,0.21,0.02,-33.378364,0,0,0,0,0,,,,,,,,
220115,101742.625000,282.78,0.483628,-9.830592,-0.177170,-0.005321,0.014899,-0.003192,280.47,4.03,0.12,-0.30,0.02,-33.990329,0,0,0,0,0,,,,,,,,
225115,101746.406250,282.80,0.483628,-9.835380,-0.172382,-0.005321,0.014899,-0.005321,280.47,4.01,-0.11,-0.36,0.03,-34.297569,0,0,0,0,0,,,,,,,,
230115,101750.171875,282.81,0.507570,-9.840168,-0.186747,-0.005321,0.013834,-0.003192,280.48,4.03,0.32,0.03,0.02,-34.603527,0,0,0,0,0,,,,,,,,
235115,101753.953125,282.83,0.483628,-9.830592,-0.177170,-0.005321,0.013834,-0.003192,280.56,4.05,-0.49,-0.89,0.03,-34.910747,0,0,0,0,0,,,,,,,,
240115,101720.578125,282.85,0.493205,-9.835380,-0.172382,-0.004256,0.014899,-0.004256,280.56,4.01,1.05,0.73,0.02,-32.198772,0,0,0,0,0,,,,,,,,
245115,101724.343750,282.86,0.493205,-9.830592,-0.177170,-0.004256,0.014899,-0.003192,280.56,4.03,0.82,0.25,0.02,-32.504795,0,0,0,0,0,,,,,,,,
250115,101728.109375,282.88,0.474051,-9.825803,-0.181959,-0.004256,0.014899,-0.003192,280.57,4.03,0.50,-0.06,0.02,-32.810806,0,0,0,0,0,,,,,,,,
255115,101735.687500,282.91,0.502782,-9.840168,-0.181959,-0.004256,0.013834,-0.004256,280.60,4.01,0.62,0.09,0.02,-33.426612,0,0,0,0,0,,,,,,,,
260115,101735.687500,282.91,0.488417,-9.844957,-0.167594,-0.004256,0.013834,-0.002128,280.60,4.03,0.46,-0.05,0.02,-33.426612,0,0,0,0,0,,,,,,,,
265115,101720.875000,282.93,0.488417,-9.835380,-0.167594,-0.004256,0.013834,-0.004256,280.59,4.03,1.02,0.43,0.02,-32.222896,0,0,0,0,0,,,,,,,,
270115,101728.390625,282.96,0.493205,-9.830592,-0.186747,-0.004256,0.013834,-0.002128,280.66,4.01,0.80,0.16,0.03,-32.833660,0,0,0,0,0,,,,,,,,
275115,101746.968750,282.96,0.483628,-9.835380,-0.181959,-0.005321,0.014899,-0.003192,280.66,4.03,0.45,-0.09,0.02,-34.343273,0,0,0,0,0,,,,,,,,
280115,101735.953125,282.99,0.493205,-9.835380,-0.186747,-0.005321,0.014899,-0.003192,280.72,4.02,0.58,-0.00,0.02,-33.448196,0,0,0,0,0,,,,,,,,
285115,101721.156250,283.01,0.488417,-9.840168,-0.172382,-0.004256,0.012770,-0.003192,280.69,4.00,0.84,0.22,0.03,-32.245754,0,0,0,0,0,,,,,,,,
290115,101721.156250,283.01,0.478840,-9.844957,-0.172382,-0.004256,0.014899,-0.004256,280.78,4.03,0.62,0.02,0.02,-32.245754,0,0,0,0,0,,,,,,,,
295115,101743.500000,283.03,0.483628,-9.844957,-0.177170,-0.004256,0.013834,-0.004256,280.63,4.02,-0.16,-0.88,0.03,-34.061428,0,0,0,0,0,,,,,,,,
300115,101728.671875,283.04,0.497993,-9.835380,-0.172382,-0.005321,0.014899,-0.003192,280.75,4.01,0.74,0.11,0.02,-32.856517,0,0,0,0,0,,,,,,,,
305115,101713.859375,283.06,0.493205,-9.835380,-0.172382,-0.004256,0.013834,-0.004256,280.75,4.03,1.04,0.33,0.02,-31.652734,0,0,0,0,0,,,,,,,,
310115,101736.203125,283.07,0.488417,-9.821015,-0.181959,-0.004256,0.013834,-0.003192,280.80,4.03,0.79,-0.00,0.02,-33.468513,0,0,0,0,0,,,,,,,,
315115,101740.000000,283.09,0.507570,-9.998186,-0.138863,-0.004256,0.011706,-0.004256,280.86,4.00,0.61,-0.15,0.03,-33.777034,0,0,0,0,0,,,,,,,,
320115,101728.953125,283.12,0.483628,-9.811438,-0.201112,-0.004256,0.013834,-0.003192,280.84,4.03,0.56,-0.19,0.02,-32.879371,0,0,0,0,0,,,,,,,,
325115,101728.953125,283.12,0.493205,-9.830592,-0.201112,-0.004256,0.013834,-0.004256,280.83,4.03,1.00,0.18,0.02,-32.879371,0,0,0,0,0,,,,,,,,
330115,101714.125000,283.14,0.478840,-9.825803,-0.167594,-0.004256,0.014899,-0.004256,280.84,4.01,1.50,0.71,0.02,-31.674322,0,0,0,0,0,,,,,,,,
335115,101736.468750,283.16,0.493205,-9.825803,-0.172382,-0.004256,0.014899,-0.003192,280.90,4.03,0.53,-0.21,0.02,-33.490097,0,0,0,0,0,,,,,,,,
340115,101721.671875,283.17,0.488417,-9.840168,-0.172382,-0.004256,0.014899,-0.004256,280.87,4.03,0.98,-0.06,0.03,-32.287658,0,0,0,0,0,,,,,,,,
345115,101721.671875,283.17,0.488417,-9.825803,-0.181959,-0.004256,0.014899,-0.004256,280.95,4.01,1.56,0.71,0.02,-32.287658,0,0,0,0,0,,,,,,,,
350115,101744.031250,283.19,0.483628,-9.844957,-0.172382,-0.005321,0.014899,-0.004256,280.90,4.03,0.38,-0.40,0.02,-34.104595,0,0,0,0,0,,,,,,,,
355115,101729.218750,283.20,0.493205,-9.830592,-0.181959,-0.005321,0.014899,-0.004256,280.93,4.02,1.04,0.08,0.02,-32.900959,0,0,0,0,0,,,,,,,,
360115,101714.390625,283.22,0.483628,-9.830592,-0.181959,-0.004256,0.014899,-0.003192,280.93,4.01,1.46,0.68,0.02,-31.695909,0,0,0,0,0,,,,,,,,
365115,101714.390625,283.22,0.488417,-9.835380,-0.181959,-0.004256,0.014899,-0.005321,280.93,4.03,0.93,0.10,0.02,-31.695909,0,0,0,0,0,,,,,,,,
370115,101740.500000,283.25,0.493205,-9.840168,-0.177170,-0.004256,0.013834,-0.004256,280.98,4.02,0.67,-0.29,0.02,-33.817665,0,0,0,0,0,,,,,,,,
375115,101740.500000,283.25,0.488417,-9.830592,-0.172382,-0.005321,0.013834,-0.003192,281.00,4.00,0.97,0.00,0.02,-33.817665,0,0,0,0,0,,,,,,,,
380115,101729.468750,283.29,0.488417,-9.835380,-0.181959,-0.005321,0.013834,-0.003192,281.01,4.03,0.91,-0.01,0.02,-32.921272,0,0,0,0,0,,,,,,,,
385115,101733.234375,283.30,0.497993,-9.830592,-0.181959,-0.004256,0.013834,-0.003192,281.04,4.03,0.99,-0.11,0.02,-33.227272,0,0,0,0,0,,,,,,,,
390115,101714.640625,283.30,0.483628,-9.830592,-0.172382,-0.004256,0.014899,-0.002128,281.00,4.01,1.17,0.23,0.02,-31.716228,0,0,0,0,0,,,,,,,,
395115,101737.000000,283.32,0.488417,-9.830592,-0.172382,-0.005321,0.013834,-0.004256,281.01,4.03,0.87,-0.05,0.02,-33.533264,0,0,0,0,0,,,,,,,,
400115,101744.531250,283.35,0.493205,-9.835380,-0.172382,-0.004256,0.014899,-0.003192,281.03,4.03,1.02,-0.20,0.02,-34.145221,0,0,0,0,0,,,,,,,,
405115,101725.937500,283.35,0.493205,-9.840168,-0.167594,-0.003192,0.013834,-0.004256,281.04,4.01,1.10,0.12,0.02,-32.634311,0,0,0,0,0,,,,,,,,
410115,101733.484375,283.38,0.497993,-9.844957,-0.177170,-0.005321,0.013834,-0.003192,281.10,4.03,1.14,0.04,0.02,-33.247589,0,0,0,0,0,,,,,,,,
415115,101714.890625,283.38,0.493205,-9.825803,-0.181959,-0.004256,0.013834,-0.003192,281.06,4.02,1.24,0.12,0.02,-31.736545,0,0,0,0,0,,,,,,,,
420115,101718.656250,283.40,0.502782,-9.830592,-0.172382,-0.004256,0.014899,-0.003192,281.09,4.02,1.78,0.67,0.02,-32.042583,0,0,0,0,0,,,,,,,,
425115,101741.000000,283.42,0.497993,-9.830592,-0.186747,-0.003192,0.013834,-0.004256,281.09,4.03,0.93,-0.12,0.02,-33.858291,0,0,0,0,0,,,,,,,,
430115,101726.187500,283.43,0.488417,-9.825803,-0.181959,-0.005321,0.014899,-0.003192,281.16,4.03,1.16,-0.16,0.02,-32.654624,0,0,0,0,0,,,,,,,,
435115,101726.187500,283.43,0.488417,-9.840168,-0.172382,-0.004256,0.014899,-0.004256,281.13,4.01,1.42,0.37,0.02,-32.654624,0,0,0,0,0,,,,,,,,
440115,101733.734375,283.46,0.497993,-9.835380,-0.172382,-0.003192,0.014899,-0.004256,281.18,4.02,0.96,-0.16,0.02,-33.267902,0,0,0,0,0,,,,,,,,
445115,101715.125000,283.46,0.493205,-9.830592,-0.177170,-0.004256,0.013834,-0.004256,281.19,4.02,1.86,0.49,0.02,-31.755594,0,0,0,0,0,,,,,,,,
450115,101718.890625,283.48,0.493205,-9.830592,-0.177170,-0.005321,0.014899,-0.004256,281.21,4.00,2.06,0.83,0.02,-32.061630,0,0,0,0,0,,,,,,,,
455115,101726.406250,283.51,0.497993,-9.840168,-0.172382,-0.005321,0.014899,-0.004256,281.18,4.02,1.33,0.07,0.02,-32.672401,0,0,0,0,0,,,,,,,,
460115,101730.187500,283.53,0.488417,-9.835380,-0.167594,-0.004256,0.014899,-0.003192,281.24,4.02,0.98,-0.43,0.02,-32.979679,0,0,0,0,0,,,,,,,,
465115,101715.343750,283.55,0.483628,-9.825803,-0.172382,-0.003192,0.013834,-0.003192,281.28,4.01,1.77,0.62,0.02,-31.773372,0,0,0,0,0,,,,,,,,
470115,101737.718750,283.56,0.497993,-9.835380,-0.172382,-0.005321,0.013834,-0.003192,281.27,4.03,0.96,-0.21,0.02,-33.591667,0,0,0,0,0,,,,,,,,
475115,101722.875000,283.58,0.483628,-9.840168,-0.177170,-0.004256,0.014899,-0.004256,281.34,4.02,1.14,-0.30,0.02,-32.385433,0,0,0,0,0,,,,,,,,
480115,101722.875000,283.58,0.497993,-9.840168,-0.177170,-0.004256,0.014899,-0.003192,281.33,4.00,1.06,-0.22,0.02,-32.385433,0,0,0,0,0,,,,,,,,
485115,101711.812500,283.61,0.493205,-9.830592,-0.167594,-0.004256,0.013834,-0.003192,281.33,4.02,1.63,0.36,0.02,-31.486377,0,0,0,0,0,,,,,,,,
490115,101715.562500,283.63,0.497993,-9.835380,-0.181959,-0.004256,0.013834,-0.003192,281.39,4.03,1.59,0.08,0.02,-31.791151,0,0,0,0,0,,,,,,,,
495115,101719.328125,283.64,0.497993,-9.835380,-0.167594,-0.004256,0.012770,-0.002128,281.39,4.01,1.76,0.51,0.02,-32.097187,0,0,0,0,0,,,,,,,,
500115,101723.109375,283.66,0.493205,-9.835380,-0.177170,-0.005321,0.014899,-0.002128,281.45,4.02,1.57,0.29,0.02,-32.404479,0,0,0,0,0,,,,,,,,
505115,101730.640625,283.69,0.478840,-9.830592,-0.162805,-0.005321,0.014899,-0.003192,281.43,4.02,1.13,-0.50,0.02,-33.016502,0,0,0,0,0,,,,,,,,
510115,101712.031250,283.69,0.493205,-9.835380,-0.177170,-0.004256,0.013834,-0.003192,281.39,4.01,2.04,0.74,0.02,-31.504156,0,0,0,0,0,,,,,,,,
515115,101715.781250,283.71,0.488417,-9.825803,-0.181959,-0.004256,0.014899,-0.003192,281.43,4.03,1.50,0.10,0.02,-31.808929,0,0,0,0,0,,,,,,,,
520115,101741.937500,283.74,0.493205,-9.825803,-0.172382,-0.005321,0.013834,-0.003192,281.48,4.03,0.75,-0.71,0.02,-33.934467,0,0,0,0,0,,,,,,,,
525115,101708.468750,283.76,0.488417,-9.835380,-0.172382,-0.005321,0.013834,-0.003192,281.46,4.01,1.65,0.32,0.02,-31.214612,0,0,0,0,0,,,,,,,,
530115,101712.234375,283.77,0.493205,-9.830592,-0.181959,-0.005321,0.012770,-0.003192,281.39,4.02,1.23,-0.04,0.02,-31.520664,0,0,0,0,0,,,,,,,,
535115,101734.609375,283.79,0.493205,-9.830592,-0.177170,-0.005321,0.014899,-0.003192,281.51,4.02,1.03,-0.60,0.02,-33.339004,0,0,0,0,0,,,,,,,,
540115,101719.750000,283.81,0.488417,-9.830592,-0.181959,-0.005321,0.013834,-0.003192,281.54,4.01,2.20,0.77,0.02,-32.131469,0,0,0,0,0,,,,,,,,
545115,101723.515625,283.82,0.483628,-9.835380,-0.177170,-0.004256,0.013834,-0.003192,281.51,4.03,1.40,-0.14,0.02,-32.437496,0,0,0,0,0,,,,,,,,
550115,101727.296875,283.84,0.488417,-9.840168,-0.172382,-0.004256,0.014899,-0.004256,281.52,4.03,1.14,-0.48,0.02,-32.744777,0,0,0,0,0,,,,,,,,
555115,101716.203125,283.87,0.497993,-9.825803,-0.181959,-0.005321,0.012770,-0.002128,281.57,4.01,2.03,0.73,0.02,-31.843215,0,0,0,0,0,,,,,,,,
560115,101719.953125,283.89,0.483628,-9.835380,-0.167594,-0.004256,0.014899,-0.003192,281.57,4.03,1.43,-0.07,0.02,-32.147979,0,0,0,0,0,,,,,,,,
565115,101723.718750,283.90,0.493205,-9.835380,-0.177170,-0.004256,0.013834,-0.004256,281.55,4.02,1.52,-0.14,0.02,-32.454002,0,0,0,0,0,,,,,,,,
570115,101708.859375,283.92,0.497993,-9.840168,-0.177170,-0.004256,0.014899,-0.003192,281.60,4.00,2.09,0.64,0.02,-31.246362,0,0,0,0,0,,,,,,,,
575115,101712.640625,283.94,0.483628,-9.830592,-0.167594,-0.004256,0.014899,-0.003192,281.69,4.03,1.65,0.22,0.02,-31.553682,0,0,0,0,0,,,,,,,,
580115,101716.406250,283.95,0.507570,-9.830592,-0.172382,-0.004256,0.014899,-0.003192,281.69,4.01,1.51,-0.11,0.02,-31.859724,0,0,0,0,0,,,,,,,,
585115,101720.156250,283.97,0.474051,-9.825803,-0.167594,-0.004256,0.013834,-0.003192,281.58,4.01,1.76,0.40,0.02,-32.164485,0,0,0,0,0,,,,,,,,
589445,101668.062500,283.98,0.043095,-156.791473,-2.370259,0.004256,-0.133028,0.007449,281.72,4.03,2.91,21.35,117.61,-27.930013,1,0,0,0,0,,,,,,,,
589455,101682.921875,283.97,3.270479,-156.791473,2.796427,0.109615,-0.346937,-0.081945,281.69,4.02,3.52,23.14,120.40,-29.138046,1,0,0,0,0,,,,,,,,
589465,101723.906250,283.98,1.000776,-156.791473,-2.169146,0.060660,-0.667269,-0.081945,281.64,4.02,3.16,23.98,122.93,-32.469238,1,0,0,0,0,,,,,,,,
589475,101645.687500,283.97,2.408566,-156.791473,4.170699,0.054275,-0.675782,-0.120257,281.72,4.03,4.48,26.45,125.21,-26.110708,1,0,0,0,0,,,,,,,,
589485,101649.437500,283.98,3.955221,-156.791473,2.461239,0.073431,-0.616186,-0.152184,281.70,4.03,5.41,28.53,127.28,-26.415641,1,0,0,0,0,,,,,,,,
589495,101668.062500,283.98,0.952892,-156.791473,1.230619,0.122385,-0.655562,-0.224551,281.75,4.02,5.76,30.01,129.15,-27.930013,1,0,0,0,0,,,,,,,,
589505,101664.296875,283.97,4.041412,-156.791473,3.787626,0.151119,-0.685361,-0.280955,281.69,4.02,6.11,31.49,130.84,-27.623853,1,0,0,0,0,,,,,,,,
589515,101630.812500,283.98,1.752555,-156.791473,0.565031,0.188367,-0.728994,-0.332038,281.66,4.03,7.06,33.54,132.38,-24.901046,1,0,0,0,0,,,,,,,,
589525,101612.203125,283.98,2.193088,-156.791473,3.375824,0.219230,-0.777948,-0.387377,281.72,4.03,8.17,35.73,133.76,-23.387496,1,0,0,0,0,,,,,,,,
589535,101612.203125,283.98,2.308010,-156.791473,1.072602,0.233065,-0.818389,-0.415047,281.64,4.02,9.02,37.65,135.02,-23.387496,1,0,0,0,0,,,,,,,,
589545,101612.203125,283.98,1.264138,-156.791473,1.125274,0.234129,-0.856701,-0.448038,281.67,4.02,9.67,39.36,136.15,-23.387496,1,0,0,0,0,,,,,,,,
589555,101612.203125,283.98,2.011129,-156.791473,2.231395,0.216037,-0.902462,-0.481029,281.66,4.03,10.18,40.91,137.18,-23.387496,1,0,0,0,0,,,,,,,,
589565,101593.578125,283.98,1.383848,-156.791473,0.450109,0.203267,-0.948224,-0.506571,281.70,4.03,10.95,42.71,138.11,-21.872451,1,0,0,0,0,,,,,,,,
589575,101574.968750,283.98,0.857124,-156.791473,2.092532,0.185175,-0.987600,-0.534241,281.73,4.03,11.92,44.68,138.95,-20.358453,1,0,0,0,0,,,,,,,,
589585,101556.343750,283.98,1.197100,-156.791473,1.106121,0.159633,-1.032298,-0.549140,281.78,4.02,13.04,46.78,139.71,-18.842958,1,0,0,0,0,,,,,,,,
589595,101537.718750,283.98,0.138863,-156.791473,0.699106,0.126642,-1.095087,-0.551268,281.69,4.02,14.27,48.98,140.40,-17.327238,1,0,0,0,0,,,,,,,,
589605,101519.109375,283.98,-0.158017,-156.791473,1.546654,0.077688,-1.149363,-0.544883,281.66,4.03,15.60,51.24,141.02,-15.812565,1,0,0,0,0,,,,,,,,
589615,101500.484375,283.98,0.028730,-156.791473,0.363918,0.031926,-1.214280,-0.532112,281.73,4.00,16.98,53.54,141.59,-14.296395,1,0,0,0,0,,,,,,,,
589625,101500.484375,283.98,-0.603338,-156.791473,1.623268,-0.020220,-1.280262,-0.509763,281.72,4.00,18.04,55.50,142.10,-14.296395,1,0,0,0,0,,,,,,,,
589635,101481.875000,283.98,-1.048660,-156.791473,0.818816,-0.062789,-1.360079,-0.485286,281.66,4.00,19.23,57.57,142.56,-12.781272,1,0,0,0,0,,,,,,,,
589645,101478.125000,283.97,-0.919373,-156.791473,1.268926,-0.102165,-1.412226,-0.454424,281.67,4.00,20.22,59.42,142.98,-12.475931,1,0,0,0,0,,,,,,,,
589655,101426.015625,283.98,-1.714248,-156.791473,1.580173,-0.136220,-1.471823,-0.422497,281.69,3.98,22.03,62.06,143.35,-8.232007,1,0,0,0,0,,,,,,,,
589665,101426.015625,283.98,-1.723825,-156.791473,0.842759,-0.170276,-1.538869,-0.386313,281.75,4.00,23.41,64.25,143.69,-8.232007,1,0,0,0,0,,,,,,,,
589675,101407.390625,283.98,-2.777273,-156.791473,2.643198,-0.177725,-1.613365,-0.320331,281.72,4.00,24.84,66.48,144.00,-6.714710,1,0,0,0,0,,,,,,,,
589685,101370.156250,283.98,-3.122039,-156.791473,1.642422,-0.188367,-1.665512,-0.238386,281.69,3.98,26.69,69.08,144.28,-3.680712,1,0,0,0,0,,,,,,,,
589695,101370.156250,283.98,-2.585737,-156.791473,1.958456,-0.193688,-1.718723,-0.143670,281.73,3.98,28.09,71.24,144.54,-3.680712,1,0,0,0,0,,,,,,,,
589705,101351.546875,283.98,-3.380612,-156.791473,3.102885,-0.193688,-1.769806,-0.056403,281.64,3.98,29.55,73.41,144.77,-2.164012,1,0,0,0,0,,,,,,,,
589715,101332.921875,283.98,-2.662352,-156.791473,2.614468,-0.179854,-1.830467,0.025541,281.69,3.98,31.03,75.60,144.97,-0.645812,1,0,0,0,0,,,,,,,,
589725,101314.296875,283.98,-2.786850,-156.791473,3.438073,-0.160697,-1.878357,0.112807,281.63,3.98,32.54,77.79,145.16,0.872612,1,0,0,0,0,,,,,,,,
589735,101314.296875,283.98,-2.686294,-156.791473,3.600879,-0.144734,-1.923054,0.185175,281.69,3.98,33.69,79.61,145.33,0.872612,1,0,0,0,0,,,,,,,,
589745,101291.953125,283.97,-1.891419,-156.791473,3.605667,-0.120257,-1.970945,0.255414,281.63,3.98,35.02,81.59,145.49,2.694512,1,0,0,0,0,,,,,,,,
589755,101291.953125,283.97,-1.594538,-156.791473,4.357447,-0.086202,-2.024156,0.315010,281.70,3.98,36.03,83.24,145.63,2.694512,1,0,0,0,0,,,,,,,,
589765,101295.687500,283.98,-1.096544,-156.791473,4.443638,-0.035119,-2.080560,0.355451,281.66,3.98,36.73,84.57,145.76,2.389990,1,0,0,0,0,,,,,,,,
589775,101277.062500,283.98,-0.287304,-156.791473,3.825934,0.012770,-2.159312,0.384185,281.66,3.98,37.65,86.10,145.87,3.908868,1,0,0,0,0,,,,,,,,
589785,101277.062500,283.98,0.526724,-156.791473,4.888959,0.062789,-2.207202,0.398020,281.77,3.98,38.34,87.40,145.98,3.908868,1,0,0,0,0,,,,,,,,
589795,101258.453125,283.98,0.277727,-156.791473,4.055777,0.107486,-2.260414,0.388442,281.70,3.98,39.25,88.89,146.07,5.426697,1,0,0,0,0,,,,,,,,
589805,101239.828125,283.98,2.097320,-156.791473,4.505887,0.152184,-2.296597,0.385249,281.70,3.98,40.33,90.54,146.16,6.946027,1,0,0,0,0,,,,,,,,
589815,101221.203125,283.98,2.030282,-156.791473,4.089296,0.187303,-2.314689,0.332038,281.77,4.01,41.53,92.28,146.24,8.465583,1,0,0,0,0,,,,,,,,
589825,101202.593750,283.98,3.313575,-156.791473,3.509899,0.218166,-2.339167,0.275634,281.70,4.02,42.82,94.10,146.31,9.984090,1,0,0,0,0,,,,,,,,
589835,101198.859375,283.97,3.165134,-156.791473,3.830722,0.234129,-2.353001,0.214973,281.66,4.02,43.88,95.67,146.37,10.288840,1,0,0,0,0,,,,,,,,
589845,101183.968750,283.98,3.672705,-156.791473,2.188300,0.230936,-2.350873,0.138349,281.72,4.02,44.99,97.28,146.43,11.504099,1,0,0,0,0,,,,,,,,
589855,101165.359375,283.98,3.711012,-156.791473,3.423708,0.225615,-2.354066,0.061725,281.69,4.02,46.21,98.99,146.48,13.023059,1,0,0,0,0,,,,,,,,
589865,101128.109375,283.98,3.495534,-156.791473,1.810016,0.200074,-2.361515,-0.022348,281.67,4.03,47.90,101.13,146.52,16.064210,1,0,0,0,0,,,,,,,,
589875,101109.500000,283.98,2.968810,-156.791473,2.169146,0.169211,-2.374286,-0.090459,281.69,4.02,49.56,103.23,146.56,17.583850,1,0,0,0,0,,,,,,,,
589885,101090.875000,283.98,2.815581,-156.791473,2.231395,0.125578,-2.408341,-0.152184,281.72,4.02,51.21,105.28,146.60,19.104991,1,0,0,0,0,,,,,,,,
589895,101072.265625,283.98,0.071826,-156.791473,0.052672,0.062789,-2.428561,-0.177725,281.63,4.02,52.83,107.30,146.64,20.625085,1,0,0,0,0,,,,,,,,
589905,101035.031250,283.98,2.518700,-156.791473,2.868253,-0.013834,-2.454103,-0.195817,281.63,4.02,54.83,109.66,146.66,23.667226,1,0,0,0,0,,,,,,,,
589915,101016.406250,283.98,0.560243,-156.791473,0.794874,-0.073431,-2.503057,-0.196881,281.70,4.02,56.72,111.90,146.69,25.189277,1,0,0,0,0,,,,,,,,
589925,100997.781250,283.98,0.248996,-156.791473,2.887407,-0.128771,-2.541369,-0.200074,281.69,4.03,58.54,114.04,146.72,26.711555,1,0,0,0,0,,,,,,,,
589935,100960.546875,283.98,0.651222,-156.791473,3.869029,-0.207523,-2.604159,-0.183046,281.69,4.02,60.68,116.47,146.74,29.755514,1,0,0,0,0,,,,,,,,
589945,100941.937500,283.98,-0.067037,-156.791473,4.089296,-0.217101,-2.668012,-0.150055,281.72,4.02,62.69,118.75,146.76,31.277196,1,0,0,0,0,,,,,,,,
589955,100904.687500,283.98,-1.398213,-156.791473,4.946420,-0.208588,-2.730801,-0.116000,281.69,4.02,64.97,121.27,146.77,34.323795,1,0,0,0,0,,,,,,,,
589965,100904.687500,283.98,-0.186747,-156.791473,4.951209,-0.195817,-2.782948,-0.072367,281.69,4.02,66.70,123.24,146.79,34.323795,1,0,0,0,0,,,,,,,,
589975,100886.078125,283.98,0.095768,-156.791473,5.889736,-0.170276,-2.851059,-0.029798,281.73,4.03,68.40,125.15,146.81,35.846160,1,0,0,0,0,,,,,,,,
589985,100867.453125,283.98,-0.588973,-156.791473,5.104437,-0.123450,-2.925554,-0.009578,281.66,4.03,70.06,127.02,146.82,37.370029,1,0,0,0,0,,,,,,,,
589995,100826.500000,283.97,-0.363918,-156.666976,6.416460,-0.098972,-2.986215,0.010642,281.69,4.02,72.16,129.28,146.82,40.721553,1,0,0,0,0,,,,,,,,
590005,100807.875000,283.97,1.053448,-156.729232,6.665457,-0.053211,-3.036234,0.021284,281.70,4.03,74.14,131.41,146.83,42.246154,1,0,0,0,0,,,,,,,,
590015,100811.593750,283.98,-0.483628,-156.700500,5.870582,-0.013834,-3.077739,0.032990,281.78,4.00,75.56,132.97,146.83,41.941726,1,0,0,0,0,,,,,,,,
590025,100792.984375,283.98,1.599326,-156.020538,5.415684,0.003192,-3.143721,0.037247,281.72,3.98,77.02,134.55,146.77,43.465229,1,0,0,0,0,,,,,,,,
590035,100774.359375,283.98,1.991975,-155.383682,6.320692,0.035119,-3.174583,0.036183,281.69,3.98,78.51,136.14,146.66,44.990238,1,0,0,0,0,,,,,,,,
590045,100737.125000,283.98,0.794874,-154.952728,7.321468,0.067046,-3.237372,0.006385,281.67,3.98,80.40,138.10,146.51,48.039661,1,0,0,0,0,,,,,,,,
590055,100718.500000,283.98,3.107673,-153.200180,5.669469,0.108550,-3.253336,-0.025541,281.72,3.98,82.21,139.96,146.21,49.565357,1,0,0,0,0,,,,,,,,
590065,100677.546875,283.97,1.896207,-147.487609,6.746860,0.152184,-3.311868,-0.079816,281.63,3.98,84.43,142.14,145.40,52.920894,1,0,0,0,0,,,,,,,,
590075,100662.656250,283.98,1.977610,-144.442184,4.989516,0.168147,-3.372529,-0.128771,281.75,3.98,86.42,144.05,144.37,54.141250,1,0,0,0,0,,,,,,,,
590085,100644.031250,283.98,1.259350,-142.239517,4.582501,0.180918,-3.423612,-0.151119,281.67,3.98,88.31,145.82,143.24,55.667858,1,0,0,0,0,,,,,,,,
590095,100588.171875,283.98,1.187524,-139.380844,5.257667,0.181982,-3.473631,-0.191560,281.70,3.98,90.88,148.22,141.93,60.247772,1,0,0,0,0,,,,,,,,
590105,100565.843750,283.97,1.177947,-136.177398,3.327940,0.175597,-3.484273,-0.210716,281.63,3.98,93.29,150.40,140.45,62.079036,1,0,0,0,0,,,,,,,,
590115,100550.937500,283.98,0.014365,-132.083312,4.352658,0.159633,-3.514071,-0.239450,281.72,3.98,95.42,152.26,138.72,63.301769,1,0,0,0,0,,,,,,,,
590125,100532.328125,283.98,0.153228,-129.478424,3.356670,0.144734,-3.571539,-0.260735,281.72,3.98,97.42,153.94,136.91,64.828468,1,0,0,0,0,,,,,,,,
590135,100513.703125,283.98,-0.814028,-128.381881,2.925714,0.121321,-3.653485,-0.255414,281.66,3.98,99.31,155.50,135.16,66.356681,1,0,0,0,0,,,,,,,,
590145,100472.750000,283.97,-1.508347,-127.141685,3.035847,0.088330,-3.707760,-0.238386,281.66,3.98,101.58,157.39,133.46,69.717750,1,0,0,0,0,,,,,,,,
590155,100435.515625,283.97,-2.020706,-123.310958,3.418920,0.067046,-3.754586,-0.217101,281.69,3.98,104.06,159.43,131.56,72.774589,1,0,0,0,0,,,,,,,,
590165,100401.984375,283.98,-2.451662,-120.797050,2.973598,0.045761,-3.798219,-0.180918,281.80,3.98,106.62,161.52,129.60,75.528190,1,0,0,0,0,,,,,,,,
590175,100398.281250,283.97,-3.457227,-120.701278,3.878606,0.031926,-3.829082,-0.126642,281.63,3.98,108.64,163.04,127.82,75.832344,1,0,0,0,0,,,,,,,,
590185,100342.437500,283.97,-3.112462,-117.876121,3.557783,0.005321,-3.852495,-0.087266,281.70,3.98,111.31,165.16,125.94,80.420051,1,0,0,0,0,,,,,,,,
590195,100327.515625,283.98,-4.151545,-117.837814,4.802768,0.020220,-3.934440,-0.031926,281.70,3.98,113.63,166.92,124.24,81.646270,1,0,0,0,0,,,,,,,,
590205,100308.890625,283.98,-3.854664,-114.150749,3.845087,0.017027,-3.981266,0.013834,281.66,3.98,115.77,168.45,122.34,83.177009,1,0,0,0,0,,,,,,,,
590215,100271.656250,283.98,-3.816357,-109.936950,4.611232,0.029798,-4.038734,0.068110,281.69,4.01,118.16,170.16,120.23,86.237884,1,0,0,0,0,,,,,,,,
590225,100253.046875,283.98,-2.734178,-109.094192,5.688622,0.041504,-4.069596,0.107486,281.73,4.01,120.34,171.66,118.23,87.768028,1,0,0,0,0,,,,,,,,
590235,100215.812500,283.98,-2.509123,-112.872245,5.621585,0.070238,-4.099395,0.135156,281.75,4.01,122.75,173.38,116.79,90.830291,1,0,0,0,0,,,,,,,,
590245,100215.812500,283.98,-0.957680,-111.181938,6.114790,0.086202,-4.105780,0.159633,281.67,4.02,124.57,174.50,115.32,90.830291,1,0,0,0,0,,,,,,,,
590255,100178.562500,283.98,-0.536301,-106.111015,5.856217,0.136220,-4.138772,0.163890,281.72,4.02,126.71,175.88,113.51,93.894760,1,0,0,0,0,,,,,,,,
590265,100178.562500,283.98,0.282515,-102.366485,5.827486,0.171340,-4.176019,0.128771,281.70,4.02,128.33,176.70,111.52,93.894760,1,0,0,0,0,,,,,,,,
590275,100141.328125,283.98,0.632069,-103.281074,4.975151,0.212845,-4.178147,0.096844,281.67,4.02,130.31,177.87,109.81,96.958862,1,0,0,0,0,,,,,,,,
590285,100104.093750,283.98,1.982398,-101.969047,3.533841,0.201138,-4.152606,0.024477,281.72,4.03,132.58,179.29,108.13,100.023887,1,0,0,0,0,,,,,,,,
590295,100029.625000,283.98,-2.169146,1.838746,3.529053,0.194753,-4.147285,-0.063853,281.70,4.02,135.91,180.88,96.73,106.156707,1,0,0,0,0,,,,,,,,
590305,100066.859375,283.98,5.506663,-127.132110,-0.086191,0.197945,-4.637893,-0.173468,281.70,4.03,137.53,181.83,98.69,103.089836,1,0,0,0,0,,,,,,,,
590315,100048.234375,283.98,-1.781286,-84.448280,8.844181,0.130899,-4.289891,-0.260735,281.75,4.02,139.17,182.45,96.41,104.623802,1,0,0,0,0,,,,,,,,
590325,99973.765625,283.98,-2.882618,-52.193595,-0.632069,0.168147,-4.311176,-0.221358,281.67,4.02,141.97,183.91,91.27,110.759399,1,0,0,0,0,,,,,,,,
590335,99936.531250,283.98,-2.930502,-32.949005,2.600102,0.125578,-4.375029,-0.259670,281.69,4.02,144.86,185.28,84.79,113.828582,1,0,0,0,0,,,,,,,,
590345,99932.843750,283.97,-6.349422,-27.495012,-0.679953,0.097908,-4.306919,-0.205395,281.64,4.02,147.11,185.96,78.41,114.132591,1,0,0,0,0,,,,,,,,
590355,99917.906250,283.98,-6.727706,-26.652252,1.656787,0.044697,-4.335653,-0.146863,281.69,4.02,149.11,186.37,72.55,115.364166,1,0,0,0,0,,,,,,,,
590365,99899.281250,283.98,-7.010222,-26.278757,1.900996,0.011706,-4.311176,-0.065981,281.70,4.03,151.00,186.65,67.22,116.899986,1,0,0,0,0,,,,,,,,
590375,99880.671875,283.98,-5.655104,-25.684995,3.869029,0.009578,-4.332460,0.006385,281.64,4.03,152.79,186.83,62.34,118.434745,1,0,0,0,0,,,,,,,,
590385,99862.046875,283.98,-5.817910,-25.661052,4.630385,0.047890,-4.376093,0.071303,281.66,4.03,154.51,186.93,57.92,119.971023,1,0,0,0,0,,,,,,,,
590395,99843.437500,283.98,-3.562572,-25.239673,5.449203,0.104294,-4.389928,0.096844,281.69,4.02,156.19,186.97,53.88,121.506248,1,0,0,0,0,,,,,,,,
590405,99821.125000,283.97,-3.734954,-25.119964,5.094861,0.169211,-4.408020,0.096844,281.64,4.02,157.90,187.04,50.22,123.347274,1,0,0,0,0,,,,,,,,
590415,99806.203125,283.98,-1.719036,-24.602815,4.620809,0.232001,-4.460167,0.081945,281.64,4.01,159.49,186.98,46.85,124.578674,1,0,0,0,0,,,,,,,,
590425,99806.203125,283.98,-2.652775,-23.932439,2.901772,0.295854,-4.470809,0.048954,281.73,4.00,160.68,186.52,43.74,124.578674,1,0,0,0,0,,,,,,,,
590435,99746.656250,283.97,-2.102108,-23.649923,-0.612915,0.282019,-4.418663,0.022348,281.67,4.00,162.79,186.95,40.90,129.494171,1,0,0,0,0,,,,,,,,
590445,99750.343750,283.98,-1.843535,-23.104045,-0.881066,0.228808,-4.416534,-0.017027,281.66,4.00,164.30,186.78,38.28,129.189712,1,0,0,0,0,,,,,,,,
590455,99713.109375,283.98,-1.972822,-22.984336,-1.489193,0.158569,-4.415470,-0.041504,281.67,4.00,166.20,186.98,35.89,132.264465,1,0,0,0,0,,,,,,,,
590465,99672.187500,283.97,-2.140416,-22.352266,-1.805227,0.085138,-4.379286,-0.061725,281.70,3.98,168.47,187.54,33.67,135.644790,1,0,0,0,0,,,,,,,,
590475,99675.859375,283.98,-2.126051,-22.845472,-0.837970,0.010642,-4.346295,-0.074495,281.70,3.98,170.09,187.46,31.71,135.341430,1,0,0,0,0,,,,,,,,
590485,99638.625000,283.98,-3.438073,-22.256498,-1.426944,-0.063853,-4.303726,-0.081945,281.69,3.98,172.08,187.73,29.88,138.418045,1,0,0,0,0,,,,,,,,
590495,99620.015625,283.98,-3.088520,-21.801599,0.976834,-0.106422,-4.302662,-0.071303,281.67,3.98,173.96,187.88,28.18,139.956054,1,0,0,0,0,,,,,,,,
590505,99601.390625,283.98,-3.083731,-21.385009,0.507570,-0.130899,-4.323946,-0.047890,281.66,3.98,175.75,187.94,26.60,141.495590,1,0,0,0,0,,,,,,,,
590515,99601.390625,283.98,-3.213018,-21.255722,1.766920,-0.136220,-4.344167,-0.036183,281.70,4.00,177.09,187.56,25.16,141.495590,1,0,0,0,0,,,,,,,,
590525,99582.765625,283.98,-2.087743,-21.030668,3.620033,-0.121321,-4.354809,-0.024477,281.69,3.98,178.48,187.22,23.84,143.035354,1,0,0,0,0,,,,,,,,
590535,99545.531250,283.98,-3.773261,-20.791246,4.180275,-0.067046,-4.389928,-0.029798,281.69,3.98,180.29,187.29,22.61,146.114303,1,0,0,0,0,,,,,,,,
590545,99545.531250,283.98,-3.040636,-19.972431,5.133168,-0.007449,-4.395249,-0.028734,281.66,3.98,181.64,186.91,21.43,146.114303,1,0,0,0,0,,,,,,,,
590555,99523.250000,283.97,-4.156333,-20.053833,4.922478,0.058532,-4.436754,-0.027669,281.69,3.98,183.12,186.65,20.37,147.957199,1,0,0,0,0,,,,,,,,
590565,99526.921875,283.98,-3.624821,-19.823989,5.942408,0.123450,-4.479323,-0.022348,281.67,3.98,184.15,185.95,19.39,147.653472,1,0,0,0,0,,,,,,,,
590575,99489.671875,283.98,-4.462791,-19.120094,5.291185,0.199010,-4.472938,-0.006385,281.70,3.98,185.68,185.75,18.43,150.735107,1,0,0,0,0,,,,,,,,
590585,99489.671875,283.98,-3.471592,-18.942922,5.204994,0.283083,-4.530406,-0.001064,281.66,3.98,186.83,185.17,17.55,150.735107,1,0,0,0,0,,,,,,,,
590595,99452.437500,283.98,-3.552995,-18.583793,3.165134,0.321395,-4.524021,-0.002128,281.67,3.98,188.46,185.05,16.72,153.816390,1,0,0,0,0,,,,,,,,
590605,99430.156250,283.97,-3.117250,-18.047492,2.992752,0.341616,-4.525085,-0.002128,281.69,3.98,190.13,184.98,15.91,155.660690,1,0,0,0,0,,,,,,,,
590615,99411.531250,283.97,-4.467580,-17.918205,0.885854,0.339487,-4.513379,-0.008513,281.63,4.01,191.78,184.88,15.17,157.202606,1,0,0,0,0,,,,,,,,
590625,99374.296875,283.97,-3.323151,-17.769763,1.283292,0.312882,-4.502737,-0.003192,281.70,4.01,193.78,185.12,14.48,160.285842,1,0,0,0,0,,,,,,,,
590635,99337.062500,283.97,-4.893748,-17.922992,-0.349553,0.254349,-4.485709,0.010642,281.63,4.02,196.05,185.62,13.88,163.370010,1,0,0,0,0,,,,,,,,
590645,99337.062500,283.97,-4.022258,-17.247829,-0.268150,0.212845,-4.469745,0.028734,281.60,4.02,197.76,185.56,13.27,163.370010,1,0,0,0,0,,,,,,,,
590655,99303.500000,283.98,-3.620033,-16.931793,0.234631,0.163890,-4.447397,0.052147,281.63,4.02,199.74,185.76,12.68,166.150833,1,0,0,0,0,,,,,,,,
590665,99299.828125,283.97,-4.601655,-16.998832,-0.038307,0.126642,-4.399507,0.067046,281.66,4.01,201.30,185.55,12.16,166.455123,1,0,0,0,0,,,,,,,,
590675,99281.203125,283.97,-3.280056,-16.917428,0.876277,0.096844,-4.401635,0.085138,281.70,4.02,202.85,185.34,11.68,167.998672,1,0,0,0,0,,,,,,,,
590685,99262.593750,283.97,-3.452438,-16.812084,0.076614,0.067046,-4.408020,0.093651,281.64,4.02,204.40,185.12,11.24,169.541168,1,0,0,0,0,,,,,,,,
590695,99225.359375,283.97,-2.729389,-16.658855,0.656011,0.055339,-4.435690,0.097908,281.69,4.02,206.33,185.27,10.82,172.628143,1,0,0,0,0,,,,,,,,
590705,99206.734375,283.97,-2.178723,-16.476896,1.656787,0.028734,-4.451653,0.089394,281.63,4.02,208.17,185.33,10.42,174.172637,1,0,0,0,0,,,,,,,,
590715,99188.125000,283.97,-2.025494,-16.165649,1.206677,0.037247,-4.463360,0.071303,281.69,4.02,209.93,185.31,10.04,175.716064,1,0,0,0,0,,,,,,,,
590725,99188.125000,283.97,-1.446097,-15.931017,2.676717,0.041504,-4.470809,0.040440,281.66,4.02,211.25,184.87,9.67,175.716064,1,0,0,0,0,,,,,,,,
590735,99154.546875,283.98,-1.671152,-16.338031,1.685518,0.045761,-4.479323,0.009578,281.70,4.02,212.93,184.78,9.37,178.501571,1,0,0,0,0,,,,,,,,
590745,99113.656250,283.97,-1.680729,-15.164873,2.715024,0.061725,-4.489965,-0.012770,281.66,4.03,215.04,185.09,8.99,181.894729,1,0,0,0,0,,,,,,,,
590755,99095.031250,283.97,-1.848323,-13.804966,2.738966,0.071303,-4.482516,-0.045761,281.64,4.02,217.02,185.26,8.51,183.440628,1,0,0,0,0,,,,,,,,
590765,99095.031250,283.97,-1.393425,-12.574347,1.604115,0.083009,-4.496351,-0.059596,281.72,4.03,218.50,184.94,7.97,183.440628,1,0,0,0,0,,,,,,,,
590775,99057.796875,283.97,-2.293645,-10.898406,2.700659,0.094716,-4.508058,-0.080881,281.64,4.03,220.38,184.99,7.31,186.531829,1,0,0,0,0,,,,,,,,
590785,99039.171875,283.97,-2.561795,-9.083600,1.297657,0.093651,-4.529342,-0.091523,281.63,4.03,222.18,184.95,6.55,188.078445,1,0,0,0,0,,,,,,,,
590795,99039.171875,283.97,-2.576160,-6.847416,2.298433,0.100037,-4.544241,-0.095780,281.66,4.02,223.54,184.45,5.65,188.078445,1,0,0,0,0,,,,,,,,
590805,99020.562500,283.97,-3.888183,-4.572925,1.393425,0.097908,-4.550626,-0.079816,281.72,4.03,224.93,183.99,4.61,189.623992,1,0,0,0,0,,,,,,,,
590815,99001.937500,283.97,-3.371036,-1.225831,2.183511,0.117064,-4.552755,-0.062789,281.66,4.01,226.37,183.53,3.36,191.171066,1,0,0,0,0,,,,,,,,
590825,98964.703125,283.97,-2.643198,1.541865,2.087743,0.124514,-4.560204,-0.048954,281.64,4.00,228.21,183.46,1.96,194.264633,1,0,0,0,0,,,,,,,,
590835,98964.703125,283.97,-3.605667,4.271255,0.751779,0.128771,-4.562333,-0.036183,281.61,4.00,229.60,182.91,0.44,194.264633,1,0,0,0,0,,,,,,,,
590845,98927.468750,283.97,-3.107673,6.502651,1.436521,0.137285,-4.563397,-0.026605,281.63,3.98,231.41,182.76,-1.14,197.359130,1,0,0,0,0,,,,,,,,
590855,98908.859375,283.97,-3.007117,8.475473,0.986411,0.137285,-4.571911,-0.002128,281.73,4.00,233.15,182.52,-2.77,198.906097,1,0,0,0,0,,,,,,,,
590865,98890.234375,283.97,-2.935291,10.376469,0.842759,0.134092,-4.551691,0.008513,281.70,4.00,234.84,182.22,-4.43,200.454589,1,0,0,0,0,,,,,,,,
590875,98890.234375,283.97,-2.063801,12.315773,1.503558,0.142606,-4.524021,0.006385,281.73,4.00,236.11,181.50,-6.11,200.454589,1,0,0,0,0,,,,,,,,
590885,98867.968750,283.95,-2.595314,14.049175,0.119710,0.136220,-4.496351,0.005321,281.66,3.98,237.52,180.90,-7.79,202.306076,1,0,0,0,0,,,,,,,,
590895,98853.000000,283.97,-2.604891,15.600618,0.459686,0.124514,-4.467617,-0.010642,281.67,3.98,238.88,180.24,-9.46,203.550979,1,0,0,0,0,,,,,,,,
590905,98834.375000,283.97,-2.461239,17.185579,0.335188,0.120257,-4.478259,-0.018091,281.66,4.00,240.29,179.62,-11.13,205.100173,1,0,0,0,0,,,,,,,,
590915,98815.765625,283.97,-2.724601,18.583793,-0.023942,0.119193,-4.463360,-0.021284,281.64,3.98,241.72,179.02,-12.77,206.648315,1,0,0,0,0,,,,,,,,
590925,98797.140625,283.97,-3.064578,19.996372,0.052672,0.104294,-4.445268,-0.022348,281.64,3.98,243.18,178.43,-14.38,208.197982,1,0,0,0,0,,,,,,,,
590935,98778.531250,283.97,-2.762908,20.259735,0.794874,0.121321,-4.447397,-0.027669,281.63,4.00,244.66,177.86,-15.87,209.746597,1,0,0,0,0,,,,,,,,
590945,98756.265625,283.95,-3.102885,19.507955,-0.220266,0.123450,-4.459103,-0.029798,281.60,4.00,246.22,177.38,-17.15,211.599777,1,0,0,0,0,,,,,,,,
590955,98741.296875,283.97,-2.346317,17.899051,0.378283,0.113872,-4.444204,-0.022348,281.69,4.00,247.70,176.83,-18.15,212.845825,1,0,0,0,0,,,,,,,,
590965,98737.640625,283.95,-3.251325,20.796035,-0.220266,0.116000,-4.467617,-0.010642,281.77,3.98,248.88,175.98,-19.33,213.150207,1,0,0,0,0,,,,,,,,
590975,98700.406250,283.95,-3.299209,21.576545,0.651222,0.134092,-4.529342,-0.007449,281.61,3.98,250.54,175.59,-20.48,216.250473,1,0,0,0,0,,,,,,,,
590985,98700.406250,283.95,-2.997540,20.824766,-0.095768,0.172404,-4.626186,0.013834,281.69,3.98,251.77,174.80,-21.44,216.250473,1,0,0,0,0,,,,,,,,
590995,98666.812500,283.97,-3.098096,21.538238,0.536301,0.193688,-4.670884,0.022348,281.63,3.98,253.39,174.38,-22.38,219.048431,1,0,0,0,0,,,,,,,,
591005,98666.812500,283.97,-3.141192,20.930110,-0.292092,0.214973,-4.724095,0.032990,281.63,3.98,254.60,173.57,-23.17,219.048431,1,0,0,0,0,,,,,,,,
591015,98629.578125,283.97,-2.351105,20.733785,-0.651222,0.226679,-4.780499,0.042569,281.63,4.02,256.28,173.22,-23.87,222.150497,1,0,0,0,0,,,,,,,,
591025,98625.937500,283.95,-2.829946,20.819976,-0.952892,0.214973,-4.802847,0.042569,281.63,4.02,257.61,172.54,-24.51,222.453857,1,0,0,0,0,,,,,,,,
591035,98607.328125,283.95,-2.422932,20.724208,-1.934514,0.206459,-4.787949,0.041504,281.67,4.01,258.99,171.91,-25.08,224.004638,1,0,0,0,0,,,,,,,,
591045,98570.093750,283.95,-2.466027,20.728998,-1.680729,0.183046,-4.803912,0.038312,281.72,4.02,260.79,171.70,-25.60,227.108230,1,0,0,0,0,,,,,,,,
591055,98570.093750,283.95,-2.624045,21.159954,-1.800439,0.154312,-4.828390,0.043633,281.66,4.02,262.14,171.05,-26.11,227.108230,1,0,0,0,0,,,,,,,,
591065,98570.093750,283.95,-2.183511,21.203050,-1.862688,0.137285,-4.848609,0.044697,281.61,4.02,263.16,170.07,-26.57,227.108230,1,0,0,0,0,,,,,,,,
591075,98532.859375,283.95,-2.375048,21.332336,-1.857900,0.098972,-4.849674,0.035119,281.63,4.03,264.68,169.59,-27.00,230.212768,1,0,0,0,0,,,,,,,,
591085,98514.234375,283.95,-2.461239,20.733785,-0.541089,0.083009,-4.844352,0.042569,281.66,4.03,266.21,169.13,-27.34,231.766036,1,0,0,0,0,,,,,,,,
591095,98514.234375,283.95,-2.676717,20.877437,-1.125274,0.068110,-4.841160,0.038312,281.58,4.02,267.35,168.30,-27.65,231.766036,1,0,0,0,0,,,,,,,,
591105,98477.000000,283.95,-1.637633,20.451271,-0.277727,0.076624,-4.825196,0.036183,281.67,4.03,268.97,167.95,-27.90,234.872009,1,0,0,0,0,,,,,,,,
591115,98480.640625,283.97,-2.485181,20.556615,-0.507570,0.081945,-4.807105,0.038312,281.66,4.02,270.12,167.13,-28.13,234.568267,1,0,0,0,0,,,,,,,,
591125,98439.765625,283.95,-2.049436,20.934898,0.196324,0.101101,-4.816683,0.031926,281.64,4.02,271.82,166.86,-28.38,237.978912,1,0,0,0,0,,,,,,,,
591135,98439.765625,283.95,-1.857900,20.944475,-0.474051,0.117064,-4.823068,0.025541,281.57,4.03,273.09,166.17,-28.60,237.978912,1,0,0,0,0,,,,,,,,
591145,98439.765625,283.95,-2.082955,20.786458,0.071826,0.123450,-4.810297,0.019156,281.63,4.02,274.04,165.18,-28.79,237.978912,1,0,0,0,0,,,,,,,,
591155,98402.531250,283.95,-2.111685,20.733785,-0.229843,0.137285,-4.797526,0.013834,281.63,4.02,275.53,164.71,-28.96,241.086776,1,0,0,0,0,,,,,,,,
591165,98380.265625,283.94,-2.116474,20.647594,-0.555454,0.148991,-4.789013,0.011706,281.66,4.02,277.10,164.34,-29.10,242.945693,1,0,0,0,0,,,,,,,,
591175,98383.921875,283.95,-1.824381,20.590133,0.205901,0.154312,-4.792205,0.005321,281.63,4.03,278.20,163.51,-29.22,242.640411,1,0,0,0,0,,,,,,,,
591185,98346.687500,283.95,-2.571372,20.527885,-0.679953,0.157505,-4.781563,-0.001064,281.69,4.02,279.79,163.18,-29.32,245.749710,1,0,0,0,0,,,,,,,,
591195,98328.062500,283.95,-1.872265,20.489578,-0.723048,0.163890,-4.787949,0.001064,281.64,4.03,281.38,162.83,-29.42,247.305374,1,0,0,0,0,,,,,,,,
591205,98309.453125,283.95,-3.021482,20.427328,-0.780509,0.164954,-4.778370,0.014899,281.64,4.03,282.95,162.47,-29.49,248.859954,1,0,0,0,0,,,,,,,,
591215,98309.453125,283.95,-1.795651,20.302829,-1.460463,0.148991,-4.765600,0.008513,281.63,4.01,284.13,161.74,-29.55,248.859954,1,0,0,0,0,,,,,,,,
591225,98309.453125,283.95,-2.590526,20.168754,-1.675941,0.139413,-4.758150,0.012770,281.67,4.00,285.00,160.73,-29.59,248.859954,1,0,0,0,0,,,,,,,,
591235,98290.828125,283.95,-3.112462,19.972431,-1.230619,0.136220,-4.747508,0.025541,281.63,4.00,286.04,159.88,-29.60,250.416091,1,0,0,0,0,,,,,,,,
591245,98290.828125,283.95,-2.298433,20.068199,-1.632845,0.123450,-4.732609,0.042569,281.63,4.00,286.82,158.78,-29.62,250.416091,1,0,0,0,0,,,,,,,,
591255,98253.593750,283.95,-2.523488,19.852720,-1.958456,0.107486,-4.710260,0.057468,281.66,4.00,288.17,158.26,-29.63,253.527770,1,0,0,0,0,,,,,,,,
591265,98253.593750,283.95,-2.571372,19.699491,-1.221042,0.089394,-4.699618,0.069174,281.69,4.00,289.18,157.40,-29.61,253.527770,1,0,0,0,0,,,,,,,,
591275,98212.718750,283.94,-1.905784,19.838354,-1.651999,0.079816,-4.687911,0.076624,281.70,3.98,290.78,157.14,-29.61,256.944793,1,0,0,0,0,,,,,,,,
591285,98212.718750,283.94,-1.675941,20.111293,-1.082179,0.064917,-4.663434,0.075559,281.60,4.00,291.98,156.48,-29.64,256.944793,1,0,0,0,0,,,,,,,,
591295,98194.109375,283.94,-1.824381,19.584569,-0.450109,0.065981,-4.638957,0.069174,281.66,3.98,293.26,155.91,-29.62,258.500854,1,0,0,0,0,,,,,,,,
591305,98179.125000,283.95,-0.962469,19.752162,-1.479616,0.073431,-4.631507,0.062789,281.70,4.00,294.54,155.34,-29.61,259.753997,1,0,0,0,0,,,,,,,,
591315,98160.515625,283.95,-1.948880,19.608510,-1.206677,0.071303,-4.612351,0.047890,281.66,4.00,295.87,154.84,-29.59,261.310485,1,0,0,0,0,,,,,,,,
591325,98141.890625,283.95,-1.211466,19.364303,-1.608903,0.057468,-4.576168,0.032990,281.64,4.00,297.26,154.40,-29.55,262.868530,1,0,0,0,0,,,,,,,,
591335,98123.281250,283.95,-1.350329,19.618087,-1.972822,0.043633,-4.576168,0.023412,281.66,3.98,298.69,153.99,-29.54,264.425506,1,0,0,0,0,,,,,,,,
591345,98119.640625,283.94,-2.877830,19.469648,-1.139639,0.034055,-4.567654,0.025541,281.64,3.98,299.84,153.31,-29.51,264.730133,1,0,0,0,0,,,,,,,,
591355,98123.281250,283.95,-0.895431,19.450494,-1.498770,0.024477,-4.565525,0.021284,281.69,3.98,300.62,152.29,-29.48,264.425506,1,0,0,0,0,,,,,,,,
591365,98063.796875,283.94,-2.365471,19.517532,-0.761356,0.020220,-4.563397,0.028734,281.64,3.98,302.43,152.28,-29.47,269.403961,1,0,0,0,0,,,,,,,,
591375,98067.421875,283.95,-2.499546,19.484012,-0.292092,0.024477,-4.564461,0.029798,281.60,3.98,303.72,151.77,-29.45,269.100494,1,0,0,0,0,,,,,,,,
591385,98045.171875,283.94,-1.565807,19.488801,-0.646434,0.038312,-4.574039,0.047890,281.64,3.98,305.15,151.39,-29.43,270.963256,1,0,0,0,0,,,,,,,,
591395,98026.562500,283.94,-2.671929,19.469648,-0.708683,0.043633,-4.583617,0.059596,281.69,3.98,306.61,151.04,-29.42,272.521453,1,0,0,0,0,,,,,,,,
591405,98007.937500,283.94,-2.054224,19.464859,-0.038307,0.064917,-4.571911,0.068110,281.70,4.00,308.09,150.72,-29.40,274.081237,1,0,0,0,0,,,,,,,,
591415,98007.937500,283.94,-1.939303,19.282899,-0.627280,0.077688,-4.572975,0.074495,281.70,4.02,309.20,150.04,-29.37,274.081237,1,0,0,0,0,,,,,,,,
591425,97992.953125,283.95,-2.025494,19.311630,-0.416591,0.081945,-4.568718,0.065981,281.67,4.02,310.34,149.40,-29.35,275.336303,1,0,0,0,0,,,,,,,,
591435,97970.703125,283.94,-2.552218,18.995595,-0.837970,0.092587,-4.558076,0.087266,281.64,4.01,311.65,148.94,-29.29,277.200195,1,0,0,0,0,,,,,,,,
591445,97952.093750,283.94,-2.078166,18.828001,-0.598550,0.094716,-4.545306,0.096844,281.64,4.02,313.03,148.54,-29.23,278.759368,1,0,0,0,0,,,,,,,,
591455,97933.468750,283.94,-2.379836,18.885461,-1.230619,0.101101,-4.553819,0.100037,281.69,4.02,314.44,148.19,-29.18,280.320098,1,0,0,0,0,,,,,,,,
591465,97914.859375,283.94,-1.192312,19.067422,-0.517147,0.100037,-4.538920,0.097908,281.60,4.03,315.89,147.87,-29.15,281.879760,1,0,0,0,0,,,,,,,,
591475,97914.859375,283.94,-2.183511,18.698715,-1.345541,0.100037,-4.531470,0.102165,281.67,4.02,316.98,147.21,-29.09,281.879760,1,0,0,0,0,,,,,,,,
591485,97877.625000,283.94,-1.383848,18.665195,-1.106121,0.090459,-4.516571,0.091523,281.60,4.02,318.57,147.03,-29.03,285.001098,1,0,0,0,0,,,,,,,,
591495,97877.625000,283.94,-1.039083,18.746599,-2.044648,0.089394,-4.495286,0.079816,281.63,4.02,319.76,146.48,-28.98,285.001098,1,0,0,0,0,,,,,,,,
591505,97877.625000,283.94,-2.892195,18.392257,-1.096544,0.070238,-4.482516,0.084073,281.67,4.02,320.65,145.64,-28.90,285.001098,1,0,0,0,0,,,,,,,,
591515,97840.390625,283.94,-1.709460,18.435352,-1.125274,0.079816,-4.482516,0.091523,281.69,4.02,322.09,145.34,-28.84,288.123413,1,0,0,0,0,,,,,,,,
591525,97821.781250,283.94,-2.571372,18.353950,-2.197877,0.064917,-4.479323,0.102165,281.66,4.02,323.56,145.07,-28.77,289.684265,1,0,0,0,0,,,,,,,,
591535,97840.390625,283.94,-2.403778,18.210298,-1.225831,0.041504,-4.465488,0.108550,281.64,4.02,324.27,144.07,-28.70,288.123413,1,0,0,0,0,,,,,,,,
591545,97821.781250,283.94,-2.317587,18.315643,-1.637633,0.034055,-4.460167,0.134092,281.58,4.02,325.18,143.28,-28.64,289.684265,1,0,0,0,0,,,,,,,,
591555,97784.546875,283.94,-1.963245,18.224662,-1.010353,0.029798,-4.444204,0.144734,281.64,4.02,326.64,143.03,-28.58,292.808044,1,0,0,0,0,,,,,,,,
591565,97765.921875,283.94,-1.350329,18.095376,-0.641646,0.027669,-4.439947,0.147927,281.67,4.03,328.13,142.80,-28.52,294.370941,1,0,0,0,0,,,,,,,,
591575,97765.921875,283.94,-0.890643,18.018762,-0.234631,0.044697,-4.419727,0.136220,281.67,4.03,329.24,142.22,-28.45,294.370941,1,0,0,0,0,,,,,,,,
591585,97747.312500,283.94,-0.804451,17.894262,-0.790086,0.056403,-4.399507,0.121321,281.61,4.02,330.46,141.74,-28.38,295.932739,1,0,0,0,0,,,,,,,,
591595,97728.687500,283.94,-1.326387,17.750610,-0.263362,0.064917,-4.382479,0.103229,281.66,4.02,331.76,141.36,-28.30,297.496124,1,0,0,0,0,,,,,,,,
591605,97710.078125,283.94,-0.555454,17.899051,-0.148440,0.078752,-4.385671,0.085138,281.64,4.02,333.12,141.03,-28.24,299.058441,1,0,0,0,0,,,,,,,,
591615,97728.687500,283.94,-1.355118,17.769763,-0.646434,0.091523,-4.373965,0.070238,281.63,4.00,333.76,140.00,-28.18,297.496124,1,0,0,0,0,,,,,,,,
591625,97706.453125,283.92,-0.043095,17.745822,-0.440533,0.091523,-4.366516,0.048954,281.69,4.00,334.69,139.27,-28.11,299.362792,1,0,0,0,0,,,,,,,,
591635,97691.453125,283.94,-0.818816,17.597381,-0.421379,0.102165,-4.351616,0.032990,281.63,3.98,335.70,138.62,-28.04,300.622283,1,0,0,0,0,,,,,,,,
591645,97672.843750,283.94,-0.995987,17.477672,-0.818816,0.094716,-4.346295,0.009578,281.64,4.00,336.84,138.11,-27.97,302.185089,1,0,0,0,0,,,,,,,,
591655,97654.234375,283.94,-0.301669,17.472883,-1.340752,0.090459,-4.337781,0.005321,281.64,3.98,338.08,137.71,-27.90,303.748107,1,0,0,0,0,,,,,,,,
591665,97654.234375,283.94,-1.412578,17.463306,-0.507570,0.074495,-4.332460,-0.012770,281.63,3.98,339.01,137.00,-27.84,303.748107,1,0,0,0,0,,,,,,,,
591675,97635.609375,283.94,0.158017,17.472883,-1.345541,0.071303,-4.320754,-0.029798,281.64,3.98,340.09,136.45,-27.79,305.312713,1,0,0,0,0,,,,,,,,
591685,97598.375000,283.94,-2.446874,17.147272,-0.325611,0.069174,-4.319689,-0.027669,281.60,4.00,341.68,136.40,-27.71,308.441284,1,0,0,0,0,,,,,,,,
591695,97598.375000,283.94,-1.254561,17.156848,-1.211466,0.056403,-4.310111,-0.034055,281.60,3.98,342.87,135.96,-27.64,308.441284,1,0,0,0,0,,,,,,,,
591705,97576.140625,283.92,-2.269703,16.979679,-0.502782,0.054275,-4.322882,-0.009578,281.57,4.00,344.23,135.69,-27.55,310.309967,1,0,0,0,0,,,,,,,,
591715,97561.140625,283.94,-2.001552,16.855178,-0.584185,0.048954,-4.317561,-0.009578,281.66,3.98,345.56,135.40,-27.47,311.570831,1,0,0,0,0,,,,,,,,
591725,97542.531250,283.94,-2.236184,16.869544,-0.330399,0.054275,-4.311176,0.011706,281.57,3.98,346.95,135.16,-27.39,313.135314,1,0,0,0,0,,,,,,,,
591735,97538.906250,283.92,-2.552218,16.730680,0.004788,0.056403,-4.311176,0.023412,281.67,3.98,348.07,134.67,-27.31,313.440093,1,0,0,0,0,,,,,,,,
591745,97538.906250,283.92,-2.082955,16.745046,-0.531512,0.075559,-4.319689,0.040440,281.67,3.98,348.90,133.90,-27.24,313.440093,1,0,0,0,0,,,,,,,,
591755,97505.296875,283.94,-1.829170,16.836025,0.277727,0.078752,-4.312240,0.053211,281.63,3.98,350.22,133.62,-27.18,316.266296,1,0,0,0,0,,,,,,,,
591765,97486.671875,283.94,-2.260126,16.826448,-0.665588,0.088330,-4.310111,0.060660,281.66,3.98,351.61,133.40,-27.13,317.832824,1,0,0,0,0,,,,,,,,
591775,97483.062500,283.92,-2.422932,16.519990,0.244208,0.087266,-4.302662,0.064917,281.64,3.98,352.72,132.93,-27.05,318.136413,1,0,0,0,0,,,,,,,,
591785,97464.437500,283.92,-2.384624,16.610971,-0.253785,0.101101,-4.304790,0.087266,281.67,3.98,353.94,132.56,-26.99,319.703247,1,0,0,0,0,,,,,,,,
591795,97468.062500,283.94,-2.116474,16.529567,0.282515,0.123450,-4.298405,0.106422,281.57,3.98,354.78,131.82,-26.92,319.398254,1,0,0,0,0,,,,,,,,
591805,97445.828125,283.92,-2.020706,16.381128,-0.617704,0.135156,-4.290956,0.102165,281.70,3.98,355.87,131.34,-26.85,321.268981,1,0,0,0,0,,,,,,,,
591815,97412.218750,283.94,-1.589749,16.194379,-0.105344,0.151119,-4.290956,0.108550,281.66,4.01,357.39,131.28,-26.77,324.097381,1,0,0,0,0,,,,,,,,
591825,97389.968750,283.92,-2.035071,16.342821,-0.541089,0.159633,-4.272863,0.116000,281.58,4.01,359.00,131.30,-26.71,325.970245,1,0,0,0,0,,,,,,,,
591835,97393.593750,283.94,-1.441309,16.285360,-1.249773,0.155376,-4.263286,0.107486,281.60,4.02,360.13,130.87,-26.65,325.665100,1,0,0,0,0,,,,,,,,
591845,97374.984375,283.94,-1.139639,16.089035,-0.512359,0.143670,-4.248386,0.107486,281.61,4.01,361.37,130.54,-26.58,327.231750,1,0,0,0,0,,,,,,,,
591855,97356.359375,283.94,-1.374271,16.093824,-1.790862,0.137285,-4.238809,0.098972,281.63,4.02,362.68,130.29,-26.52,328.799987,1,0,0,0,0,,,,,,,,
591865,97352.750000,283.92,-0.737414,15.983690,-1.048660,0.117064,-4.212203,0.083009,281.64,4.02,363.74,129.80,-26.45,329.103912,1,0,0,0,0,,,,,,,,
591875,97334.125000,283.92,-0.718260,16.041151,-1.561019,0.106422,-4.188790,0.074495,281.63,4.02,364.93,129.43,-26.39,330.672424,1,0,0,0,0,,,,,,,,
591885,97319.125000,283.94,-1.972822,15.868768,-0.794874,0.089394,-4.189854,0.058532,281.63,4.02,366.13,129.08,-26.32,331.935821,1,0,0,0,0,,,,,,,,
591895,97315.515625,283.92,0.038307,15.863980,-1.632845,0.069174,-4.170698,0.052147,281.55,4.02,367.11,128.52,-26.26,332.239837,1,0,0,0,0,,,,,,,,
591905,97296.890625,283.92,-1.800439,15.840038,-0.823605,0.062789,-4.162184,0.053211,281.55,4.02,368.23,128.10,-26.20,333.808837,1,0,0,0,0,,,,,,,,
591915,97259.671875,283.92,-1.201889,15.787365,-0.876277,0.042569,-4.157927,0.026605,281.66,4.02,369.84,128.17,-26.14,336.944915,1,0,0,0,0,,,,,,,,
591925,97259.671875,283.92,-0.373495,15.600618,-0.842759,0.042569,-4.155799,0.031926,281.64,4.02,371.06,127.85,-26.07,336.944915,1,0,0,0,0,,,,,,,,
591935,97241.046875,283.92,-1.460463,15.605406,-0.119710,0.041504,-4.154735,0.021284,281.63,4.03,372.36,127.62,-26.01,338.514648,1,0,0,0,0,,,,,,,,
591945,97222.437500,283.92,-1.690306,15.356409,-0.220266,0.048954,-4.138772,0.021284,281.58,4.02,373.73,127.46,-25.93,340.083282,1,0,0,0,0,,,,,,,,
591955,97222.437500,283.92,-0.703895,15.495273,-0.445321,0.054275,-4.144092,0.014899,281.51,4.02,374.75,126.96,-25.87,340.083282,1,0,0,0,0,,,,,,,,
591965,97222.437500,283.92,-2.322375,15.217545,0.162805,0.067046,-4.141964,0.017027,281.67,4.02,375.52,126.22,-25.78,340.083282,1,0,0,0,0,,,,,,,,
591975,97185.203125,283.92,-0.857124,15.332467,-0.043095,0.077688,-4.160056,0.024477,281.63,4.02,376.87,126.06,-25.72,343.222625,1,0,0,0,0,,,,,,,,
591985,97185.203125,283.92,-1.987187,14.987702,0.095768,0.092587,-4.153670,0.029798,281.60,4.03,377.88,125.57,-25.63,343.222625,1,0,0,0,0,,,,,,,,
591995,97166.578125,283.92,-1.723825,15.217545,0.445321,0.101101,-4.152606,0.028734,281.63,4.03,379.03,125.22,-25.57,344.793334,1,0,0,0,0,,,,,,,,
592005,97129.359375,283.92,-1.154005,15.251064,-0.555454,0.113872,-4.148349,0.039376,281.63,4.02,380.67,125.34,-25.53,347.932830,1,0,0,0,0,,,,,,,,
592015,97147.968750,283.92,-2.844311,14.820108,0.426167,0.124514,-4.141964,0.044697,281.60,4.00,381.52,124.70,-25.44,346.362945,1,0,0,0,0,,,,,,,,
592025,97125.765625,283.90,-0.699106,14.877569,-0.861912,0.126642,-4.139835,0.050018,281.58,4.00,382.61,124.30,-25.37,348.236022,1,0,0,0,0,,,,,,,,
592035,97110.734375,283.92,-2.509123,14.609418,0.387860,0.136220,-4.140900,0.069174,281.69,4.00,383.75,123.95,-25.27,349.504241,1,0,0,0,0,,,,,,,,
592045,97107.156250,283.90,-1.216254,14.815320,-0.603338,0.135156,-4.121744,0.055339,281.58,4.00,384.67,123.40,-25.21,349.806152,1,0,0,0,0,,,,,,,,
592055,97092.125000,283.92,-1.307234,14.867992,-0.703895,0.131963,-4.114294,0.068110,281.69,4.00,385.68,122.93,-25.16,351.074584,1,0,0,0,0,,,,,,,,
592065,97073.500000,283.92,-1.436521,14.762647,-0.119710,0.127707,-4.093009,0.057468,281.69,3.98,386.82,122.61,-25.10,352.646514,1,0,0,0,0,,,,,,,,
592075,97073.500000,283.92,-0.928950,14.657302,-1.058237,0.125578,-4.086624,0.061725,281.60,3.98,387.68,122.00,-25.04,352.646514,1,0,0,0,0,,,,,,,,
592085,97073.500000,283.92,-1.316810,14.652514,-0.588973,0.119193,-4.082367,0.055339,281.66,3.98,388.32,121.19,-24.98,352.646514,1,0,0,0,0,,,,,,,,
592095,97054.890625,283.92,-0.890643,14.408305,-0.407014,0.114936,-4.071725,0.047890,281.66,4.00,389.18,120.61,-24.91,354.217346,1,0,0,0,0,,,,,,,,
592105,97017.656250,283.92,-0.316034,14.513650,-1.115697,0.114936,-4.068532,0.042569,281.60,3.98,390.61,120.59,-24.85,357.361083,1,0,0,0,0,,,,,,,,
592115,97036.281250,283.92,-2.039859,14.211980,0.081402,0.107486,-4.048312,0.030862,281.54,3.98,391.29,119.84,-24.77,355.788452,1,0,0,0,0,,,,,,,,
592125,96995.468750,283.90,-0.344765,14.403516,-1.211466,0.107486,-4.031284,0.032990,281.69,3.98,392.65,119.75,-24.72,359.234863,1,0,0,0,0,,,,,,,,
592135,96980.421875,283.92,-1.431732,14.250288,0.148440,0.105358,-4.020642,0.031926,281.64,3.98,393.99,119.65,-24.65,360.505798,1,0,0,0,0,,,,,,,,
592145,96976.843750,283.90,-1.599326,14.125789,-0.512359,0.104294,-4.015321,0.025541,281.60,3.98,395.07,119.30,-24.58,360.808044,1,0,0,0,0,,,,,,,,
592155,96980.421875,283.92,-0.138863,14.183250,-0.478840,0.102165,-4.012128,0.022348,281.67,3.98,395.81,118.61,-24.53,360.505798,1,0,0,0,0,,,,,,,,
592165,96961.812500,283.92,-1.867477,13.929465,-0.186747,0.102165,-3.985523,0.012770,281.67,3.98,396.74,118.13,-24.45,362.077850,1,0,0,0,0,,,,,,,,
592175,96943.203125,283.92,-1.134851,13.991714,-0.416591,0.102165,-3.970623,0.004256,281.69,3.98,397.84,117.81,-24.39,363.650146,1,0,0,0,0,,,,,,,,
592185,96921.000000,283.90,-0.742202,13.891158,-0.373495,0.106422,-3.969559,0.002128,281.64,3.98,399.12,117.68,-24.32,365.526428,1,0,0,0,0,,,,,,,,
592195,96905.968750,283.92,-2.164358,13.833697,-0.387860,0.102165,-3.967431,0.003192,281.63,3.98,400.40,117.54,-24.26,366.796813,1,0,0,0,0,,,,,,,,
592205,96902.390625,283.90,-1.024718,13.757082,-0.138863,0.105358,-3.956789,0.006385,281.60,3.98,401.44,117.17,-24.19,367.099273,1,0,0,0,0,,,,,,,,
592215,96887.343750,283.92,-1.398213,13.728352,-0.019153,0.109615,-3.955724,0.020220,281.63,4.01,402.53,116.86,-24.13,368.371185,1,0,0,0,0,,,,,,,,
592225,96868.734375,283.92,-1.719036,13.757082,0.119710,0.121321,-3.947211,0.020220,281.63,4.01,403.74,116.66,-24.07,369.944458,1,0,0,0,0,,,,,,,,
592235,96850.109375,283.92,-0.153228,13.809755,-0.837970,0.114936,-3.938697,0.012770,281.63,4.02,405.04,116.55,-24.03,371.519317,1,0,0,0,0,,,,,,,,
592245,96846.546875,283.90,-1.455674,13.675680,-0.086191,0.113872,-3.921669,0.011706,281.60,4.02,406.09,116.21,-23.98,371.820587,1,0,0,0,0,,,,,,,,
592255,96827.921875,283.90,-1.589749,13.594277,-0.071826,0.116000,-3.915284,0.009578,281.66,4.02,407.26,115.99,-23.92,373.395721,1,0,0,0,0,,,,,,,,
592265,96809.312500,283.90,-0.253785,13.594277,-0.699106,0.113872,-3.907835,0.008513,281.64,4.02,408.54,115.87,-23.87,374.969787,1,0,0,0,0,,,,,,,,
592275,96794.265625,283.92,-1.781286,13.565546,0.105344,0.113872,-3.896128,0.004256,281.61,4.02,409.81,115.74,-23.82,376.242706,1,0,0,0,0,,,,,,,,
592285,96790.703125,283.90,-1.254561,13.412317,-0.392649,0.117064,-3.892935,0.008513,281.55,4.02,410.84,115.39,-23.77,376.544097,1,0,0,0,0,,,,,,,,
592295,96790.703125,283.90,-0.847547,13.259088,-0.191536,0.111743,-3.881229,0.002128,281.66,4.03,411.61,114.79,-23.70,376.544097,1,0,0,0,0,,,,,,,,
592305,96753.468750,283.90,-1.316810,13.397952,-0.210689,0.106422,-3.862073,0.005321,281.63,4.02,412.97,114.76,-23.65,379.694763,1,0,0,0,0,,,,,,,,
592315,96772.078125,283.90,-1.642422,13.283030,0.244208,0.110679,-3.857816,0.000000,281.61,4.02,413.60,114.02,-23.59,378.119964,1,0,0,0,0,,,,,,,,
592325,96719.812500,283.92,-0.679953,13.359644,-0.411802,0.105358,-3.852495,0.005321,281.60,4.03,415.17,114.21,-23.56,382.543518,1,0,0,0,0,,,,,,,,
592335,96719.812500,283.92,-1.771709,13.244723,0.229843,0.114936,-3.843981,0.001064,281.63,4.02,416.35,114.01,-23.51,382.543518,1,0,0,0,0,,,,,,,,
592345,96697.625000,283.90,-0.972045,13.144166,0.124498,0.116000,-3.835467,-0.004256,281.60,4.03,417.70,113.99,-23.45,384.421966,1,0,0,0,0,,,,,,,,
592355,96697.625000,283.90,-1.853112,12.990938,-0.732625,0.118128,-3.837595,0.004256,281.66,4.03,418.72,113.64,-23.39,384.421966,1,0,0,0,0,,,,,,,,
592365,96679.000000,283.90,-0.991199,13.081917,-0.023942,0.111743,-3.835467,0.014899,281.67,4.03,419.87,113.43,-23.34,385.999084,1,0,0,0,0,,,,,,,,
592375,96660.390625,283.90,-2.197877,12.823344,-0.684741,0.112807,-3.831210,0.023412,281.63,4.02,421.12,113.32,-23.28,387.575103,1,0,0,0,0,,,,,,,,
592385,96641.781250,283.90,-0.330399,13.019668,-0.205901,0.107486,-3.807797,0.025541,281.63,4.02,422.46,113.29,-23.23,389.151367,1,0,0,0,0,,,,,,,,
592395,96641.781250,283.90,-2.499546,12.813767,-0.517147,0.110679,-3.789705,0.037247,281.57,4.03,423.46,112.93,-23.17,389.151367,1,0,0,0,0,,,,,,,,
592405,96641.781250,283.90,-1.072602,12.698845,0.172382,0.107486,-3.795027,0.038312,281.57,4.02,424.21,112.34,-23.11,389.151367,1,0,0,0,0,,,,,,,,
592415,96626.718750,283.92,-1.048660,12.650961,-0.761356,0.108550,-3.787577,0.055339,281.61,4.00,425.09,111.88,-23.04,390.427398,1,0,0,0,0,,,,,,,,
592425,96623.156250,283.90,-1.163581,12.914323,0.014365,0.105358,-3.776935,0.037247,281.73,4.00,425.82,111.27,-23.01,390.729217,1,0,0,0,0,,,,,,,,
592435,96608.109375,283.92,-1.024718,12.895170,-0.588973,0.098972,-3.764164,0.041504,281.69,4.00,426.68,110.80,-22.98,392.004119,1,0,0,0,0,,,,,,,,
592445,96567.312500,283.90,-0.612915,12.751518,-0.502782,0.094716,-3.753522,0.035119,281.63,4.00,428.18,110.96,-22.94,395.461578,1,0,0,0,0,,,,,,,,
592455,96585.921875,283.90,-1.450886,12.545617,0.086191,0.095780,-3.735430,0.034055,281.67,4.00,428.92,110.38,-22.88,393.884338,1,0,0,0,0,,,,,,,,
592465,96567.312500,283.90,-0.689530,12.564770,-0.411802,0.097908,-3.732237,0.013834,281.66,3.98,429.86,110.00,-22.83,395.461578,1,0,0,0,0,,,,,,,,
592475,96548.703125,283.90,-0.584185,12.555193,-0.110133,0.108550,-3.729044,0.021284,281.57,3.98,430.96,109.77,-22.79,397.039093,1,0,0,0,0,,,,,,,,
592485,96530.078125,283.90,-0.962469,12.497733,-0.531512,0.107486,-3.714145,0.011706,281.60,3.98,432.18,109.66,-22.74,398.618164,1,0,0,0,0,,,,,,,,
592495,96530.078125,283.90,-0.105344,12.483367,-0.435744,0.101101,-3.702439,-0.003192,281.67,3.98,433.09,109.26,-22.70,398.618164,1,0,0,0,0,,,,,,,,
592505,96507.906250,283.89,-1.206677,12.320561,-0.818816,0.091523,-3.696053,-0.011706,281.60,3.98,434.24,109.10,-22.64,400.498291,1,0,0,0,0,,,,,,,,
592515,96492.859375,283.90,-0.790086,12.421117,-0.158017,0.084073,-3.704567,-0.021284,281.63,3.98,435.42,108.96,-22.60,401.774414,1,0,0,0,0,,,,,,,,
592525,96492.859375,283.90,-1.177947,12.186486,-0.751779,0.076624,-3.693925,-0.021284,281.61,3.98,436.31,108.54,-22.54,401.774414,1,0,0,0,0,,,,,,,,
592535,96474.234375,283.90,-0.895431,12.186486,0.234631,0.074495,-3.690732,-0.022348,281.57,3.98,437.36,108.29,-22.49,403.354217,1,0,0,0,0,,,,,,,,
592545,96474.234375,283.90,-1.268926,12.081141,-0.450109,0.072367,-3.692861,-0.022348,281.66,3.98,438.15,107.79,-22.43,403.354217,1,0,0,0,0,,,,,,,,
592555,96437.015625,283.90,-1.359906,12.124237,0.205901,0.075559,-3.681154,-0.017027,281.64,3.98,439.53,107.86,-22.39,406.511932,1,0,0,0,0,,,,,,,,
592565,96440.562500,283.92,-1.465251,12.191274,-1.039083,0.074495,-3.671576,-0.007449,281.64,3.98,440.49,107.53,-22.35,406.210968,1,0,0,0,0,,,,,,,,
592575,96437.015625,283.90,-0.723048,12.047622,0.612915,0.076624,-3.681154,-0.011706,281.60,3.98,441.28,107.03,-22.30,406.511932,1,0,0,0,0,,,,,,,,
592585,96399.781250,283.90,-0.871489,11.918335,-0.780509,0.074495,-3.671576,-0.002128,281.60,3.98,442.66,107.11,-22.25,409.671997,1,0,0,0,0,,,,,,,,
592595,96381.156250,283.90,-1.891419,11.947066,0.627280,0.081945,-3.677962,-0.004256,281.70,3.98,444.09,107.25,-22.20,411.253021,1,0,0,0,0,,,,,,,,
592605,96381.156250,283.90,-0.512359,11.841721,-0.268150,0.088330,-3.674769,0.000000,281.61,3.98,445.16,107.03,-22.15,411.253021,1,0,0,0,0,,,,,,,,
592615,96362.546875,283.90,-1.450886,11.889605,0.277727,0.097908,-3.670512,0.010642,281.67,4.01,446.36,106.94,-22.10,412.833007,1,0,0,0,0,,,,,,,,
592625,96343.937500,283.90,-1.043871,11.736376,-0.124498,0.108550,-3.674769,0.000000,281.61,4.01,447.66,106.94,-22.05,414.413238,1,0,0,0,0,,,,,,,,
592635,96343.937500,283.90,-1.019929,11.693281,-0.244208,0.112807,-3.642842,0.014899,281.60,4.01,448.63,106.63,-22.00,414.413238,1,0,0,0,0,,,,,,,,
592645,96325.312500,283.90,-1.359906,11.654973,0.191536,0.111743,-3.631136,0.006385,281.66,4.02,449.75,106.47,-21.95,415.995025,1,0,0,0,0,,,,,,,,
592655,96325.312500,283.90,-0.181959,11.712434,-0.885854,0.114936,-3.622622,0.006385,281.60,4.02,450.59,106.04,-21.90,415.995025,1,0,0,0,0,,,,,,,,
592665,96306.703125,283.90,-2.121262,11.554417,0.057460,0.112807,-3.614108,0.011706,281.60,4.02,451.61,105.78,-21.85,417.575744,1,0,0,0,0,,,,,,,,
592675,96288.093750,283.90,-0.665588,11.482591,-1.206677,0.104294,-3.592824,0.013834,281.66,4.02,452.77,105.67,-21.80,419.156677,1,0,0,0,0,,,,,,,,
592685,96288.093750,283.90,-0.885854,11.449071,-0.847547,0.093651,-3.584310,0.015963,281.70,4.02,453.64,105.28,-21.75,419.156677,1,0,0,0,0,,,,,,,,
592695,96250.859375,283.90,-1.398213,11.482591,-0.756567,0.077688,-3.570475,0.011706,281.66,4.02,455.08,105.44,-21.70,422.320678,1,0,0,0,0,,,,,,,,
592705,96250.859375,283.90,-0.469263,11.429918,-1.015141,0.070238,-3.559833,0.012770,281.61,4.02,456.16,105.25,-21.66,422.320678,1,0,0,0,0,,,,,,,,
592715,96269.468750,283.90,-1.417367,11.386822,-0.306457,0.060660,-3.541741,0.010642,281.67,4.03,456.57,104.42,-21.61,420.739227,1,0,0,0,0,,,,,,,,
592725,96250.859375,283.90,-0.579396,11.257535,-0.761356,0.059596,-3.530035,0.017027,281.63,4.02,457.27,103.88,-21.56,422.320678,1,0,0,0,0,,,,,,,,
592735,96232.234375,283.90,-0.981622,11.434706,-0.919373,0.050018,-3.509814,0.018091,281.61,4.02,458.19,103.55,-21.53,423.903717,1,0,0,0,0,,,,,,,,
592745,96213.625000,283.90,-1.201889,11.247959,-0.196324,0.044697,-3.513007,0.019156,281.64,4.02,459.27,103.38,-21.48,425.485656,1,0,0,0,0,,,,,,,,
592755,96195.015625,283.90,-0.991199,11.247959,-0.981622,0.040440,-3.502364,0.027669,281.66,4.02,460.47,103.33,-21.44,427.067871,1,0,0,0,0,,,,,,,,
592765,96195.015625,283.90,-0.919373,11.190498,-0.253785,0.035119,-3.503429,0.021284,281.63,4.02,461.38,103.00,-21.40,427.067871,1,0,0,0,0,,,,,,,,
592775,96176.390625,283.90,-0.732625,11.123460,-0.545877,0.030862,-3.489594,0.027669,281.67,4.02,462.45,102.83,-21.35,428.651641,1,0,0,0,0,,,,,,,,
592785,96176.390625,283.90,-1.254561,11.051634,0.210689,0.031926,-3.476823,0.021284,281.64,4.02,463.25,102.40,-21.30,428.651641,1,0,0,0,0,,,,,,,,
592795,96157.781250,283.90,-0.258573,11.080365,-0.718260,0.028734,-3.475759,0.021284,281.60,4.03,464.24,102.16,-21.26,430.234344,1,0,0,0,0,,,,,,,,
592805,96139.171875,283.90,-0.852335,11.113883,0.215478,0.026605,-3.468309,0.009578,281.64,4.03,465.38,102.07,-21.23,431.817291,1,0,0,0,0,,,,,,,,
592815,96139.171875,283.90,-0.603338,11.061211,-0.397437,0.034055,-3.476823,0.007449,281.66,4.01,466.24,101.70,-21.20,431.817291,1,0,0,0,0,,,,,,,,
592825,96120.546875,283.90,-0.742202,10.903194,0.316034,0.042569,-3.464052,0.001064,281.63,4.00,467.27,101.51,-21.15,433.401794,1,0,0,0,0,,,,,,,,
592835,96120.546875,283.90,-0.981622,10.754754,-0.086191,0.048954,-3.471502,-0.006385,281.66,4.00,468.04,101.07,-21.09,433.401794,1,0,0,0,0,,,,,,,,
592845,96101.937500,283.90,-0.220266,10.879252,0.067037,0.055339,-3.472566,-0.003192,281.61,4.00,469.02,100.82,-21.05,434.985229,1,0,0,0,0,,,,,,,,
592855,96101.937500,283.90,-1.268926,10.860098,-0.138863,0.062789,-3.467245,-0.011706,281.63,4.00,469.75,100.34,-21.01,434.985229,1,0,0,0,0,,,,,,,,
592865,96083.312500,283.90,-0.450109,10.831368,0.248996,0.059596,-3.457667,-0.020220,281.70,3.98,470.68,100.08,-20.98,436.570251,1,0,0,0,0,,,,,,,,
592875,96064.703125,283.90,-0.641646,10.745177,-0.450109,0.059596,-3.449153,-0.022348,281.66,3.98,471.78,99.96,-20.94,438.154205,1,0,0,0,0,,,,,,,,
592885,96064.703125,283.90,-1.580173,10.568006,1.029506,0.069174,-3.436383,-0.018091,281.60,3.98,472.60,99.59,-20.88,438.154205,1,0,0,0,0,,,,,,,,
592895,96046.093750,283.90,-1.134851,10.668562,-0.330399,0.081945,-3.431061,-0.010642,281.67,3.98,473.61,99.40,-20.84,439.738372,1,0,0,0,0,,,,,,,,
592905,96027.468750,283.90,-0.991199,10.520122,0.526724,0.087266,-3.432126,-0.005321,281.66,4.00,474.77,99.35,-20.79,441.324157,1,0,0,0,0,,,,,,,,
592915,96008.859375,283.90,-1.063025,10.448295,-0.574608,0.093651,-3.425740,0.004256,281.63,3.98,476.02,99.40,-20.74,442.908843,1,0,0,0,0,,,,,,,,
592925,95990.250000,283.90,-1.010353,10.697293,0.545877,0.096844,-3.427869,-0.001064,281.63,4.00,477.37,99.54,-20.72,444.493774,1,0,0,0,0,,,,,,,,
592935,95990.250000,283.90,-0.991199,10.453083,-0.928950,0.101101,-3.425740,0.005321,281.66,3.98,478.37,99.34,-20.68,444.493774,1,0,0,0,0,,,,,,,,
592945,95975.171875,283.92,-0.861912,10.342950,0.225054,0.100037,-3.406584,0.007449,281.66,3.98,479.45,99.22,-20.63,445.778137,1,0,0,0,0,,,,,,,,
592955,95971.625000,283.90,-0.972045,10.395623,-0.972045,0.092587,-3.393814,0.015963,281.63,3.98,480.33,98.91,-20.59,446.080261,1,0,0,0,0,,,,,,,,
592965,95953.015625,283.90,-0.574608,10.409988,-0.450109,0.087266,-3.382107,0.008513,281.60,3.98,481.39,98.78,-20.55,447.665710,1,0,0,0,0,,,,,,,,
592975,95953.015625,283.90,-0.502782,10.323797,-0.474051,0.079816,-3.367208,0.007449,281.64,3.98,482.18,98.38,-20.51,447.665710,1,0,0,0,0,,,,,,,,
592985,95956.562500,283.92,-1.316810,10.237606,-0.632069,0.067046,-3.348052,0.007449,281.60,3.98,482.69,97.73,-20.46,447.363494,1,0,0,0,0,,,,,,,,
592995,95934.406250,283.90,0.239420,10.275913,-0.775721,0.054275,-3.352309,0.003192,281.64,4.00,483.54,97.41,-20.43,449.251373,1,0,0,0,0,,,,,,,,
593005,95919.328125,283.92,-0.584185,10.213664,-0.617704,0.045761,-3.338474,-0.007449,281.66,3.98,484.50,97.19,-20.39,450.536346,1,0,0,0,0,,,,,,,,
593015,95915.781250,283.90,-0.488417,10.113107,-0.272938,0.042569,-3.340602,-0.022348,281.67,4.01,485.30,96.82,-20.34,450.838653,1,0,0,0,0,,,,,,,,
593025,95878.546875,283.90,-0.081402,9.955090,-0.550666,0.036183,-3.328896,-0.023412,281.63,4.01,486.68,97.02,-20.29,454.012573,1,0,0,0,0,,,,,,,,
593035,95882.093750,283.92,-1.312022,9.916783,-0.086191,0.032990,-3.311868,-0.022348,281.66,4.01,487.64,96.82,-20.23,453.710205,1,0,0,0,0,,,,,,,,
593045,95882.093750,283.92,0.076614,10.031704,-0.339976,0.029798,-3.308676,-0.036183,281.60,4.02,488.37,96.38,-20.19,453.710205,1,0,0,0,0,,,,,,,,
593055,95859.937500,283.90,-0.905008,9.878476,-0.129286,0.030862,-3.303354,-0.036183,281.75,4.02,489.38,96.23,-20.15,455.599243,1,0,0,0,0,,,,,,,,
593065,95841.328125,283.90,-0.866701,9.873687,-0.421379,0.031926,-3.298033,-0.042569,281.69,4.02,490.53,96.22,-20.10,457.186187,1,0,0,0,0,,,,,,,,
593075,95844.859375,283.92,-0.349553,9.911994,-0.363918,0.028734,-3.296969,-0.041504,281.66,4.03,491.32,95.86,-20.06,456.885040,1,0,0,0,0,,,,,,,,
593085,95822.703125,283.90,-1.680729,9.753977,-0.081402,0.028734,-3.302290,-0.032990,281.61,4.02,492.38,95.76,-20.02,458.774688,1,0,0,0,0,,,,,,,,
593095,95822.703125,283.90,-0.742202,9.773131,0.181959,0.030862,-3.308676,-0.022348,281.58,4.02,493.18,95.41,-19.97,458.774688,1,0,0,0,0,,,,,,,,
593105,95785.484375,283.90,-1.077390,9.672574,-0.387860,0.036183,-3.292712,-0.018091,281.60,4.02,494.56,95.63,-19.93,461.949798,1,0,0,0,0,,,,,,,,
593115,95804.093750,283.90,-1.149216,9.653421,0.679953,0.045761,-3.276749,-0.007449,281.66,4.02,495.21,95.14,-19.88,460.362121,1,0,0,0,0,,,,,,,,
593125,95785.484375,283.90,-1.675941,9.619902,-0.459686,0.048954,-3.269299,-0.003192,281.61,4.02,496.09,94.87,-19.84,461.949798,1,0,0,0,0,,,,,,,,
593135,95770.390625,283.92,-0.713472,9.586383,0.339976,0.054275,-3.269299,0.013834,281.67,4.02,497.07,94.71,-19.80,463.237701,1,0,0,0,0,,,,,,,,
593145,95770.390625,283.92,-1.230619,9.595960,-0.090979,0.064917,-3.270364,0.023412,281.63,4.02,497.80,94.31,-19.76,463.237701,1,0,0,0,0,,,,,,,,
593155,95729.625000,283.90,-1.201889,9.581595,-0.186747,0.065981,-3.261850,0.024477,281.63,4.02,499.21,94.57,-19.72,466.716979,1,0,0,0,0,,,,,,,,
593165,95729.625000,283.90,-0.967257,9.552865,0.244208,0.069174,-3.254400,0.028734,281.64,4.03,500.28,94.49,-19.69,466.716979,1,0,0,0,0,,,,,,,,
593175,95733.171875,283.92,-0.828393,9.567230,-0.493205,0.065981,-3.234180,0.031926,281.61,4.02,501.00,94.08,-19.66,466.414215,1,0,0,0,0,,,,,,,,
593185,95729.625000,283.90,-1.359906,9.433154,0.181959,0.070238,-3.225666,0.031926,281.70,4.02,501.62,93.57,-19.62,466.716979,1,0,0,0,0,,,,,,,,
593195,95692.406250,283.90,-1.053448,9.337386,-0.009576,0.075559,-3.224602,0.051082,281.64,4.02,502.87,93.69,-19.57,469.894561,1,0,0,0,0,,,,,,,,
593205,95692.406250,283.90,-0.895431,9.375693,-0.392649,0.079816,-3.218216,0.048954,281.58,4.02,503.81,93.50,-19.53,469.894561,1,0,0,0,0,,,,,,,,
593215,95692.406250,283.90,-0.972045,9.356539,0.124498,0.080881,-3.217152,0.057468,281.69,4.00,504.51,93.08,-19.50,469.894561,1,0,0,0,0,,,,,,,,
593225,95673.781250,283.90,-0.636857,9.279925,-0.268150,0.081945,-3.213960,0.051082,281.60,3.98,505.43,92.88,-19.46,471.485076,1,0,0,0,0,,,,,,,,
593235,95655.171875,283.90,-0.502782,9.442730,-0.713472,0.078752,-3.200125,0.041504,281.66,4.00,506.52,92.84,-19.44,473.074493,1,0,0,0,0,,,,,,,,
593245,95655.171875,283.90,-0.900219,9.332597,-0.105344,0.075559,-3.187354,0.039376,281.63,4.00,507.33,92.54,-19.41,473.074493,1,0,0,0,0,,,,,,,,
593255,95655.171875,283.90,-0.574608,9.327809,-0.708683,0.062789,-3.177776,0.030862,281.63,3.98,507.94,92.05,-19.38,473.074493,1,0,0,0,0,,,,,,,,
593265,95636.562500,283.90,-0.407014,9.150638,-0.354341,0.062789,-3.170326,0.030862,281.64,3.98,508.79,91.79,-19.34,474.664184,1,0,0,0,0,,,,,,,,
593275,95621.468750,283.92,-1.383848,8.992621,-0.110133,0.058532,-3.156491,0.029798,281.66,4.00,509.75,91.64,-19.29,475.953735,1,0,0,0,0,,,,,,,,
593285,95617.937500,283.90,-0.287304,9.131484,-0.555454,0.058532,-3.152234,0.026605,281.64,3.98,510.54,91.33,-19.25,476.255432,1,0,0,0,0,,,,,,,,
593295,95580.703125,283.90,-0.943315,8.963891,-0.478840,0.058532,-3.144785,0.030862,281.64,4.00,511.93,91.60,-19.21,479.437377,1,0,0,0,0,,,,,,,,
593305,95580.703125,283.90,-1.355118,8.987833,-0.459686,0.053211,-3.133078,0.029798,281.69,3.98,512.97,91.54,-19.17,479.437377,1,0,0,0,0,,,,,,,,
593315,95602.859375,283.92,-0.076614,9.011775,-0.933738,0.044697,-3.129886,0.022348,281.64,3.98,513.28,90.76,-19.13,477.543853,1,0,0,0,0,,,,,,,,
593325,95565.625000,283.92,-1.273715,8.963891,-0.191536,0.041504,-3.117115,0.031926,281.66,3.98,514.30,90.68,-19.10,480.726196,1,0,0,0,0,,,,,,,,
593335,95565.625000,283.92,-1.244984,8.868123,-0.450109,0.038312,-3.116051,0.026605,281.66,3.98,515.07,90.36,-19.06,480.726196,1,0,0,0,0,,,,,,,,
593345,95562.093750,283.90,-0.421379,8.892065,-0.699106,0.032990,-3.121372,0.040440,281.67,3.98,515.72,89.93,-19.02,481.028076,1,0,0,0,0,,,,,,,,
593355,95547.000000,283.92,-1.340752,8.872911,0.014365,0.029798,-3.114987,0.036183,281.72,3.98,516.52,89.65,-18.99,482.318420,1,0,0,0,0,,,,,,,,
593365,95543.484375,283.90,-1.072602,8.839392,-0.445321,0.034055,-3.120308,0.045761,281.69,3.98,517.20,89.25,-18.95,482.618988,1,0,0,0,0,,,,,,,,
593375,95528.390625,283.92,-0.957680,8.719682,-0.057460,0.031926,-3.120308,0.053211,281.69,3.98,518.03,89.00,-18.91,483.909545,1,0,0,0,0,,,,,,,,
593385,95524.859375,283.90,-0.770932,8.844181,-0.416591,0.036183,-3.123501,0.054275,281.69,4.00,518.72,88.62,-18.89,484.211517,1,0,0,0,0,,,,,,,,
593395,95487.640625,283.90,-0.272938,8.710105,-0.306457,0.042569,-3.125629,0.053211,281.63,3.98,520.03,88.85,-18.85,487.394622,1,0,0,0,0,,,,,,,,
593405,95487.640625,283.90,-1.053448,8.686163,-0.057460,0.036183,-3.111794,0.051082,281.57,3.98,521.02,88.76,-18.82,487.394622,1,0,0,0,0,,,,,,,,
593415,95469.015625,283.90,-0.421379,8.681375,-0.062249,0.039376,-3.103280,0.042569,281.64,4.01,522.15,88.82,-18.79,488.987884,1,0,0,0,0,,,,,,,,
593425,95453.921875,283.92,-0.660799,8.623914,-0.119710,0.041504,-3.085188,0.041504,281.63,4.02,523.33,88.91,-18.75,490.279266,1,0,0,0,0,,,,,,,,
593435,95453.921875,283.92,-0.885854,8.504204,-0.426167,0.048954,-3.077739,0.037247,281.66,4.02,524.21,88.72,-18.71,490.279266,1,0,0,0,0,,,,,,,,
593445,95453.921875,283.92,-0.497993,8.499416,0.110133,0.044697,-3.073482,0.036183,281.63,4.02,524.88,88.32,-18.67,490.279266,1,0,0,0,0,,,,,,,,
593455,95431.796875,283.90,-1.072602,8.576030,-0.737414,0.045761,-3.064968,0.040440,281.67,4.02,525.84,88.22,-18.64,492.172515,1,0,0,0,0,,,,,,,,
593465,95416.703125,283.92,-0.708683,8.504204,0.181959,0.043633,-3.052197,0.035119,281.66,4.02,526.89,88.20,-18.61,493.464294,1,0,0,0,0,,,,,,,,
593475,95413.171875,283.90,0.014365,8.480262,-1.019929,0.042569,-3.038362,0.034055,281.69,4.02,527.75,87.99,-18.58,493.766540,1,0,0,0,0,,,,,,,,
593485,95394.562500,283.90,-1.565807,8.346186,0.450109,0.043633,-3.034105,0.036183,281.64,4.03,528.79,87.97,-18.54,495.359466,1,0,0,0,0,,,,,,,,
593495,95375.937500,283.90,0.071826,8.389282,-0.871489,0.036183,-3.024528,0.030862,281.58,4.02,529.97,88.08,-18.51,496.954010,1,0,0,0,0,,,,,,,,
593505,95375.937500,283.90,-0.794874,8.307879,0.210689,0.037247,-3.024528,0.029798,281.66,4.03,530.86,87.90,-18.47,496.954010,1,0,0,0,0,,,,,,,,
593515,95360.843750,283.92,-0.727837,8.298302,-0.282515,0.035119,-3.025592,0.022348,281.66,4.02,531.84,87.82,-18.44,498.246398,1,0,0,0,0,,,,,,,,
593525,95357.328125,283.90,-0.459686,8.298302,-0.320823,0.040440,-3.021335,0.021284,281.66,4.02,532.66,87.58,-18.40,498.547454,1,0,0,0,0,,,,,,,,
593535,95342.234375,283.92,-0.675164,8.192957,0.071826,0.043633,-3.026656,0.021284,281.64,4.02,533.59,87.46,-18.37,499.840057,1,0,0,0,0,,,,,,,,
593545,95338.718750,283.90,-1.154005,8.101978,-0.095768,0.046825,-3.026656,0.022348,281.66,4.02,534.36,87.18,-18.32,500.141143,1,0,0,0,0,,,,,,,,
593555,95320.093750,283.90,-0.167594,8.259995,-0.636857,0.050018,-3.011757,0.025541,281.67,4.02,535.34,87.10,-18.30,501.736450,1,0,0,0,0,,,,,,,,
593565,95301.484375,283.90,-0.957680,8.078036,-0.081402,0.047890,-3.008564,0.020220,281.64,4.02,536.47,87.17,-18.26,503.330627,1,0,0,0,0,,,,,,,,
593575,95301.484375,283.90,-0.857124,8.087613,-0.416591,0.047890,-3.004307,0.023412,281.73,4.03,537.32,86.97,-18.22,503.330627,1,0,0,0,0,,,,,,,,
593585,95301.484375,283.90,-0.866701,8.006210,-0.181959,0.046825,-3.001114,0.023412,281.66,4.02,537.95,86.57,-18.18,503.330627,1,0,0,0,0,,,,,,,,
593595,95282.875000,283.90,-0.828393,7.953537,-0.435744,0.043633,-2.989408,0.029798,281.63,4.02,538.82,86.40,-18.14,504.925079,1,0,0,0,0,,,,,,,,
593605,95264.250000,283.90,-1.106121,7.709329,0.153228,0.048954,-2.991537,0.038312,281.73,4.02,539.88,86.40,-18.08,506.521118,1,0,0,0,0,,,,,,,,
593615,95286.390625,283.92,-0.521935,7.886500,-0.818816,0.045761,-2.984087,0.039376,281.67,4.01,540.19,85.69,-18.04,504.623840,1,0,0,0,0,,,,,,,,
593625,95264.250000,283.90,-1.130063,7.905653,0.301669,0.046825,-2.969188,0.048954,281.63,4.00,540.90,85.37,-18.01,506.521118,1,0,0,0,0,,,,,,,,
593635,95267.765625,283.92,-0.708683,7.920019,-0.531512,0.045761,-2.960674,0.047890,281.64,4.00,541.35,84.80,-17.98,506.219848,1,0,0,0,0,,,,,,,,
593645,95245.640625,283.90,-0.268150,8.001421,-0.378283,0.050018,-2.939389,0.050018,281.69,4.00,542.16,84.58,-17.96,508.116088,1,0,0,0,0,,,,,,,,
593655,95230.531250,283.92,-1.221042,7.747636,0.028730,0.050018,-2.939389,0.044697,281.70,4.00,543.08,84.49,-17.93,509.411254,1,0,0,0,0,,,,,,,,
593665,95208.406250,283.90,-0.507570,7.776367,-0.775721,0.050018,-2.921298,0.046825,281.69,4.00,544.25,84.63,-17.89,511.308105,1,0,0,0,0,,,,,,,,
593675,95227.015625,283.90,-0.861912,7.795520,-0.081402,0.043633,-2.911720,0.047890,281.61,3.98,544.73,84.10,-17.86,509.712646,1,0,0,0,0,,,,,,,,
593685,95193.312500,283.92,-1.067813,7.872135,-0.660799,0.041504,-2.905334,0.048954,281.63,3.98,545.81,84.15,-17.85,512.602355,1,0,0,0,0,,,,,,,,
593695,95193.312500,283.92,-0.100556,7.929595,-0.632069,0.037247,-2.895756,0.040440,281.67,3.98,546.62,83.94,-17.84,512.602355,1,0,0,0,0,,,,,,,,
593705,95193.312500,283.92,-1.235408,7.795520,-0.201112,0.032990,-2.900013,0.043633,281.64,3.98,547.22,83.54,-17.81,512.602355,1,0,0,0,0,,,,,,,,
593715,95174.687500,283.92,-1.211466,7.709329,-0.287304,0.031926,-2.893628,0.047890,281.58,3.98,548.07,83.38,-17.78,514.199584,1,0,0,0,0,,,,,,,,
593725,95171.171875,283.90,-0.694318,7.613561,-0.507570,0.028734,-2.889371,0.059596,281.72,3.98,548.79,83.09,-17.75,514.501098,1,0,0,0,0,,,,,,,,
593735,95137.453125,283.92,-1.331176,7.608772,-0.023942,0.030862,-2.889371,0.065981,281.69,3.98,550.04,83.32,-17.72,517.393554,1,0,0,0,0,,,,,,,,
593745,95137.453125,283.92,-0.464475,7.541735,-0.043095,0.036183,-2.894692,0.065981,281.69,3.98,550.98,83.25,-17.68,517.393554,1,0,0,0,0,,,,,,,,
593755,95133.953125,283.90,-0.986411,7.517793,-0.215478,0.039376,-2.894692,0.073431,281.66,3.98,551.76,83.03,-17.65,517.693786,1,0,0,0,0,,,,,,,,
593765,95133.953125,283.90,-0.837970,7.508216,0.521935,0.051082,-2.896821,0.074495,281.64,3.98,552.35,82.62,-17.61,517.693786,1,0,0,0,0,,,,,,,,
593775,95115.328125,283.90,-0.244208,7.546523,-0.675164,0.053211,-2.888307,0.075559,281.64,3.98,553.18,82.46,-17.59,519.291870,1,0,0,0,0,,,,,,,,
593785,95078.093750,283.90,-0.766144,7.460332,0.493205,0.059596,-2.881921,0.071303,281.60,3.98,554.61,82.86,-17.56,522.487426,1,0,0,0,0,,,,,,,,
593795,95100.218750,283.92,-0.780509,7.445967,-0.282515,0.061725,-2.869151,0.071303,281.64,3.98,555.20,82.47,-17.53,520.588500,1,0,0,0,0,,,,,,,,
593805,95096.718750,283.90,0.335188,7.474697,-0.067037,0.067046,-2.860637,0.068110,281.67,4.00,555.72,82.00,-17.50,520.888854,1,0,0,0,0,,,,,,,,
593815,95081.609375,283.92,-1.067813,7.283161,0.239420,0.070238,-2.855316,0.056403,281.67,4.00,556.43,81.72,-17.46,522.185668,1,0,0,0,0,,,,,,,,
593825,95063.000000,283.92,0.019153,7.455543,-0.268150,0.074495,-2.852123,0.052147,281.64,4.02,557.36,81.66,-17.45,523.783081,1,0,0,0,0,,,,,,,,
593835,95044.375000,283.92,-0.397437,7.240066,0.119710,0.079816,-2.851059,0.045761,281.67,4.02,558.46,81.76,-17.41,525.382141,1,0,0,0,0,,,,,,,,
593845,95040.875000,283.90,-0.440533,7.244854,-0.134075,0.080881,-2.843609,0.036183,281.66,4.02,559.36,81.67,-17.37,525.682678,1,0,0,0,0,,,,,,,,
593855,95025.765625,283.92,-0.105344,7.326257,-0.100556,0.086202,-2.842545,0.025541,281.64,4.02,560.35,81.67,-17.35,526.980102,1,0,0,0,0,,,,,,,,
593865,95025.765625,283.92,-0.541089,7.220911,-0.143652,0.084073,-2.834031,0.018091,281.73,4.02,561.10,81.43,-17.32,526.980102,1,0,0,0,0,,,,,,,,
593875,94988.531250,283.92,-0.430956,7.292738,-0.167594,0.084073,-2.828710,0.014899,281.67,4.02,562.46,81.79,-17.30,530.178039,1,0,0,0,0,,,,,,,,
593885,95007.140625,283.92,-0.277727,7.139509,-0.167594,0.086202,-2.824453,0.003192,281.61,4.02,563.08,81.43,-17.27,528.579589,1,0,0,0,0,,,,,,,,
593895,94988.531250,283.92,-0.325611,7.139509,-0.071826,0.087266,-2.811682,0.003192,281.60,4.02,563.95,81.31,-17.23,530.178039,1,0,0,0,0,,,,,,,,
593905,94969.921875,283.92,-0.804451,7.101202,-0.368707,0.085138,-2.814875,-0.003192,281.67,4.03,564.99,81.37,-17.20,531.776794,1,0,0,0,0,,,,,,,,
593915,94969.921875,283.92,-0.282515,7.101202,-0.225054,0.074495,-2.811682,-0.007449,281.67,4.03,565.78,81.17,-17.18,531.776794,1,0,0,0,0,,,,,,,,
593925,94969.921875,283.92,-0.574608,7.048529,-0.713472,0.070238,-2.804233,-0.008513,281.63,4.02,566.37,80.79,-17.14,531.776794,1,0,0,0,0,,,,,,,,
593935,94969.921875,283.92,-0.627280,6.967126,0.258573,0.060660,-2.796783,-0.011706,281.60,4.02,566.81,80.26,-17.11,531.776794,1,0,0,0,0,,,,,,,,
593945,94951.296875,283.92,-0.507570,7.077260,-0.900219,0.055339,-2.790398,-0.015963,281.66,4.02,567.53,80.02,-17.08,533.377075,1,0,0,0,0,,,,,,,,
593955,94932.687500,283.92,-0.909796,6.947973,0.292092,0.052147,-2.782948,-0.013834,281.61,4.03,568.47,79.99,-17.05,534.976257,1,0,0,0,0,,,,,,,,
593965,94914.062500,283.92,-0.598550,6.952761,-0.478840,0.050018,-2.770178,-0.015963,281.69,4.03,569.58,80.12,-17.03,536.577087,1,0,0,0,0,,,,,,,,
593975,94914.062500,283.92,-0.924161,6.924031,-0.354341,0.045761,-2.759535,-0.007449,281.72,4.03,570.41,79.98,-17.00,536.577087,1,0,0,0,0,,,,,,,,
593985,94914.062500,283.92,-1.067813,6.737283,0.411802,0.048954,-2.764857,0.003192,281.64,4.03,571.03,79.64,-16.95,536.577087,1,0,0,0,0,,,,,,,,
593995,94895.453125,283.92,-0.574608,6.818686,-0.306457,0.048954,-2.762728,0.002128,281.63,4.02,571.89,79.54,-16.92,538.176818,1,0,0,0,0,,,,,,,,
594005,94895.453125,283.92,-1.015141,6.823474,0.162805,0.051082,-2.756343,0.017027,281.66,4.02,572.54,79.23,-16.89,538.176818,1,0,0,0,0,,,,,,,,
594015,94895.453125,283.92,-1.201889,6.842628,0.134075,0.050018,-2.755279,0.020220,281.70,4.01,573.02,78.76,-16.87,538.176818,1,0,0,0,0,,,,,,,,
594025,94895.453125,283.92,-0.258573,6.804321,-0.407014,0.056403,-2.752086,0.024477,281.70,4.00,573.38,78.18,-16.84,538.176818,1,0,0,0,0,,,,,,,,
594035,94839.609375,283.92,-1.254561,6.708552,0.550666,0.059596,-2.759535,0.034055,281.64,4.00,574.85,78.68,-16.81,542.978820,1,0,0,0,0,,,,,,,,
594045,94839.609375,283.92,-0.823605,6.636726,-0.435744,0.063853,-2.761664,0.036183,281.66,4.00,575.95,78.82,-16.78,542.978820,1,0,0,0,0,,,,,,,,
594055,94839.609375,283.92,-0.330399,6.732494,0.277727,0.068110,-2.755279,0.043633,281.66,3.98,576.78,78.69,-16.76,542.978820,1,0,0,0,0,,,,,,,,
594065,94858.218750,283.92,-1.719036,6.579266,0.134075,0.076624,-2.747829,0.047890,281.70,4.00,577.00,77.98,-16.72,541.378356,1,0,0,0,0,,,,,,,,
594075,94839.609375,283.92,-0.167594,6.660668,-0.028730,0.077688,-2.746765,0.055339,281.67,3.98,577.56,77.60,-16.69,542.978820,1,0,0,0,0,,,,,,,,
594085,94839.609375,283.92,-0.995987,6.545747,-0.057460,0.086202,-2.732930,0.063853,281.66,3.98,577.98,77.09,-16.66,542.978820,1,0,0,0,0,,,,,,,,
594095,94802.375000,283.92,-0.531512,6.675034,0.201112,0.087266,-2.724416,0.061725,281.70,3.98,579.08,77.25,-16.64,546.181884,1,0,0,0,0,,,,,,,,
594105,94820.984375,283.92,-0.287304,6.603208,-0.095768,0.093651,-2.726544,0.061725,281.66,3.98,579.52,76.76,-16.62,544.580932,1,0,0,0,0,,,,,,,,
594115,94783.750000,283.92,-0.919373,6.493074,0.387860,0.101101,-2.722288,0.062789,281.70,3.98,580.64,76.94,-16.59,547.784484,1,0,0,0,0,,,,,,,,
594125,94783.750000,283.92,-0.248996,6.517016,-0.292092,0.105358,-2.710581,0.060660,281.64,3.98,581.48,76.85,-16.56,547.784484,1,0,0,0,0,,,,,,,,
594135,94783.750000,283.92,-0.627280,6.440402,0.100556,0.108550,-2.703131,0.061725,281.72,3.98,582.11,76.56,-16.53,547.784484,1,0,0,0,0,,,,,,,,
594145,94783.750000,283.92,-0.521935,6.507440,-0.028730,0.105358,-2.695682,0.054275,281.63,3.98,582.59,76.11,-16.51,547.784484,1,0,0,0,0,,,,,,,,
594155,94765.140625,283.92,0.004788,6.449979,-0.507570,0.102165,-2.682911,0.047890,281.60,4.00,583.34,75.94,-16.49,549.385986,1,0,0,0,0,,,,,,,,
594165,94746.531250,283.92,-0.627280,6.325480,0.081402,0.101101,-2.670140,0.047890,281.70,3.98,584.30,75.97,-16.45,550.987731,1,0,0,0,0,,,,,,,,
594175,94727.906250,283.92,-0.368707,6.387730,-0.181959,0.098972,-2.658434,0.040440,281.67,3.98,585.42,76.16,-16.43,552.591125,1,0,0,0,0,,,,,,,,
594185,94727.906250,283.92,0.196324,6.406883,-0.732625,0.097908,-2.653113,0.032990,281.64,3.97,586.26,76.08,-16.41,552.591125,1,0,0,0,0,,,,,,,,
594195,94727.906250,283.92,-0.905008,6.378153,0.306457,0.092587,-2.645663,0.032990,281.69,3.98,586.90,75.79,-16.39,552.591125,1,0,0,0,0,,,,,,,,
594205,94727.906250,283.92,0.320823,6.339846,-0.881066,0.090459,-2.639278,0.018091,281.58,3.98,587.37,75.35,-16.36,552.591125,1,0,0,0,0,,,,,,,,
594215,94690.671875,283.92,-0.411802,6.277596,0.129286,0.086202,-2.628636,0.012770,281.69,4.00,588.52,75.58,-16.34,555.797241,1,0,0,0,0,,,,,,,,
594225,94690.671875,283.92,-0.699106,6.200982,-0.536301,0.079816,-2.623315,0.009578,281.57,4.02,589.38,75.53,-16.30,555.797241,1,0,0,0,0,,,,,,,,
594235,94668.562500,283.90,0.148440,6.244078,-0.311246,0.071303,-2.613737,0.003192,281.72,4.01,590.51,75.72,-16.28,557.701477,1,0,0,0,0,,,,,,,,
594245,94672.062500,283.92,-0.684741,6.177040,-0.148440,0.068110,-2.609479,0.001064,281.69,4.02,591.28,75.58,-16.25,557.400024,1,0,0,0,0,,,,,,,,
594255,94672.062500,283.92,-0.335188,6.268020,-0.483628,0.057468,-2.602030,-0.002128,281.64,4.02,591.86,75.24,-16.23,557.400024,1,0,0,0,0,,,,,,,,
594265,94653.453125,283.92,-0.464475,6.119579,-0.033518,0.055339,-2.597773,0.000000,281.67,4.02,592.69,75.16,-16.21,559.003051,1,0,0,0,0,,,,,,,,
594275,94653.453125,283.92,-0.426167,6.076483,-0.229843,0.053211,-2.596709,-0.005321,281.60,4.02,593.31,74.88,-16.17,559.003051,1,0,0,0,0,,,,,,,,
594285,94634.828125,283.92,-0.311246,6.076483,-0.469263,0.047890,-2.594580,-0.005321,281.70,4.02,594.17,74.83,-16.15,560.607666,1,0,0,0,0,,,,,,,,
594295,94616.218750,283.92,-0.416591,6.081272,0.014365,0.044697,-2.591388,-0.008513,281.58,4.02,595.22,74.96,-16.12,562.211242,1,0,0,0,0,,,,,,,,
594305,94619.734375,283.94,-0.488417,6.019022,-0.090979,0.045761,-2.582874,-0.009578,281.72,4.02,595.94,74.77,-16.09,561.908264,1,0,0,0,0,,,,,,,,
594315,94616.218750,283.92,-0.641646,5.966350,0.134075,0.045761,-2.581810,-0.006385,281.61,4.03,596.55,74.48,-16.06,562.211242,1,0,0,0,0,,,,,,,,
594325,94597.593750,283.92,-0.119710,6.014234,-0.239420,0.047890,-2.579681,-0.007449,281.64,4.02,597.40,74.43,-16.04,563.816345,1,0,0,0,0,,,,,,,,
594335,94616.218750,283.92,-0.694318,6.014234,0.215478,0.051082,-2.575424,-0.004256,281.64,4.03,597.64,73.78,-16.02,562.211242,1,0,0,0,0,,,,,,,,
594345,94597.593750,283.92,-0.632069,5.951985,0.009576,0.052147,-2.579681,-0.010642,281.66,4.02,598.22,73.47,-15.99,563.816345,1,0,0,0,0,,,,,,,,
594355,94578.984375,283.92,0.052672,5.894524,-0.344765,0.056403,-2.576488,-0.003192,281.64,4.03,599.05,73.40,-15.96,565.420410,1,0,0,0,0,,,,,,,,
594365,94578.984375,283.92,-0.933738,5.961562,0.316034,0.058532,-2.570103,-0.008513,281.67,4.02,599.67,73.14,-15.94,565.420410,1,0,0,0,0,,,,,,,,
594375,94560.359375,283.92,-0.033518,5.822698,-0.325611,0.061725,-2.569039,-0.008513,281.64,4.02,600.54,73.11,-15.91,567.026062,1,0,0,0,0,,,,,,,,
594385,94541.750000,283.92,-0.593762,5.856217,0.469263,0.064917,-2.558397,-0.007449,281.69,4.03,601.59,73.27,-15.89,568.630615,1,0,0,0,0,,,,,,,,
594395,94545.265625,283.94,-0.421379,5.861005,-0.220266,0.065981,-2.549883,-0.008513,281.66,4.02,602.30,73.09,-15.87,568.327514,1,0,0,0,0,,,,,,,,
594405,94545.265625,283.94,-0.603338,5.760449,0.287304,0.071303,-2.548819,-0.005321,281.61,4.02,602.84,72.75,-15.84,568.327514,1,0,0,0,0,,,,,,,,
594415,94523.140625,283.92,-0.311246,5.755661,0.134075,0.072367,-2.549883,-0.008513,281.57,4.00,603.71,72.73,-15.81,570.235473,1,0,0,0,0,,,,,,,,
594425,94523.140625,283.92,-0.402225,5.784391,-0.057460,0.078752,-2.545626,-0.010642,281.69,4.01,604.37,72.51,-15.79,570.235473,1,0,0,0,0,,,,,,,,
594435,94523.140625,283.92,-0.349553,5.650315,0.205901,0.080881,-2.540305,-0.011706,281.66,4.00,604.86,72.13,-15.76,570.235473,1,0,0,0,0,,,,,,,,
594445,94508.031250,283.94,-0.335188,5.674257,-0.086191,0.084073,-2.533920,-0.009578,281.67,3.98,605.55,71.94,-15.73,571.538635,1,0,0,0,0,,,,,,,,
594455,94508.031250,283.94,-0.588973,5.588066,0.057460,0.083009,-2.515828,-0.013834,281.69,4.00,606.07,71.59,-15.70,571.538635,1,0,0,0,0,,,,,,,,
594465,94485.906250,283.92,0.234631,5.655104,-0.177170,0.084073,-2.491351,-0.010642,281.67,3.98,606.93,71.58,-15.68,573.447204,1,0,0,0,0,,,,,,,,
594475,94485.906250,283.92,-0.641646,5.616796,-0.009576,0.085138,-2.478580,-0.018091,281.69,3.98,607.57,71.36,-15.65,573.447204,1,0,0,0,0,,,,,,,,
594485,94470.796875,283.94,-0.105344,5.525817,0.071826,0.093651,-2.469002,-0.022348,281.63,4.00,608.38,71.30,-15.62,574.750793,1,0,0,0,0,,,,,,,,
594495,94452.187500,283.94,-0.095768,5.664680,-0.991199,0.088330,-2.457295,-0.024477,281.64,4.00,609.39,71.43,-15.61,576.356628,1,0,0,0,0,,,,,,,,
594505,94448.671875,283.92,-0.363918,5.482721,-0.129286,0.086202,-2.503057,-0.030862,281.69,3.98,610.22,71.39,-15.58,576.659973,1,0,0,0,0,,,,,,,,
594515,94448.671875,283.92,-0.186747,5.516240,-0.885854,0.077688,-2.519021,-0.028734,281.64,3.98,610.85,71.15,-15.55,576.659973,1,0,0,0,0,,,,,,,,
594525,94430.062500,283.92,-0.421379,5.473145,-0.560243,0.067046,-2.511571,-0.037247,281.72,3.98,611.71,71.15,-15.53,578.266113,1,0,0,0,0,,,,,,,,
594535,94411.437500,283.92,-0.565031,5.492298,-0.292092,0.056403,-2.500929,-0.030862,281.69,3.98,612.77,71.33,-15.51,579.873779,1,0,0,0,0,,,,,,,,
594545,94392.828125,283.92,-0.608127,5.511452,-1.019929,0.046825,-2.499864,-0.036183,281.66,3.98,613.96,71.64,-15.49,581.480407,1,0,0,0,0,,,,,,,,
594555,94392.828125,283.92,-0.191536,5.473145,-0.363918,0.037247,-2.492415,-0.022348,281.63,3.98,614.86,71.66,-15.47,581.480407,1,0,0,0,0,,,,,,,,
594565,94392.828125,283.92,-1.302445,5.372588,-0.991199,0.028734,-2.503057,-0.014899,281.72,3.98,615.53,71.47,-15.44,581.480407,1,0,0,0,0,,,,,,,,
594575,94374.203125,283.92,0.181959,5.410895,-0.282515,0.013834,-2.497736,-0.007449,281.63,3.98,616.43,71.50,-15.42,583.088623,1,0,0,0,0,,,,,,,,
594585,94396.328125,283.94,-0.670376,5.391742,-1.029506,0.002128,-2.489222,-0.004256,281.72,4.00,616.64,70.85,-15.40,581.178222,1,0,0,0,0,,,,,,,,
594595,94374.203125,283.92,-0.239420,5.406107,-0.014365,-0.006385,-2.477516,-0.008513,281.57,3.98,617.26,70.62,-15.38,583.088623,1,0,0,0,0,,,,,,,,
594605,94374.203125,283.92,-0.225054,5.377377,-0.790086,-0.007449,-2.466873,0.000000,281.64,3.98,617.73,70.23,-15.36,583.088623,1,0,0,0,0,,,,,,,,
594615,94359.093750,283.94,-0.445321,5.334281,0.023942,-0.008513,-2.457295,0.003192,281.69,4.01,618.40,70.05,-15.34,584.393493,1,0,0,0,0,,,,,,,,
594625,94340.484375,283.94,-0.095768,5.339069,-0.837970,-0.018091,-2.448782,-0.005321,281.69,4.02,619.31,70.10,-15.32,586.000793,1,0,0,0,0,,,,,,,,
594635,94336.968750,283.92,0.105344,5.243301,-0.114921,-0.018091,-2.459424,-0.004256,281.67,4.02,620.06,70.00,-15.29,586.304504,1,0,0,0,0,,,,,,,,
594645,94340.484375,283.94,-0.814028,5.214570,-0.344765,-0.024477,-2.457295,-0.007449,281.72,4.02,620.55,69.65,-15.27,586.000793,1,0,0,0,0,,,,,,,,
594655,94318.359375,283.92,0.311246,5.363011,-0.253785,-0.027669,-2.453038,-0.008513,281.66,4.02,621.39,69.64,-15.26,587.912170,1,0,0,0,0,,,,,,,,
594665,94321.859375,283.94,-0.248996,5.181052,-0.296881,-0.026605,-2.453038,-0.009578,281.66,4.02,621.95,69.35,-15.23,587.609741,1,0,0,0,0,,,,,,,,
594675,94303.250000,283.94,-0.493205,5.238513,0.153228,-0.025541,-2.437075,-0.018091,281.67,4.03,622.77,69.32,-15.21,589.217590,1,0,0,0,0,,,,,,,,
594685,94299.750000,283.92,-0.521935,5.195417,0.000000,-0.025541,-2.441332,-0.021284,281.69,4.02,623.45,69.17,-15.19,589.520019,1,0,0,0,0,,,,,,,,
594695,94303.250000,283.94,-0.038307,5.123591,-0.311246,-0.024477,-2.432818,-0.012770,281.63,4.02,623.89,68.78,-15.17,589.217590,1,0,0,0,0,,,,,,,,
594705,94281.125000,283.92,-0.723048,5.128379,0.699106,-0.021284,-2.408341,-0.007449,281.69,4.03,624.70,68.74,-15.14,591.129516,1,0,0,0,0,,,,,,,,
594715,94266.015625,283.94,-0.186747,5.161898,-0.105344,-0.013834,-2.393442,-0.019156,281.70,4.02,625.63,68.82,-15.13,592.435424,1,0,0,0,0,,,,,,,,
594725,94266.015625,283.94,-0.076614,5.075707,0.521935,-0.008513,-2.383864,-0.009578,281.66,4.03,626.33,68.69,-15.10,592.435424,1,0,0,0,0,,,,,,,,
594735,94262.515625,283.92,-0.689530,5.080495,0.512359,0.001064,-2.370029,-0.017027,281.66,4.02,626.92,68.45,-15.08,592.737976,1,0,0,0,0,,,,,,,,
594745,94243.890625,283.92,-0.014365,5.171475,0.411802,0.011706,-2.356194,-0.013834,281.63,4.03,627.77,68.46,-15.07,594.347961,1,0,0,0,0,,,,,,,,
594755,94228.781250,283.94,-0.335188,5.032611,0.296881,0.031926,-2.355130,-0.012770,281.63,4.02,628.73,68.58,-15.05,595.654296,1,0,0,0,0,,,,,,,,
594765,94228.781250,283.94,-0.124498,4.994304,0.478840,0.036183,-2.360451,-0.015963,281.67,4.02,629.46,68.47,-15.03,595.654296,1,0,0,0,0,,,,,,,,
594775,94228.781250,283.94,0.009576,5.023035,0.277727,0.044697,-2.347680,-0.017027,281.70,4.03,630.00,68.19,-15.01,595.654296,1,0,0,0,0,,,,,,,,
594785,94206.671875,283.92,0.124498,5.003881,0.507570,0.052147,-2.334909,-0.028734,281.67,4.03,630.88,68.23,-14.99,597.566101,1,0,0,0,0,,,,,,,,
594795,94206.671875,283.92,-0.067037,4.917690,0.641646,0.062789,-2.324267,-0.035119,281.66,4.03,631.55,68.07,-14.96,597.566101,1,0,0,0,0,,,,,,,,
594805,94191.546875,283.94,0.143652,4.850652,0.325611,0.075559,-2.317882,-0.043633,281.64,4.02,632.37,68.06,-14.93,598.874145,1,0,0,0,0,,,,,,,,
594815,94210.171875,283.94,-0.272938,4.999093,0.670376,0.085138,-2.315753,-0.045761,281.61,4.00,632.58,67.46,-14.92,597.263427,1,0,0,0,0,,,,,,,,
594825,94210.171875,283.94,0.220266,4.908113,0.090979,0.091523,-2.300854,-0.062789,281.64,4.00,632.74,66.81,-14.90,597.263427,1,0,0,0,0,,,,,,,,
594835,94172.937500,283.94,0.000000,4.893748,0.612915,0.098972,-2.280634,-0.062789,281.64,4.00,633.66,66.90,-14.88,600.483825,1,0,0,0,0,,,,,,,,
594845,94172.937500,283.94,-0.320823,4.884171,0.047884,0.106422,-2.267863,-0.083009,281.64,4.00,634.34,66.77,-14.86,600.483825,1,0,0,0,0,,,,,,,,
594855,94191.546875,283.94,0.153228,4.898536,0.258573,0.105358,-2.241258,-0.086202,281.63,4.00,634.46,66.09,-14.84,598.874145,1,0,0,0,0,,,,,,,,
594865,94154.312500,283.94,-0.632069,4.764461,0.023942,0.112807,-2.234872,-0.093651,281.67,4.00,635.34,66.16,-14.82,602.095092,1,0,0,0,0,,,,,,,,
594875,94154.312500,283.94,-0.392649,4.769249,0.143652,0.106422,-2.229551,-0.091523,281.66,3.98,636.01,66.02,-14.79,602.095092,1,0,0,0,0,,,,,,,,
594885,94135.703125,283.94,-0.277727,4.750096,-0.512359,0.105358,-2.226359,-0.087266,281.66,3.98,636.91,66.10,-14.77,603.705261,1,0,0,0,0,,,,,,,,
594895,94135.703125,283.94,-0.770932,4.716577,0.368707,0.105358,-2.232744,-0.079816,281.66,3.98,637.58,65.97,-14.75,603.705261,1,0,0,0,0,,,,,,,,
594905,94135.703125,283.94,-0.143652,4.663904,-0.450109,0.105358,-2.246579,-0.073431,281.69,3.98,638.09,65.68,-14.72,603.705261,1,0,0,0,0,,,,,,,,
594915,94117.078125,283.94,-0.248996,4.596867,-0.167594,0.101101,-2.251900,-0.071303,281.67,3.98,638.87,65.65,-14.69,605.317016,1,0,0,0,0,,,,,,,,
594925,94117.078125,283.94,-0.450109,4.668693,-0.325611,0.093651,-2.250836,-0.071303,281.66,4.00,639.45,65.44,-14.67,605.317016,1,0,0,0,0,,,,,,,,
594935,94079.843750,283.94,-0.196324,4.592078,-0.402225,0.094716,-2.254029,-0.071303,281.73,4.00,640.69,65.87,-14.65,608.539978,1,0,0,0,0,,,,,,,,
594945,94117.078125,283.94,-0.727837,4.620809,-0.478840,0.086202,-2.258285,-0.073431,281.69,3.98,640.82,65.21,-14.62,605.317016,1,0,0,0,0,,,,,,,,
594955,94094.968750,283.92,-0.656011,4.582501,-0.684741,0.072367,-2.262542,-0.063853,281.60,3.98,641.39,64.99,-14.60,607.230651,1,0,0,0,0,,,,,,,,
594965,94079.843750,283.94,-0.560243,4.539406,-0.435744,0.063853,-2.250836,-0.053211,281.70,3.98,642.15,64.95,-14.58,608.539978,1,0,0,0,0,,,,,,,,
594975,94061.234375,283.94,-1.072602,4.568136,-0.421379,0.048954,-2.237001,-0.046825,281.69,3.98,643.11,65.11,-14.56,610.151184,1,0,0,0,0,,,,,,,,
594985,94061.234375,283.94,-0.483628,4.525041,-0.517147,0.040440,-2.234872,-0.036183,281.66,3.98,643.84,65.04,-14.54,610.151184,1,0,0,0,0,,,,,,,,
594995,94061.234375,283.94,-0.847547,4.472368,-0.474051,0.030862,-2.230615,-0.026605,281.58,3.98,644.39,64.80,-14.51,610.151184,1,0,0,0,0,,,,,,,,
595005,94042.625000,283.94,-0.972045,4.410119,-0.287304,0.023412,-2.233808,-0.019156,281.61,3.98,645.20,64.81,-14.48,611.762634,1,0,0,0,0,,,,,,,,
595015,94024.000000,283.94,-0.526724,4.539406,-0.708683,0.013834,-2.232744,-0.003192,281.66,4.01,646.21,65.02,-14.47,613.375732,1,0,0,0,0,,,,,,,,
595025,94024.000000,283.94,-1.120486,4.419696,-0.033518,0.011706,-2.227423,0.008513,281.69,4.01,646.97,64.98,-14.45,613.375732,1,0,0,0,0,,,,,,,,
595035,94005.390625,283.94,-0.699106,4.400542,-0.617704,0.007449,-2.218909,0.018091,281.66,4.02,647.94,65.15,-14.43,614.987670,1,0,0,0,0,,,,,,,,
595045,93986.765625,283.94,-0.593762,4.410119,-0.359130,-0.001064,-2.210395,0.026605,281.67,4.02,649.07,65.48,-14.41,616.601257,1,0,0,0,0,,,,,,,,
595055,94005.390625,283.94,-1.101332,4.376600,-0.488417,-0.010642,-2.209331,0.037247,281.63,4.03,649.52,65.14,-14.38,614.987670,1,0,0,0,0,,,,,,,,
595065,93986.765625,283.94,-0.593762,4.405331,-0.292092,-0.010642,-2.197624,0.047890,281.69,4.02,650.26,65.08,-14.37,616.601257,1,0,0,0,0,,,,,,,,
595075,93968.156250,283.94,-0.814028,4.376600,-0.469263,-0.017027,-2.186982,0.058532,281.60,4.02,651.21,65.24,-14.35,618.213745,1,0,0,0,0,,,,,,,,
595085,93964.656250,283.92,-1.000776,4.309563,-0.215478,-0.015963,-2.136964,0.061725,281.64,4.02,652.01,65.23,-14.33,618.517028,1,0,0,0,0,,,,,,,,
595095,93949.531250,283.94,-0.383072,4.285621,-0.593762,-0.025541,-2.131643,0.086202,281.70,4.03,652.93,65.35,-14.31,619.827880,1,0,0,0,0,,,,,,,,
595105,93968.156250,283.94,-0.718260,4.304774,-0.316034,-0.029798,-2.121000,0.094716,281.69,4.03,653.22,64.86,-14.29,618.213745,1,0,0,0,0,,,,,,,,
595115,93930.921875,283.94,0.225054,4.357447,0.009576,-0.035119,-2.121000,0.098972,281.63,4.02,654.24,65.08,-14.28,621.440856,1,0,0,0,0,,,,,,,,
595125,93949.531250,283.94,0.081402,4.352658,-0.421379,-0.026605,-2.113551,0.089394,281.67,4.02,654.61,64.66,-14.26,619.827880,1,0,0,0,0,,,,,,,,
595135,93927.421875,283.92,-0.047884,4.410119,0.033518,-0.026605,-2.108230,0.078752,281.66,4.02,655.36,64.62,-14.26,621.744262,1,0,0,0,0,,,,,,,,
595145,93912.296875,283.94,0.282515,4.367023,-0.737414,-0.025541,-2.102908,0.064917,281.69,4.02,656.25,64.71,-14.25,623.055480,1,0,0,0,0,,,,,,,,
595155,93912.296875,283.94,-0.071826,4.266467,-0.124498,-0.029798,-2.099716,0.051082,281.66,4.02,656.91,64.59,-14.23,623.055480,1,0,0,0,0,,,,,,,,
595165,93912.296875,283.94,-0.579396,4.285621,-0.608127,-0.036183,-2.083752,0.046825,281.67,4.02,657.41,64.31,-14.22,623.055480,1,0,0,0,0,,,,,,,,
595175,93912.296875,283.94,0.014365,4.314351,-0.292092,-0.035119,-2.081624,0.047890,281.67,4.02,657.79,63.91,-14.21,623.055480,1,0,0,0,0,,,,,,,,
595185,93893.687500,283.94,-0.320823,4.189852,-0.339976,-0.037247,-2.085881,0.050018,281.60,4.02,658.47,63.81,-14.19,624.669006,1,0,0,0,0,,,,,,,,
595195,93875.062500,283.94,-0.038307,4.237736,-0.608127,-0.040440,-2.073110,0.048954,281.69,4.02,659.38,63.93,-14.17,626.284118,1,0,0,0,0,,,,,,,,
595205,93893.687500,283.94,-0.086191,4.204217,-0.311246,-0.044697,-2.058211,0.046825,281.63,4.03,659.66,63.45,-14.16,624.669006,1,0,0,0,0,,,,,,,,
595215,93893.687500,283.94,0.095768,4.189852,-0.660799,-0.050018,-2.059275,0.039376,281.63,4.01,659.87,62.90,-14.14,624.669006,1,0,0,0,0,,,,,,,,
595225,93875.062500,283.94,-0.205901,4.194641,-0.244208,-0.055339,-2.064596,0.031926,281.72,4.00,660.43,62.68,-14.13,626.284118,1,0,0,0,0,,,,,,,,
595235,93875.062500,283.94,0.143652,4.146757,-0.497993,-0.060660,-2.063532,0.026605,281.61,3.98,660.84,62.34,-14.11,626.284118,1,0,0,0,0,,,,,,,,
595245,93875.062500,283.94,-0.248996,4.108449,-0.201112,-0.063853,-2.056082,0.025541,281.67,3.98,661.15,61.90,-14.09,626.284118,1,0,0,0,0,,,,,,,,
595255,93856.453125,283.94,-0.052672,4.165910,-0.258573,-0.067046,-2.055018,0.023412,281.70,3.98,661.78,61.77,-14.08,627.898193,1,0,0,0,0,,,,,,,,
595265,93837.843750,283.94,0.234631,4.127603,-0.287304,-0.065981,-2.048633,0.017027,281.72,4.00,662.66,61.88,-14.06,629.512512,1,0,0,0,0,,,,,,,,
595275,93837.843750,283.94,-0.138863,4.065354,-0.067037,-0.064917,-2.044376,0.012770,281.63,3.98,663.31,61.78,-14.05,629.512512,1,0,0,0,0,,,,,,,,
595285,93837.843750,283.94,0.124498,4.137180,-0.215478,-0.069174,-2.024156,0.006385,281.72,4.00,663.81,61.52,-14.03,629.512512,1,0,0,0,0,,,,,,,,
595295,93837.843750,283.94,0.258573,4.055777,0.086191,-0.067046,-2.020963,-0.002128,281.75,4.00,664.18,61.14,-14.02,629.512512,1,0,0,0,0,,,,,,,,
595305,93819.218750,283.94,-0.162805,3.955221,0.057460,-0.064917,-2.016706,-0.005321,281.60,4.00,664.85,61.07,-13.99,631.128417,1,0,0,0,0,,,,,,,,
595315,93819.218750,283.94,0.272938,4.050989,-0.009576,-0.064917,-2.001807,-0.012770,281.72,3.98,665.36,60.83,-13.98,631.128417,1,0,0,0,0,,,,,,,,
595325,93800.609375,283.94,0.038307,4.036623,0.234631,-0.059596,-1.994357,-0.024477,281.63,3.98,666.14,60.86,-13.97,632.743225,1,0,0,0,0,,,,,,,,
595335,93800.609375,283.94,0.095768,3.993528,0.124498,-0.046825,-1.995422,-0.030862,281.64,4.00,666.73,60.70,-13.95,632.743225,1,0,0,0,0,,,,,,,,
595345,93800.609375,283.94,-0.177170,3.960009,-0.009576,-0.043633,-1.991165,-0.035119,281.63,3.98,667.17,60.40,-13.93,632.743225,1,0,0,0,0,,,,,,,,
595355,93781.984375,283.94,-0.023942,3.945644,0.114921,-0.044697,-1.987972,-0.041504,281.72,3.98,667.90,60.39,-13.91,634.359680,1,0,0,0,0,,,,,,,,
595365,93781.984375,283.94,-0.339976,3.873818,0.100556,-0.040440,-1.992229,-0.038312,281.70,3.98,668.45,60.19,-13.89,634.359680,1,0,0,0,0,,,,,,,,
595375,93781.984375,283.94,-0.253785,3.907337,0.110133,-0.036183,-1.991165,-0.039376,281.72,3.98,668.86,59.87,-13.87,634.359680,1,0,0,0,0,,,,,,,,
595385,93763.375000,283.94,-0.028730,3.883395,0.292092,-0.030862,-1.991165,-0.038312,281.66,3.98,669.56,59.84,-13.86,635.975036,1,0,0,0,0,,,,,,,,
595395,93763.375000,283.94,-0.603338,3.825934,0.244208,-0.024477,-1.993293,-0.037247,281.72,3.98,670.10,59.64,-13.83,635.975036,1,0,0,0,0,,,,,,,,
595405,93763.375000,283.94,-0.172382,3.864241,0.359130,-0.018091,-1.992229,-0.036183,281.69,3.98,670.49,59.31,-13.82,635.975036,1,0,0,0,0,,,,,,,,
595415,93744.750000,283.94,-0.483628,3.801992,0.248996,-0.009578,-1.994357,-0.031926,281.69,4.01,671.19,59.28,-13.80,637.591979,1,0,0,0,0,,,,,,,,
595425,93726.140625,283.94,-0.517147,3.744531,0.339976,0.000000,-1.997550,-0.026605,281.67,4.02,672.12,59.47,-13.77,639.207824,1,0,0,0,0,,,,,,,,
595435,93726.140625,283.94,-0.234631,3.801992,0.119710,0.002128,-1.996486,-0.025541,281.66,4.01,672.82,59.43,-13.76,639.207824,1,0,0,0,0,,,,,,,,
595445,93726.140625,283.94,-0.622492,3.739742,0.459686,0.010642,-2.002871,-0.025541,281.63,4.02,673.34,59.23,-13.74,639.207824,1,0,0,0,0,,,,,,,,
595455,93707.515625,283.94,-0.670376,3.754108,0.316034,0.019156,-2.006064,-0.018091,281.61,4.02,674.14,59.29,-13.72,640.825317,1,0,0,0,0,,,,,,,,
595465,93707.515625,283.94,-0.593762,3.696647,0.277727,0.026605,-2.002871,-0.011706,281.69,4.02,674.73,59.16,-13.70,640.825317,1,0,0,0,0,,,,,,,,
595475,93707.515625,283.94,-0.675164,3.663128,0.181959,0.029798,-2.002871,-0.006385,281.69,4.03,675.18,58.88,-13.68,640.825317,1,0,0,0,0,,,,,,,,
595485,93688.906250,283.94,-0.550666,3.711012,0.172382,0.034055,-1.993293,0.001064,281.69,4.02,675.92,58.89,-13.66,642.441711,1,0,0,0,0,,,,,,,,
595495,93651.671875,283.94,-0.842759,3.663128,0.330399,0.041504,-1.993293,0.009578,281.66,4.02,677.27,59.50,-13.65,645.676574,1,0,0,0,0,,,,,,,,
595505,93670.281250,283.94,-0.574608,3.572148,0.134075,0.044697,-1.991165,0.019156,281.66,4.02,677.90,59.40,-13.62,644.059692,1,0,0,0,0,,,,,,,,
595515,93670.281250,283.94,-0.493205,3.600879,0.253785,0.051082,-1.999679,0.029798,281.66,4.02,678.36,59.14,-13.60,644.059692,1,0,0,0,0,,,,,,,,
595525,93655.140625,283.95,-0.646434,3.581725,0.210689,0.053211,-1.993293,0.028734,281.69,4.02,679.04,59.09,-13.58,645.375183,1,0,0,0,0,,,,,,,,
595535,93670.281250,283.94,-0.272938,3.624821,0.028730,0.055339,-1.986908,0.029798,281.69,4.02,679.22,58.55,-13.56,644.059692,1,0,0,0,0,,,,,,,,
595545,93633.046875,283.94,-0.641646,3.658340,0.076614,0.058532,-1.981587,0.030862,281.64,4.02,680.16,58.76,-13.55,647.295104,1,0,0,0,0,,,,,,,,
595555,93651.671875,283.94,-0.565031,3.529053,0.081402,0.067046,-1.979458,0.032990,281.63,4.02,680.46,58.35,-13.53,645.676574,1,0,0,0,0,,,,,,,,
595565,93633.046875,283.94,-0.656011,3.543418,-0.201112,0.064917,-1.980522,0.038312,281.70,4.03,681.08,58.26,-13.51,647.295104,1,0,0,0,0,,,,,,,,
595575,93614.437500,283.94,-0.555454,3.548206,-0.368707,0.063853,-1.980522,0.043633,281.63,4.03,681.96,58.41,-13.50,648.912536,1,0,0,0,0,,,,,,,,
595585,93614.437500,283.94,-0.694318,3.562572,-0.019153,0.060660,-1.968816,0.051082,281.66,4.02,682.61,58.34,-13.49,648.912536,1,0,0,0,0,,,,,,,,
595595,93614.437500,283.94,-0.454898,3.557783,-0.632069,0.054275,-1.964559,0.056403,281.67,4.02,683.11,58.12,-13.47,648.912536,1,0,0,0,0,,,,,,,,
595605,93595.828125,283.94,-0.507570,3.476380,-0.292092,0.050018,-1.961367,0.064917,281.69,4.02,683.88,58.17,-13.46,650.530212,1,0,0,0,0,,,,,,,,
595615,93614.437500,283.94,-0.512359,3.533841,-0.612915,0.039376,-1.945403,0.067046,281.64,4.01,684.05,57.65,-13.44,648.912536,1,0,0,0,0,,,,,,,,
595625,93595.828125,283.94,-0.426167,3.572148,-0.292092,0.030862,-1.937954,0.069174,281.72,4.01,684.59,57.47,-13.44,650.530212,1,0,0,0,0,,,,,,,,
595635,93595.828125,283.94,-0.378283,3.428496,-0.344765,0.025541,-1.958174,0.073431,281.67,4.00,684.98,57.17,-13.42,650.530212,1,0,0,0,0,,,,,,,,
595645,93595.828125,283.94,-0.215478,3.447650,-0.512359,0.017027,-1.948596,0.073431,281.66,4.00,685.28,56.77,-13.40,650.530212,1,0,0,0,0,,,,,,,,
595655,93577.203125,283.94,-0.339976,3.418920,-0.220266,0.008513,-1.939018,0.070238,281.63,4.00,685.90,56.69,-13.38,652.149475,1,0,0,0,0,,,,,,,,
595665,93577.203125,283.94,-0.292092,3.414131,-0.526724,0.002128,-1.924119,0.072367,281.73,4.00,686.37,56.46,-13.37,652.149475,1,0,0,0,0,,,,,,,,
595675,93558.593750,283.94,-0.148440,3.548206,-0.306457,-0.008513,-1.904963,0.070238,281.67,3.98,687.12,56.51,-13.37,653.767700,1,0,0,0,0,,,,,,,,
595685,93577.203125,283.94,-0.268150,3.442862,-0.268150,-0.010642,-1.900706,0.067046,281.69,4.00,687.28,55.99,-13.35,652.149475,1,0,0,0,0,,,,,,,,
595695,93558.593750,283.94,-0.335188,3.366247,-0.397437,-0.012770,-1.894320,0.068110,281.64,4.00,687.80,55.82,-13.33,653.767700,1,0,0,0,0,,,,,,,,
595705,93539.968750,283.94,-0.124498,3.337517,-0.440533,-0.021284,-1.890063,0.065981,281.64,4.00,688.60,55.91,-13.32,655.387512,1,0,0,0,0,,,,,,,,
595715,93539.968750,283.94,-0.311246,3.347093,-0.234631,-0.028734,-1.882614,0.061725,281.67,4.00,689.19,55.82,-13.30,655.387512,1,0,0,0,0,,,,,,,,
595725,93521.359375,283.94,-0.349553,3.394978,-0.402225,-0.042569,-1.869843,0.060660,281.64,3.98,690.04,55.97,-13.29,657.006225,1,0,0,0,0,,,,,,,,
595735,93521.359375,283.94,-0.426167,3.347093,-0.004788,-0.046825,-1.859201,0.061725,281.67,3.98,690.68,55.92,-13.28,657.006225,1,0,0,0,0,,,,,,,,
595745,93521.359375,283.94,-0.397437,3.303998,-0.110133,-0.048954,-1.849623,0.061725,281.73,3.98,691.16,55.71,-13.26,657.006225,1,0,0,0,0,,,,,,,,
595755,93502.734375,283.94,-0.440533,3.308786,-0.095768,-0.050018,-1.845366,0.060660,281.63,3.98,691.93,55.78,-13.25,658.626586,1,0,0,0,0,,,,,,,,
595765,93521.359375,283.94,-0.608127,3.303998,0.004788,-0.053211,-1.832595,0.062789,281.70,3.98,692.10,55.27,-13.23,657.006225,1,0,0,0,0,,,,,,,,
595775,93502.734375,283.94,-0.464475,3.289633,0.100556,-0.047890,-1.831531,0.067046,281.64,3.98,692.62,55.12,-13.22,658.626586,1,0,0,0,0,,,,,,,,
595785,93502.734375,283.94,-0.727837,3.189076,0.325611,-0.044697,-1.830467,0.076624,281.64,3.98,693.02,54.83,-13.20,658.626586,1,0,0,0,0,,,,,,,,
595795,93484.125000,283.94,-0.402225,3.198653,-0.062249,-0.041504,-1.830467,0.084073,281.61,3.98,693.72,54.85,-13.18,660.245849,1,0,0,0,0,,,,,,,,
595805,93484.125000,283.94,-0.402225,3.232172,0.335188,-0.038312,-1.826210,0.087266,281.69,3.98,694.24,54.69,-13.17,660.245849,1,0,0,0,0,,,,,,,,
595815,93465.500000,283.94,-0.354341,3.289633,0.143652,-0.037247,-1.813439,0.083009,281.61,4.00,695.04,54.81,-13.16,661.866699,1,0,0,0,0,,,,,,,,
595825,93465.500000,283.94,-0.196324,3.189076,0.320823,-0.027669,-1.811311,0.083009,281.61,4.01,695.63,54.73,-13.14,661.866699,1,0,0,0,0,,,,,,,,
595835,93446.890625,283.94,-0.416591,3.179499,0.220266,-0.018091,-1.813439,0.085138,281.63,4.01,696.49,54.89,-13.13,663.486450,1,0,0,0,0,,,,,,,,
595845,93446.890625,283.94,-0.205901,3.208230,0.105344,-0.020220,-1.803861,0.080881,281.66,4.02,697.13,54.85,-13.12,663.486450,1,0,0,0,0,,,,,,,,
595855,93446.890625,283.94,-0.129286,3.213018,0.512359,-0.010642,-1.798540,0.079816,281.61,4.03,697.61,54.66,-13.11,663.486450,1,0,0,0,0,,,,,,,,
595865,93446.890625,283.94,-0.430956,3.131615,0.177170,-0.004256,-1.794283,0.081945,281.69,4.02,697.97,54.35,-13.09,663.486450,1,0,0,0,0,,,,,,,,
595875,93428.265625,283.94,0.076614,3.160346,0.450109,0.001064,-1.785769,0.076624,281.66,4.02,698.64,54.34,-13.08,665.107849,1,0,0,0,0,,,,,,,,
595885,93431.734375,283.95,-0.081402,3.150769,0.143652,0.006385,-1.771934,0.068110,281.72,4.02,699.07,54.10,-13.07,664.805908,1,0,0,0,0,,,,,,,,
595895,93409.656250,283.94,-0.158017,3.155557,0.196324,0.009578,-1.759164,0.061725,281.66,4.02,699.87,54.22,-13.06,666.728149,1,0,0,0,0,,,,,,,,
595905,93409.656250,283.94,0.057460,3.112462,0.517147,0.020220,-1.752778,0.053211,281.67,4.03,700.47,54.15,-13.04,666.728149,1,0,0,0,0,,,,,,,,
595915,93409.656250,283.94,-0.287304,3.078943,0.129286,0.028734,-1.746393,0.047890,281.70,4.02,700.92,53.93,-13.03,666.728149,1,0,0,0,0,,,,,,,,
595925,93409.656250,283.94,-0.067037,3.045424,0.344765,0.035119,-1.752778,0.043633,281.67,4.02,701.26,53.61,-13.01,666.728149,1,0,0,0,0,,,,,,,,
595935,93372.421875,283.94,-0.148440,3.016694,-0.081402,0.038312,-1.753843,0.042569,281.63,4.03,702.32,53.99,-12.99,669.970886,1,0,0,0,0,,,,,,,,
595945,93391.031250,283.94,-0.277727,2.992752,0.220266,0.040440,-1.757035,0.039376,281.64,4.02,702.71,53.72,-12.97,668.350097,1,0,0,0,0,,,,,,,,
595955,93391.031250,283.94,0.000000,2.992752,-0.062249,0.041504,-1.752778,0.034055,281.72,4.02,703.00,53.36,-12.96,668.350097,1,0,0,0,0,,,,,,,,
595965,93372.421875,283.94,-0.258573,3.035847,-0.014365,0.039376,-1.746393,0.026605,281.61,4.03,703.63,53.31,-12.95,669.970886,1,0,0,0,0,,,,,,,,
595975,93372.421875,283.94,-0.244208,2.968810,0.134075,0.037247,-1.741072,0.023412,281.73,4.03,704.09,53.12,-12.93,669.970886,1,0,0,0,0,,,,,,,,
595985,93353.812500,283.94,-0.268150,2.983175,-0.248996,0.030862,-1.726173,0.021284,281.64,4.02,704.84,53.21,-12.92,671.591979,1,0,0,0,0,,,,,,,,
595995,93353.812500,283.94,-0.138863,2.973598,0.181959,0.026605,-1.718723,0.019156,281.63,4.03,705.41,53.11,-12.90,671.591979,1,0,0,0,0,,,,,,,,
596005,93335.187500,283.94,-0.263362,2.959233,-0.215478,0.023412,-1.708081,0.018091,281.69,4.02,706.24,53.27,-12.89,673.214660,1,0,0,0,0,,,,,,,,
596015,93353.812500,283.94,-0.229843,2.935291,0.090979,0.022348,-1.699567,0.019156,281.60,4.01,706.46,52.84,-12.87,671.591979,1,0,0,0,0,,,,,,,,
596025,93353.812500,283.94,-0.210689,2.896984,-0.043095,0.015963,-1.693182,0.015963,281.72,4.00,706.62,52.36,-12.86,671.591979,1,0,0,0,0,,,,,,,,
596035,93335.187500,283.94,-0.062249,2.968810,-0.114921,0.010642,-1.680411,0.011706,281.64,3.98,707.14,52.23,-12.85,673.214660,1,0,0,0,0,,,,,,,,
596045,93316.578125,283.94,-0.287304,2.964021,0.047884,0.011706,-1.682540,0.009578,281.72,4.00,707.93,52.37,-12.84,674.836242,1,0,0,0,0,,,,,,,,
596055,93297.953125,283.94,-0.320823,2.892195,0.143652,0.018091,-1.678283,0.010642,281.67,3.98,708.94,52.70,-12.83,676.459472,1,0,0,0,0,,,,,,,,
596065,93316.578125,283.94,-0.134075,2.887407,-0.258573,0.019156,-1.669769,0.007449,281.72,4.00,709.29,52.41,-12.82,674.836242,1,0,0,0,0,,,,,,,,
596075,93316.578125,283.94,-0.349553,2.911349,-0.229843,0.011706,-1.670833,0.004256,281.69,4.00,709.55,52.02,-12.80,674.836242,1,0,0,0,0,,,,,,,,
596085,93316.578125,283.94,-0.502782,2.873042,-0.181959,0.005321,-1.665512,0.000000,281.69,4.00,709.74,51.58,-12.79,674.836242,1,0,0,0,0,,,,,,,,
596095,93297.953125,283.94,-0.588973,2.844311,-0.316034,-0.005321,-1.654870,0.004256,281.70,3.98,710.29,51.48,-12.78,676.459472,1,0,0,0,0,,,,,,,,
596105,93297.953125,283.94,-0.608127,2.829946,-0.047884,-0.017027,-1.647420,0.010642,281.63,3.98,710.70,51.26,-12.76,676.459472,1,0,0,0,0,,,,,,,,
596115,93279.343750,283.94,-0.708683,2.796427,0.210689,-0.020220,-1.641035,0.018091,281.66,3.98,711.41,51.32,-12.75,678.081604,1,0,0,0,0,,,,,,,,
596125,93279.343750,283.94,-0.713472,2.791639,0.124498,-0.022348,-1.633585,0.025541,281.64,3.98,711.94,51.22,-12.73,678.081604,1,0,0,0,0,,,,,,,,
596135,93279.343750,283.94,-0.699106,2.791639,0.272938,-0.024477,-1.628264,0.038312,281.66,4.00,712.34,50.98,-12.72,678.081604,1,0,0,0,0,,,,,,,,
596145,93260.718750,283.94,-0.521935,2.796427,0.383072,-0.019156,-1.628264,0.045761,281.67,3.98,713.04,51.04,-12.71,679.705383,1,0,0,0,0,,,,,,,,
596155,93260.718750,283.94,-0.550666,2.791639,0.268150,-0.014899,-1.630392,0.055339,281.66,3.98,713.57,50.93,-12.70,679.705383,1,0,0,0,0,,,,,,,,
596165,93260.718750,283.94,-0.464475,2.719813,0.574608,-0.004256,-1.632521,0.061725,281.69,3.98,713.97,50.70,-12.68,679.705383,1,0,0,0,0,,,,,,,,
596175,93260.718750,283.94,-0.368707,2.724601,0.359130,0.003192,-1.626136,0.064917,281.67,3.98,714.26,50.37,-12.67,679.705383,1,0,0,0,0,,,,,,,,
596185,93260.718750,283.94,-0.349553,2.762908,0.268150,0.007449,-1.612301,0.062789,281.67,3.98,714.48,49.97,-12.65,679.705383,1,0,0,0,0,,,,,,,,
596195,93260.718750,283.94,-0.363918,2.743755,0.584185,0.006385,-1.609108,0.060660,281.64,3.98,714.64,49.51,-12.64,679.705383,1,0,0,0,0,,,,,,,,
596205,93242.109375,283.94,-0.478840,2.700659,0.239420,0.011706,-1.603787,0.060660,281.69,3.98,715.17,49.42,-12.63,681.328002,1,0,0,0,0,,,,,,,,
596215,93223.484375,283.94,-0.301669,2.695871,0.474051,0.017027,-1.599530,0.061725,281.63,4.01,715.96,49.58,-12.62,682.952270,1,0,0,0,0,,,,,,,,
596225,93223.484375,283.94,-0.383072,2.724601,0.646434,0.028734,-1.599530,0.060660,281.63,4.01,716.56,49.56,-12.61,682.952270,1,0,0,0,0,,,,,,,,
596235,93208.328125,283.95,-0.512359,2.662352,0.339976,0.039376,-1.593145,0.063853,281.67,4.02,717.34,49.71,-12.60,684.274230,1,0,0,0,0,,,,,,,,
596245,93226.953125,283.95,-0.215478,2.647987,0.617704,0.048954,-1.592080,0.062789,281.69,4.02,717.52,49.28,-12.58,682.649780,1,0,0,0,0,,,,,,,,
596255,93204.875000,283.94,-0.627280,2.604891,0.272938,0.055339,-1.584631,0.063853,281.64,4.02,718.13,49.27,-12.57,684.575439,1,0,0,0,0,,,,,,,,
596265,93204.875000,283.94,-0.517147,2.647987,0.373495,0.059596,-1.582502,0.070238,281.69,4.02,718.59,49.12,-12.55,684.575439,1,0,0,0,0,,,,,,,,
596275,93189.718750,283.95,-0.330399,2.604891,0.392649,0.067046,-1.580374,0.074495,281.72,4.02,719.27,49.17,-12.54,685.897644,1,0,0,0,0,,,,,,,,
596285,93186.250000,283.94,-0.574608,2.566584,0.339976,0.070238,-1.579310,0.075559,281.67,4.02,719.85,49.13,-12.53,686.200256,1,0,0,0,0,,,,,,,,
596295,93189.718750,283.95,-0.359130,2.657563,0.210689,0.073431,-1.578245,0.076624,281.66,4.02,720.21,48.88,-12.52,685.897644,1,0,0,0,0,,,,,,,,
596305,93171.093750,283.95,-0.258573,2.676717,0.148440,0.071303,-1.563346,0.072367,281.70,4.02,720.88,48.94,-12.52,687.522644,1,0,0,0,0,,,,,,,,
596315,93171.093750,283.95,-0.435744,2.609679,0.344765,0.072367,-1.553768,0.072367,281.70,4.02,721.39,48.83,-12.51,687.522644,1,0,0,0,0,,,,,,,,
596325,93167.640625,283.94,-0.450109,2.595314,0.359130,0.074495,-1.550576,0.073431,281.70,4.02,721.85,48.67,-12.49,687.823974,1,0,0,0,0,,,,,,,,
596335,93167.640625,283.94,-0.220266,2.552218,0.292092,0.079816,-1.553768,0.074495,281.69,4.02,722.19,48.41,-12.48,687.823974,1,0,0,0,0,,,,,,,,
596345,93152.484375,283.95,-0.248996,2.576160,0.229843,0.079816,-1.545255,0.073431,281.70,4.02,722.77,48.38,-12.47,689.146545,1,0,0,0,0,,,,,,,,
596355,93149.031250,283.94,-0.330399,2.561795,0.517147,0.085138,-1.538869,0.071303,281.67,4.02,723.28,48.29,-12.46,689.447937,1,0,0,0,0,,,,,,,,
596365,93149.031250,283.94,-0.225054,2.494758,0.272938,0.091523,-1.536741,0.071303,281.66,4.03,723.67,48.07,-12.45,689.447937,1,0,0,0,0,,,,,,,,
596375,93149.031250,283.94,-0.301669,2.461239,0.378283,0.097908,-1.535676,0.067046,281.67,4.02,723.95,47.76,-12.43,689.447937,1,0,0,0,0,,,,,,,,
596385,93111.796875,283.94,-0.114921,2.504334,0.158017,0.096844,-1.528227,0.061725,281.69,4.02,724.97,48.16,-12.42,692.697998,1,0,0,0,0,,,,,,,,
596395,93130.406250,283.94,-0.244208,2.466027,0.201112,0.100037,-1.531419,0.058532,281.72,4.03,725.34,47.93,-12.40,691.073486,1,0,0,0,0,,,,,,,,
596405,93130.406250,283.94,-0.392649,2.451662,0.354341,0.102165,-1.528227,0.055339,281.66,4.02,725.61,47.61,-12.39,691.073486,1,0,0,0,0,,,,,,,,
596415,93111.796875,283.94,-0.234631,2.427720,0.028730,0.104294,-1.528227,0.057468,281.69,4.01,726.22,47.61,-12.37,692.697998,1,0,0,0,0,,,,,,,,
596425,93093.171875,283.94,-0.349553,2.475604,0.225054,0.103229,-1.523970,0.056403,281.67,3.98,727.08,47.86,-12.37,694.324096,1,0,0,0,0,,,,,,,,
596435,93111.796875,283.94,-0.248996,2.470816,0.095768,0.102165,-1.515456,0.055339,281.69,4.00,727.33,47.51,-12.36,692.697998,1,0,0,0,0,,,,,,,,
596445,93093.171875,283.94,-0.210689,2.451662,0.181959,0.102165,-1.514392,0.055339,281.57,4.00,727.91,47.50,-12.35,694.324096,1,0,0,0,0,,,,,,,,
596455,93074.562500,283.94,-0.181959,2.461239,-0.148440,0.096844,-1.504814,0.051082,281.66,3.98,728.76,47.73,-12.34,695.949096,1,0,0,0,0,,,,,,,,
596465,93093.171875,283.94,-0.162805,2.427720,0.268150,0.095780,-1.500557,0.046825,281.67,3.98,728.99,47.37,-12.33,694.324096,1,0,0,0,0,,,,,,,,
596475,93096.625000,283.95,-0.296881,2.351105,0.081402,0.095780,-1.495236,0.043633,281.70,3.98,729.08,46.88,-12.31,694.022583,1,0,0,0,0,,,,,,,,
596485,93074.562500,283.94,-0.167594,2.370259,-0.057460,0.093651,-1.489915,0.041504,281.66,3.98,729.63,46.84,-12.30,695.949096,1,0,0,0,0,,,,,,,,
