,packetType,timestamp_s,timestamp_ms,imu1_accel_x,imu1_accel_y,imu1_accel_z,imu1_gyro_x,imu1_gyro_y,imu1_gyro_z,imu1_mag_x,imu1_mag_y,imu1_mag_z,imu2_accel_x,imu2_accel_y,imu2_accel_z,imu2_gyro_x,imu2_gyro_y,imu2_gyro_z,imu2_mag_x,imu2_mag_y,imu2_mag_z,high_g_accel_x,high_g_accel_y,high_g_accel_z,baro1_temp,baro1_pres,baro2_temp,baro2_pres,gps_lat,gps_long,gps_alt,battery_voltage,pyro_cont,pyro_status,heading,vtg,pos_x,pos_y,pos_z,vel_x,vel_y,vel_z,acc_x,acc_y,acc_z,q_x,q_y,q_z,q_w,state,gps_lat_mod,gps_long_mod,imu1_accel_x_real,imu1_accel_y_real,imu1_accel_z_real,imu2_accel_x_real,imu2_accel_y_real,imu2_accel_z_real,imu1_gyro_x_real,imu1_gyro_y_real,imu1_gyro_z_real,imu2_gyro_x_real,imu2_gyro_y_real,imu2_gyro_z_real,imu1_mag_x_real,imu1_mag_y_real,imu1_mag_z_real,imu2_mag_x_real,imu2_mag_y_real,imu2_mag_z_real,imu_accel_x_avg,imu_accel_y_avg,imu_accel_z_avg,imu_gyro_x_avg,imu_gyro_y_avg,imu_gyro_z_avg,imu_mag_x_avg,imu_mag_y_avg,imu_mag_z_avg,high_g_accel_x_real,high_g_accel_y_real,high_g_accel_z_real,baro_pres_avg,baro_temp_avg
73841,0,7889346,0,-1372,34,-193,525,-240,50,-1050,183,-1497,-1367,36,-185,507,-234,60,-1050,183,-1497,144,192,288,53.65,1.0057833703429555,52.26,1.0053984702689367,4449.49853515625,-7309.86474609375,40.70000076293945,11.43375015258789,1,0,0.0,0.0,0.0,0.0,0.2623196590136552,0.0,0.0,-0.0305399013077323,-1.3567304141999998,0.2512463729999999,9.8309116521,0.7547181844711304,-0.0492237582802772,0.6517130136489868,0.0569890923798084,6,44.8249755859375,-73.16441243489584,-9.848857821600001,0.24406790520000002,-1.3854442854,-9.812965482600001,0.2584248408,-1.3280165430000002,0.16035212445,-0.07330382832,0.0152716309,0.15485433732599999,-0.071471232612,0.01832595708,-0.609,0.10614,-0.86826,-0.609,0.10614,-0.86826,-9.830911652100001,0.251246373,-1.3567304142,0.157603230888,-0.072387530466,0.016798793989999998,-0.609,0.10614,-0.86826,4.23648,5.64864,8.47296,1.005590920305946,52.955
73842,0,7889452,0,-1371,36,-179,515,-235,61,-1050,183,-1497,-1371,36,-179,515,-235,61,-1050,183,-1497,144,224,240,53.64,1.0057241549469529,52.27,1.005309647174932,4449.49853515625,-7309.86474609375,40.70000076293945,11.43375015258789,1,0,0.0,0.0,0.0,0.0,0.2435219613891607,0.0,0.0,-0.0448722483200312,-1.2849457362,0.2584248408,9.8416793538,0.754640519618988,-0.0491330064833164,0.6518087387084961,0.0569998323917388,6,44.8249755859375,-73.16441243489584,-9.8416793538,0.2584248408,-1.2849457362,-9.8416793538,0.2584248408,-1.2849457362,0.15729779826999998,-0.07177666523,0.018631389698,0.15729779826999998,-0.07177666523,0.018631389698,-0.609,0.10614,-0.86826,-0.609,0.10614,-0.86826,-9.8416793538,0.2584248408,-1.2849457362,0.15729779826999998,-0.07177666523,0.018631389698,-0.609,0.10614,-0.86826,4.23648,6.59008,7.0608,1.0055169010609424,52.955
73843,0,7889557,0,-1365,31,-180,514,-240,61,-1031,221,-1478,-1365,31,-180,514,-240,61,-1031,221,-1478,160,336,160,53.66,1.0058031088082902,52.27,1.0054083395016038,4449.49853515625,-7309.86474609375,40.70000076293945,11.43375015258789,1,0,0.0,0.0,0.0,0.0,0.228384625213503,0.0,0.0,-0.0565941282544337,-1.2921242039999998,0.2225325017999999,9.798608547,0.7546194791793823,-0.0490287281572818,0.6518456339836121,0.0569468364119529,6,44.8249755859375,-73.16441243489584,-9.798608547,0.2225325018,-1.292124204,-9.798608547,0.2225325018,-1.292124204,0.156992365652,-0.07330382832,0.018631389698,0.156992365652,-0.07330382832,0.018631389698,-0.59798,0.12818,-0.85724,-0.59798,0.12818,-0.85724,-9.798608547,0.2225325018,-1.292124204,0.156992365652,-0.07330382832,0.018631389698,-0.59798,0.12818,-0.85724,4.7072,9.88512,4.7072,1.005605724154947,52.965
73844,0,7889662,0,-1370,37,-180,511,-261,65,-1031,221,-1478,-1370,37,-180,511,-261,65,-1031,221,-1478,192,288,256,53.64,1.0058228472736244,52.27,1.005309647174932,4449.49853515625,-7309.86474609375,40.70000076293945,11.43375015258789,1,0,0.0,0.0,0.0,0.0,0.2287847614338132,0.0,0.0,-0.0487919100874568,-1.2921242039999998,0.2656033086,9.834500886,0.7546272277832031,-0.0490118227899074,0.6518370509147644,0.0569572001695632,6,44.8249755859375,-73.16441243489584,-9.834500886,0.26560330860000003,-1.292124204,-9.834500886,0.26560330860000003,-1.292124204,0.15607606779799998,-0.079717913298,0.01985312017,0.15607606779799998,-0.079717913298,0.01985312017,-0.59798,0.12818,-0.85724,-0.59798,0.12818,-0.85724,-9.834500886,0.26560330860000003,-1.292124204,0.15607606779799998,-0.079717913298,0.01985312017,-0.59798,0.12818,-0.85724,5.64864,8.47296,7.53152,1.0055662472242783,52.955
73845,0,7889768,0,-1362,37,-186,537,-253,66,-1054,170,-1495,-1362,37,-186,537,-253,66,-1054,170,-1495,160,256,256,53.65,1.0056846780162845,52.26,1.0053491241056007,4449.49853515625,-7309.86474609375,40.70000076293945,11.432499885559082,1,0,0.0,0.0,0.0,0.0,0.2318613605657657,0.0,0.0,-0.0400929995465088,-1.3351950108,0.2656033086,9.7770731436,0.748836100101471,-0.0666465312242508,0.654983639717102,0.0761521756649017,6,44.8249755859375,-73.16441243489584,-9.777073143600001,0.26560330860000003,-1.3351950108000001,-9.777073143600001,0.26560330860000003,-1.3351950108000001,0.164017315866,-0.07727445235399999,0.020158552788,0.164017315866,-0.07727445235399999,0.020158552788,-0.61132,0.09860000000000001,-0.8671,-0.61132,0.09860000000000001,-0.8671,-9.777073143600001,0.26560330860000003,-1.3351950108000001,0.164017315866,-0.07727445235399999,0.020158552788,-0.61132,0.09860000000000001,-0.8671,4.7072,7.53152,7.53152,1.0055169010609426,52.955
73846,0,7889873,0,-1368,32,-185,521,-262,62,-1054,170,-1495,-1368,32,-185,521,-262,62,-1054,170,-1495,144,272,240,53.65,1.0057241549469529,52.27,1.005418208734271,4449.49853515625,-7309.86474609375,40.70000076293945,11.4350004196167,1,0,0.0,0.0,0.0,0.0,0.2008846712148331,0.0,0.0,-0.0672379145807339,-1.328016543,0.2297109695999999,9.8201439504,0.7489559054374695,-0.066734604537487,0.6548311710357666,0.0762089490890502,6,44.8249755859375,-73.16441243489584,-9.8201439504,0.2297109696,-1.3280165430000002,-9.8201439504,0.2297109696,-1.3280165430000002,0.159130393978,-0.080023345916,0.018936822316,0.159130393978,-0.080023345916,0.018936822316,-0.61132,0.09860000000000001,-0.8671,-0.61132,0.09860000000000001,-0.8671,-9.8201439504,0.2297109696,-1.3280165430000002,0.159130393978,-0.080023345916,0.018936822316,-0.61132,0.09860000000000001,-0.8671,4.23648,8.00224,7.0608,1.005571181840612,52.96
73847,0,7889979,0,-1359,32,-197,521,-237,54,-1075,201,-1491,-1359,32,-197,521,-237,54,-1075,201,-1491,160,208,192,53.65,1.0057241549469529,52.27,1.005418208734271,4449.49853515625,-7309.86474609375,40.70000076293945,11.43375015258789,1,0,0.0,0.0,0.0,0.0,0.1821815125330266,0.0,0.0,-0.0799520051815347,-1.4141581566,0.2297109695999999,9.7555377402,0.749035656452179,-0.0667071864008903,0.6547359228134155,0.0762668177485466,6,44.8249755859375,-73.16441243489584,-9.755537740200001,0.2297109696,-1.4141581566,-9.755537740200001,0.2297109696,-1.4141581566,0.159130393978,-0.072387530466,0.016493361372,0.159130393978,-0.072387530466,0.016493361372,-0.6235,0.11658,-0.86478,-0.6235,0.11658,-0.86478,-9.755537740200001,0.2297109696,-1.4141581566,0.159130393978,-0.072387530466,0.016493361372,-0.6235,0.11658,-0.86478,4.7072,6.11936,5.64864,1.005571181840612,52.96
73848,0,7890084,0,-1368,38,-190,524,-239,54,-1075,201,-1491,-1368,38,-190,524,-239,54,-1075,201,-1491,128,240,256,53.65,1.005793239575623,52.27,1.0054083395016038,4449.49853515625,-7309.86474609375,40.70000076293945,11.43375015258789,1,0,0.0,0.0,0.0,0.0,0.1906461126187688,0.0,0.0,-0.0641951086333851,-1.3639088819999998,0.2727817763999999,9.8201439504,0.7489923238754272,-0.0666350722312927,0.6547829508781433,0.0763516277074813,6,44.8249755859375,-73.16441243489584,-9.8201439504,0.2727817764,-1.363908882,-9.8201439504,0.2727817764,-1.363908882,0.160046691832,-0.072998395702,0.016493361372,0.160046691832,-0.072998395702,0.016493361372,-0.6235,0.11658,-0.86478,-0.6235,0.11658,-0.86478,-9.8201439504,0.2727817764,-1.363908882,0.160046691832,-0.072998395702,0.016493361372,-0.6235,0.11658,-0.86478,3.76576,7.0608,7.53152,1.0056007895386134,52.96
73849,0,7890190,0,-1364,33,-181,510,-223,60,-1060,198,-1498,-1364,33,-181,510,-223,60,-1060,198,-1498,176,288,208,53.65,1.0057241549469529,52.26,1.0055070318282753,4449.49853515625,-7309.86474609375,40.70000076293945,11.432499885559082,1,0,0.0,0.0,0.0,0.0,0.2097832537800191,0.0,0.0,-0.0401629675901939,-1.2993026717999998,0.2368894373999999,9.7914300792,0.7488793134689331,-0.0664878860116005,0.6549307703971863,0.0763204470276832,6,44.8249755859375,-73.16441243489584,-9.7914300792,0.2368894374,-1.2993026718,-9.7914300792,0.2368894374,-1.2993026718,0.15577063517999998,-0.068111473814,0.01832595708,0.15577063517999998,-0.068111473814,0.01832595708,-0.6148,0.11484,-0.8688400000000001,-0.6148,0.11484,-0.8688400000000001,-9.7914300792,0.2368894374,-1.2993026718,0.15577063517999998,-0.068111473814,0.01832595708,-0.6148,0.11484,-0.8688400000000001,5.17792,8.47296,6.11936,1.005615593387614,52.955
73850,0,7890295,0,-1365,37,-177,522,-237,59,-1060,198,-1498,-1365,37,-177,522,-237,59,-1060,198,-1498,176,272,224,53.65,1.0057241549469529,52.27,1.0054083395016038,4449.49853515625,-7309.86474609375,40.70000076293945,11.43375015258789,1,0,0.0,0.0,0.0,0.0,0.2525838193389188,0.0,0.0,0.009643574347634,-1.2705888006,0.2656033086,9.798608547,0.7488042712211609,-0.0664228349924087,0.6550204157829285,0.0763446018099784,6,44.8249755859375,-73.16441243489584,-9.798608547,0.26560330860000003,-1.2705888006000001,-9.798608547,0.26560330860000003,-1.2705888006000001,0.159435826596,-0.072387530466,0.018020524462,0.159435826596,-0.072387530466,0.018020524462,-0.6148,0.11484,-0.8688400000000001,-0.6148,0.11484,-0.8688400000000001,-9.798608547,0.26560330860000003,-1.2705888006000001,0.159435826596,-0.072387530466,0.018020524462,-0.6148,0.11484,-0.8688400000000001,5.17792,8.00224,6.59008,1.0055662472242783,52.96
73851,0,7890401,0,-1369,32,-181,518,-257,70,-1074,206,-1481,-1369,32,-181,518,-257,70,-1074,206,-1481,144,240,256,53.65,1.0058919319022943,52.27,1.0054675548976066,4449.49853515625,-7309.86474609375,40.70000076293945,11.43375015258789,1,0,0.0,0.0,0.0,0.0,0.1719173402083066,0.0,0.0,-0.0746575833197573,-1.2993026717999998,0.2297109695999999,9.8273224182,0.7488750219345093,-0.0664043128490448,0.6549549698829651,0.0762282013893127,6,44.8249755859375,-73.16441243489584,-9.8273224182,0.2297109696,-1.2993026718,-9.8273224182,0.2297109696,-1.2993026718,0.158214096124,-0.078496182826,0.021380283259999997,0.158214096124,-0.078496182826,0.021380283259999997,-0.62292,0.11948,-0.85898,-0.62292,0.11948,-0.85898,-9.8273224182,0.2297109696,-1.2993026718,0.158214096124,-0.078496182826,0.021380283259999997,-0.62292,0.11948,-0.85898,4.23648,7.0608,7.53152,1.0056797433999505,52.96
73852,0,7890506,0,-1369,32,-191,512,-259,69,-1074,206,-1481,-1369,32,-191,512,-259,69,-1074,206,-1481,176,288,208,53.65,1.0057833703429555,52.27,1.005477424130274,4449.49853515625,-7309.86474609375,40.70000076293945,11.43375015258789,1,0,0.0,0.0,0.0,0.0,0.1696254660601826,0.0,0.0,-0.0707722608938285,-1.3710873497999998,0.2297109695999999,9.8273224182,0.748936653137207,-0.066423624753952,0.6548897624015808,0.0761664882302284,6,44.8249755859375,-73.16441243489584,-9.8273224182,0.2297109696,-1.3710873498,-9.8273224182,0.2297109696,-1.3710873498,0.156381500416,-0.079107048062,0.021074850641999997,0.156381500416,-0.079107048062,0.021074850641999997,-0.62292,0.11948,-0.85898,-0.62292,0.11948,-0.85898,-9.8273224182,0.2297109696,-1.3710873498,0.156381500416,-0.079107048062,0.021074850641999997,-0.62292,0.11948,-0.85898,5.17792,8.47296,6.11936,1.0056303972366147,52.96
73853,0,7890611,0,-1364,29,-188,512,-271,67,-1058,196,-1481,-1364,29,-188,512,-271,67,-1058,196,-1481,128,320,224,53.65,1.005793239575623,52.27,1.005418208734271,4449.49853515625,-7309.86474609375,40.70000076293945,11.43375015258789,1,0,0.0,0.0,0.0,0.0,0.1892530496743409,0.0,0.0,-0.0444395164182616,-1.3495519464,0.2081755662,9.7914300792,0.749047040939331,-0.0664269179105758,0.6547728180885315,0.0760824829339981,6,44.8249755859375,-73.16441243489584,-9.7914300792,0.2081755662,-1.3495519464,-9.7914300792,0.2081755662,-1.3495519464,0.156381500416,-0.082772239478,0.020463985405999998,0.156381500416,-0.082772239478,0.020463985405999998,-0.61364,0.11368,-0.85898,-0.61364,0.11368,-0.85898,-9.7914300792,0.2081755662,-1.3495519464,0.156381500416,-0.082772239478,0.020463985405999998,-0.61364,0.11368,-0.85898,3.76576,9.4144,6.59008,1.005605724154947,52.96
73854,0,7890717,0,-1365,30,-194,525,-241,57,-1058,196,-1481,-1365,30,-194,525,-241,57,-1058,196,-1481,144,272,144,53.65,1.0057241549469529,52.27,1.0053195164075992,4449.49853515625,-7309.86474609375,40.70000076293945,11.432499885559082,1,0,0.0,0.0,0.0,0.0,0.2621857511803057,0.0,0.0,0.0353085917417065,-1.3926227532,0.2153540339999999,9.798608547,0.7511265873908997,-0.0606437772512435,0.6536585688591003,0.0697249993681907,6,44.8249755859375,-73.16441243489584,-9.798608547,0.215354034,-1.3926227532,-9.798608547,0.215354034,-1.3926227532,0.16035212445,-0.07360926093799999,0.017409659225999997,0.16035212445,-0.07360926093799999,0.017409659225999997,-0.61364,0.11368,-0.85898,-0.61364,0.11368,-0.85898,-9.798608547,0.215354034,-1.3926227532,0.16035212445,-0.07360926093799999,0.017409659225999997,-0.61364,0.11368,-0.85898,4.23648,8.00224,4.23648,1.0055218356772762,52.96
73855,0,7890822,0,-1367,38,-191,517,-236,54,-1041,206,-1510,-1367,38,-191,517,-236,54,-1041,206,-1510,160,288,208,53.65,1.0056254626202812,52.27,1.0053688625709352,4449.49853515625,-7309.86474609375,40.70000076293945,11.43375015258789,1,0,0.0,0.0,0.0,0.0,0.2804316230944048,0.0,0.0,0.0514588920696014,-1.3710873497999998,0.2727817763999999,9.8129654826,0.751065731048584,-0.0605484433472156,0.6537347435951233,0.0697504952549934,6,44.8249755859375,-73.16441243489584,-9.812965482600001,0.2727817764,-1.3710873498,-9.812965482600001,0.2727817764,-1.3710873498,0.157908663506,-0.072082097848,0.016493361372,0.157908663506,-0.072082097848,0.016493361372,-0.60378,0.11948,-0.8758,-0.60378,0.11948,-0.8758,-9.812965482600001,0.2727817764,-1.3710873498,0.157908663506,-0.072082097848,0.016493361372,-0.60378,0.11948,-0.8758,4.7072,8.47296,6.11936,1.0054971625956082,52.96
73856,0,7890928,0,-1366,39,-192,529,-232,54,-1041,206,-1510,-1366,39,-192,529,-232,54,-1041,206,-1510,144,304,288,53.65,1.0057241549469529,52.27,1.005477424130274,4449.49853515625,-7309.86474609375,40.70000076293945,11.43375015258789,1,0,0.0,0.0,0.0,0.0,0.2872227526099836,0.0,0.0,0.0522359132827199,-1.3782658176,0.2799602442,9.8057870148,0.7509627938270569,-0.0604713074862957,0.6538491249084473,0.0698539093136787,6,44.8249755859375,-73.16441243489584,-9.8057870148,0.2799602442,-1.3782658176,-9.8057870148,0.2799602442,-1.3782658176,0.161573854922,-0.070860367376,0.016493361372,0.161573854922,-0.070860367376,0.016493361372,-0.60378,0.11948,-0.8758,-0.60378,0.11948,-0.8758,-9.8057870148,0.2799602442,-1.3782658176,0.161573854922,-0.070860367376,0.016493361372,-0.60378,0.11948,-0.8758,4.23648,8.94368,8.47296,1.0056007895386134,52.96
73857,0,7891033,0,-1369,37,-180,501,-236,55,-1055,201,-1510,-1369,37,-180,501,-236,55,-1055,201,-1510,160,288,160,53.65,1.0056846780162845,52.28,1.005477424130274,4449.49853515625,-7309.86474609375,40.70000076293945,11.432499885559082,1,0,0.0,0.0,0.0,0.0,0.2686579089282319,0.0,0.0,0.0275936480925119,-1.2921242039999998,0.2656033086,9.8273224182,0.7508885264396667,-0.060376051813364,0.6539374589920044,0.0699065551161766,6,44.8249755859375,-73.16441243489584,-9.8273224182,0.26560330860000003,-1.292124204,-9.8273224182,0.26560330860000003,-1.292124204,0.153021741618,-0.072082097848,0.016798793989999998,0.153021741618,-0.072082097848,0.016798793989999998,-0.6119,0.11658,-0.8758,-0.6119,0.11658,-0.8758,-9.8273224182,0.26560330860000003,-1.292124204,0.153021741618,-0.072082097848,0.016798793989999998,-0.6119,0.11658,-0.8758,4.7072,8.47296,4.7072,1.0055810510732792,52.965
73858,0,7891139,0,-1368,44,-178,526,-254,67,-1054,211,-1483,-1368,44,-178,526,-254,67,-1054,211,-1483,160,288,256,53.66,1.0058031088082902,52.27,1.005418208734271,4449.49853515625,-7309.86474609375,40.70000076293945,11.43375015258789,1,0,0.0,0.0,0.0,0.0,0.2211425812115291,0.0,0.0,-0.0236337962678712,-1.2777672684,0.3158525832,9.8201439504,0.7508994936943054,-0.0603144876658916,0.6539362072944641,0.0698543414473533,6,44.8249755859375,-73.16441243489584,-9.8201439504,0.31585258320000004,-1.2777672684,-9.8201439504,0.31585258320000004,-1.2777672684,0.160657557068,-0.077579884972,0.020463985405999998,0.160657557068,-0.077579884972,0.020463985405999998,-0.61132,0.12238,-0.86014,-0.61132,0.12238,-0.86014,-9.8201439504,0.31585258320000004,-1.2777672684,0.160657557068,-0.077579884972,0.020463985405999998,-0.61132,0.12238,-0.86014,4.7072,8.47296,7.53152,1.0056106587712805,52.965
73859,0,7891244,0,-1369,30,-185,517,-250,71,-1054,211,-1483,-1369,30,-185,517,-250,71,-1054,211,-1483,176,224,240,53.66,1.005743893412287,52.28,1.0052800394769306,4449.49853515625,-7309.86474609375,40.70000076293945,11.43375015258789,1,0,0.0,0.0,0.0,0.0,0.2426977054608593,0.0,0.0,0.0019597214416033,-1.328016543,0.2153540339999999,9.8273224182,0.7510069608688354,-0.0603546649217605,0.6538156270980835,0.0697922185063362,6,44.8249755859375,-73.16441243489584,-9.8273224182,0.215354034,-1.3280165430000002,-9.8273224182,0.215354034,-1.3280165430000002,0.157908663506,-0.0763581545,0.021685715878,0.157908663506,-0.0763581545,0.021685715878,-0.61132,0.12238,-0.86014,-0.61132,0.12238,-0.86014,-9.8273224182,0.215354034,-1.3280165430000002,0.157908663506,-0.0763581545,0.021685715878,-0.61132,0.12238,-0.86014,5.17792,6.59008,7.0608,1.0055119664446088,52.97
73860,0,7891351,0,-1372,30,-189,525,-245,66,-1043,209,-1489,-1372,30,-189,525,-245,66,-1043,209,-1489,144,272,288,53.66,1.0058031088082902,52.26,1.0053984702689367,4449.49853515625,-7309.86474609375,40.70000076293945,11.432499885559082,1,0,0.0,0.0,0.0,0.0,0.2412513064320029,0.0,0.0,-0.0001984919185909,-1.3567304141999998,0.2153540339999999,9.8488578216,0.7510775327682495,-0.0603604055941104,0.6537461876869202,0.069678395986557,6,44.8249755859375,-73.16441243489584,-9.848857821600001,0.215354034,-1.3567304142,-9.848857821600001,0.215354034,-1.3567304142,0.16035212445,-0.07483099140999999,0.020158552788,0.16035212445,-0.07483099140999999,0.020158552788,-0.60494,0.12122,-0.86362,-0.60494,0.12122,-0.86362,-9.848857821600001,0.215354034,-1.3567304142,0.16035212445,-0.07483099140999999,0.020158552788,-0.60494,0.12122,-0.86362,4.23648,8.00224,8.47296,1.0056007895386134,52.959999999999994
73861,0,7891456,0,-1371,36,-189,520,-233,63,-1043,209,-1489,-1371,36,-189,520,-233,63,-1043,209,-1489,112,288,176,53.66,1.005743893412287,52.27,1.005358993338268,4449.49853515625,-7309.86474609375,40.70000076293945,11.43375015258789,1,0,0.0,0.0,0.0,0.0,0.2403599513037498,0.0,0.0,-0.0016383788043073,-1.3567304141999998,0.2584248408,9.8416793538,0.7510306239128113,-0.0603950917720794,0.6537962555885315,0.0696844831109047,6,44.8249755859375,-73.16441243489584,-9.8416793538,0.2584248408,-1.3567304142,-9.8416793538,0.2584248408,-1.3567304142,0.15882496136,-0.071165799994,0.019242254934,0.15882496136,-0.071165799994,0.019242254934,-0.60494,0.12122,-0.86362,-0.60494,0.12122,-0.86362,-9.8416793538,0.2584248408,-1.3567304142,0.15882496136,-0.071165799994,0.019242254934,-0.60494,0.12122,-0.86362,3.29504,8.47296,5.17792,1.0055514433752775,52.965
73862,0,7891561,0,-1371,32,-189,522,-243,63,-1048,185,-1504,-1371,32,-189,522,-243,63,-1048,185,-1504,144,256,224,53.66,1.005743893412287,52.27,1.005358993338268,4449.49853515625,-7309.86474609375,40.70000076293945,11.43375015258789,1,0,0.0,0.0,0.0,0.0,0.19412354849115,0.0,0.0,-0.0488336123951005,-1.3567304141999998,0.2297109695999999,9.8416793538,0.7509607076644897,-0.0603146292269229,0.6538805365562439,0.0697182342410087,6,44.8249755859375,-73.16441243489584,-9.8416793538,0.2297109696,-1.3567304142,-9.8416793538,0.2297109696,-1.3567304142,0.159435826596,-0.07422012617399999,0.019242254934,0.159435826596,-0.07422012617399999,0.019242254934,-0.60784,0.1073,-0.87232,-0.60784,0.1073,-0.87232,-9.8416793538,0.2297109696,-1.3567304142,0.159435826596,-0.07422012617399999,0.019242254934,-0.60784,0.1073,-0.87232,4.23648,7.53152,6.59008,1.0055514433752775,52.965
73863,0,7891667,0,-1365,36,-182,521,-236,58,-1048,185,-1504,-1365,36,-182,521,-236,58,-1048,185,-1504,144,320,256,53.65,1.0057241549469529,52.28,1.0053787318036025,4449.49853515625,-7309.86474609375,40.5,11.43375015258789,1,0,0.0,0.0,0.0,0.0,0.1591708484603145,0.0,0.0,-0.0788956474284373,-1.3064811395999998,0.2584248408,9.798608547,0.7508558034896851,-0.0602823123335838,0.6539866924285889,0.069879375398159,6,44.8249755859375,-73.16441243489584,-9.798608547,0.2584248408,-1.3064811396,-9.798608547,0.2584248408,-1.3064811396,0.159130393978,-0.072082097848,0.017715091844,0.159130393978,-0.072082097848,0.017715091844,-0.60784,0.1073,-0.87232,-0.60784,0.1073,-0.87232,-9.798608547,0.2584248408,-1.3064811396,0.159130393978,-0.072082097848,0.017715091844,-0.60784,0.1073,-0.87232,4.23648,9.4144,7.53152,1.0055514433752777,52.965
73864,0,7891772,0,-1369,39,-184,529,-238,59,-1044,189,-1521,-1369,39,-184,529,-238,59,-1044,189,-1521,176,288,192,53.66,1.0056945472489514,52.27,1.0053195164075992,4449.49853515625,-7309.86474609375,40.5,11.432499885559082,1,0,0.0,0.0,0.0,0.0,0.2157989803739969,0.0,0.0,-0.0116122653247825,-1.3208380752,0.2799602442,9.8273224182,0.74931800365448,-0.0688352212309837,0.6538652181625366,0.0790218487381935,6,44.8249755859375,-73.16441243489584,-9.8273224182,0.2799602442,-1.3208380752,-9.8273224182,0.2799602442,-1.3208380752,0.161573854922,-0.072692963084,0.018020524462,0.161573854922,-0.072692963084,0.018020524462,-0.6055200000000001,0.10962,-0.88218,-0.6055200000000001,0.10962,-0.88218,-9.8273224182,0.2799602442,-1.3208380752,0.161573854922,-0.072692963084,0.018020524462,-0.6055200000000001,0.10962,-0.88218,5.17792,8.47296,5.64864,1.0055070318282753,52.965
73865,0,7891878,0,-1367,44,-187,514,-250,70,-1044,189,-1521,-1367,44,-187,514,-250,70,-1044,189,-1521,128,288,272,53.65,1.0058327165062917,52.27,1.0053688625709352,4449.49853515625,-7309.86474609375,40.5,11.43375015258789,1,0,0.0,0.0,0.0,0.0,0.2391335272780698,0.0,0.0,0.0123048897300803,-1.3423734786,0.3158525832,9.8129654826,0.7493134140968323,-0.0688962712883949,0.6538577079772949,0.0790759697556495,6,44.8249755859375,-73.16441243489584,-9.812965482600001,0.31585258320000004,-1.3423734786000001,-9.812965482600001,0.31585258320000004,-1.3423734786000001,0.156992365652,-0.0763581545,0.021380283259999997,0.156992365652,-0.0763581545,0.021380283259999997,-0.6055200000000001,0.10962,-0.88218,-0.6055200000000001,0.10962,-0.88218,-9.812965482600001,0.31585258320000004,-1.3423734786000001,0.156992365652,-0.0763581545,0.021380283259999997,-0.6055200000000001,0.10962,-0.88218,3.76576,8.47296,8.00224,1.0056007895386134,52.96
73866,0,7891983,0,-1364,32,-185,510,-249,67,-1051,200,-1509,-1364,32,-185,510,-249,67,-1051,200,-1509,144,304,160,53.66,1.005743893412287,52.27,1.005418208734271,4449.49853515625,-7309.86474609375,40.5,11.432499885559082,1,0,0.0,0.0,0.0,0.0,0.201253235283868,0.0,0.0,-0.0265264056146059,-1.328016543,0.2297109695999999,9.7914300792,0.7493801116943359,-0.0689124315977096,0.6537982225418091,0.0789212733507156,6,44.8249755859375,-73.16441243489584,-9.7914300792,0.2297109696,-1.3280165430000002,-9.7914300792,0.2297109696,-1.3280165430000002,0.15577063517999998,-0.07605272188199999,0.020463985405999998,0.15577063517999998,-0.07605272188199999,0.020463985405999998,-0.60958,0.116,-0.87522,-0.60958,0.116,-0.87522,-9.7914300792,0.2297109696,-1.3280165430000002,0.15577063517999998,-0.07605272188199999,0.020463985405999998,-0.60958,0.116,-0.87522,4.23648,8.94368,4.7072,1.005581051073279,52.965
73867,0,7892089,0,-1366,34,-188,515,-241,67,-1051,200,-1509,-1366,34,-188,515,-241,67,-1051,200,-1509,176,288,272,53.65,1.0056846780162845,52.28,1.0053293856402663,4449.49853515625,-7309.86474609375,40.5,11.43375015258789,1,0,0.0,0.0,0.0,0.0,0.2407081801162523,0.0,0.0,0.0177274741972732,-1.3495519464,0.2440679052,9.8057870148,0.7494037747383118,-0.0689167231321334,0.6537737846374512,0.0788948461413383,6,44.8249755859375,-73.16441243489584,-9.8057870148,0.24406790520000002,-1.3495519464,-9.8057870148,0.24406790520000002,-1.3495519464,0.15729779826999998,-0.07360926093799999,0.020463985405999998,0.15729779826999998,-0.07360926093799999,0.020463985405999998,-0.60958,0.116,-0.87522,-0.60958,0.116,-0.87522,-9.8057870148,0.24406790520000002,-1.3495519464,0.15729779826999998,-0.07360926093799999,0.020463985405999998,-0.60958,0.116,-0.87522,5.17792,8.47296,8.00224,1.0055070318282753,52.965
73868,0,7892194,0,-1366,34,-190,511,-248,59,-1054,208,-1506,-1366,34,-190,511,-248,59,-1054,208,-1506,160,224,256,53.65,1.005793239575623,52.27,1.0054675548976066,4449.49853515625,-7309.86474609375,40.5,11.43375015258789,1,0,0.0,0.0,0.0,0.0,0.2638586388856628,0.0,0.0,0.0367695321768754,-1.3639088819999998,0.2440679052,9.8057870148,0.7493650913238525,-0.0688711628317833,0.6538314819335938,0.0788242369890213,6,44.8249755859375,-73.16441243489584,-9.8057870148,0.24406790520000002,-1.363908882,-9.8057870148,0.24406790520000002,-1.363908882,0.15607606779799998,-0.075747289264,0.018020524462,0.15607606779799998,-0.075747289264,0.018020524462,-0.61132,0.12064,-0.87348,-0.61132,0.12064,-0.87348,-9.8057870148,0.24406790520000002,-1.363908882,0.15607606779799998,-0.075747289264,0.018020524462,-0.61132,0.12064,-0.87348,4.7072,6.59008,7.53152,1.0056303972366147,52.96
73869,0,7892299,0,-1372,35,-176,523,-235,58,-1054,208,-1506,-1362,35,-176,523,-235,59,-1054,208,-1506,128,288,192,53.66,1.0058031088082902,52.27,1.005358993338268,4449.49853515625,-7309.86474609375,40.5,11.432499885559082,1,0,0.0,0.0,0.0,0.0,0.2285185024998329,0.0,0.0,-9.493316854064342e-05,-1.2634103328,0.2512463729999999,9.8129654826,0.7492462396621704,-0.0687986016273498,0.6539735794067383,0.0788376629352569,6,44.8249755859375,-73.16441243489584,-9.848857821600001,0.251246373,-1.2634103328000001,-9.777073143600001,0.251246373,-1.2634103328000001,0.15974125921399998,-0.07177666523,0.017715091844,0.15974125921399998,-0.07177666523,0.018020524462,-0.61132,0.12064,-0.87348,-0.61132,0.12064,-0.87348,-9.812965482600001,0.251246373,-1.2634103328000001,0.15974125921399998,-0.07177666523,0.017867808153,-0.61132,0.12064,-0.87348,3.76576,8.47296,5.64864,1.0055810510732792,52.965
73870,0,7892405,0,-1370,37,-179,515,-240,57,-1027,220,-1472,-1370,37,-179,515,-240,57,-1027,220,-1472,160,320,176,53.66,1.00559585492228,52.27,1.005309647174932,4449.49853515625,-7309.86474609375,40.5,11.43375015258789,1,0,0.0,0.0,0.0,0.0,0.3245799122516392,0.0,0.0,0.0982270678998816,-1.2849457362,0.2656033086,9.834500886,0.7491670846939087,-0.068747378885746,0.6540572643280029,0.0789413675665855,6,44.8249755859375,-73.16441243489584,-9.834500886,0.26560330860000003,-1.2849457362,-9.834500886,0.26560330860000003,-1.2849457362,0.15729779826999998,-0.07330382832,0.017409659225999997,0.15729779826999998,-0.07330382832,0.017409659225999997,-0.59566,0.1276,-0.85376,-0.59566,0.1276,-0.85376,-9.834500886,0.26560330860000003,-1.2849457362,0.15729779826999998,-0.07330382832,0.017409659225999997,-0.59566,0.1276,-0.85376,4.7072,9.4144,5.17792,1.005452751048606,52.965
73871,0,7892510,0,-1366,42,-184,526,-253,63,-1027,220,-1472,-1366,42,-184,526,-253,63,-1027,220,-1472,128,304,256,53.65,1.0056353318529485,52.27,1.005477424130274,4449.49853515625,-7309.86474609375,40.5,11.432499885559082,1,0,0.0,0.0,0.0,0.0,0.338576491087904,0.0,0.0,0.1028869952444585,-1.3208380752,0.3014956475999999,9.8057870148,0.7490991353988647,-0.0687650293111801,0.6541172862052917,0.0790726095438003,6,44.8249755859375,-73.16441243489584,-9.8057870148,0.3014956476,-1.3208380752,-9.8057870148,0.3014956476,-1.3208380752,0.160657557068,-0.07727445235399999,0.019242254934,0.160657557068,-0.07727445235399999,0.019242254934,-0.59566,0.1276,-0.85376,-0.59566,0.1276,-0.85376,-9.8057870148,0.3014956476,-1.3208380752,0.160657557068,-0.07727445235399999,0.019242254934,-0.59566,0.1276,-0.85376,3.76576,8.94368,7.53152,1.0055563779916112,52.96
73872,0,7892616,0,-1364,41,-187,516,-250,55,-1038,212,-1523,-1364,41,-183,528,-248,55,-1038,212,-1523,128,288,256,53.66,1.0056452010856156,52.28,1.005437947199605,4449.49853515625,-7309.86474609375,40.5,11.43375015258789,1,0,0.0,0.0,0.0,0.0,0.3945369138031286,0.0,0.0,0.1492917641634442,-1.328016543,0.2943171798,9.7914300792,0.7491554617881775,-0.0687439814209938,0.6540558338165283,0.0790652781724929,6,44.8249755859375,-73.16441243489584,-9.7914300792,0.2943171798,-1.3423734786000001,-9.7914300792,0.2943171798,-1.3136596074,0.157603230888,-0.0763581545,0.016798793989999998,0.161268422304,-0.075747289264,0.016798793989999998,-0.60204,0.12296,-0.88334,-0.60204,0.12296,-0.88334,-9.7914300792,0.2943171798,-1.328016543,0.15943582659599997,-0.07605272188199999,0.016798793989999998,-0.60204,0.12296,-0.88334,3.76576,8.47296,7.53152,1.0055415741426104,52.97
73873,0,7892721,0,-1372,36,-188,534,-261,64,-1038,212,-1523,-1372,36,-188,534,-261,64,-1038,212,-1523,128,224,256,53.65,1.005793239575623,52.27,1.0054675548976066,4449.49853515625,-7309.86474609375,40.5,11.432499885559082,1,0,0.0,0.0,0.0,0.0,0.3377907547008323,0.0,0.0,0.0735993003663189,-1.3495519464,0.2584248408,9.8488578216,0.751510500907898,-0.0600249432027339,0.6533502340316772,0.0690110102295875,6,44.8249755859375,-73.16441243489584,-9.848857821600001,0.2584248408,-1.3495519464,-9.848857821600001,0.2584248408,-1.3495519464,0.163101018012,-0.079717913298,0.019547687552,0.163101018012,-0.079717913298,0.019547687552,-0.60204,0.12296,-0.88334,-0.60204,0.12296,-0.88334,-9.848857821600001,0.2584248408,-1.3495519464,0.163101018012,-0.079717913298,0.019547687552,-0.60204,0.12296,-0.88334,3.76576,6.59008,7.53152,1.0056303972366147,52.96
73874,0,7892827,0,-1365,34,-188,507,-242,64,-1048,187,-1516,-1365,34,-188,507,-242,64,-1048,187,-1516,144,240,192,53.66,1.0056945472489514,52.27,1.005309647174932,4449.49853515625,-7309.86474609375,40.5,11.43375015258789,1,0,0.0,0.0,0.0,0.0,0.3158227053330329,0.0,0.0,0.0455034329983268,-1.3495519464,0.2440679052,9.798608547,0.7515125870704651,-0.0600184015929698,0.6533486247062683,0.0690094381570816,6,44.8249755859375,-73.16441243489584,-9.798608547,0.24406790520000002,-1.3495519464,-9.798608547,0.24406790520000002,-1.3495519464,0.15485433732599999,-0.073914693556,0.019547687552,0.15485433732599999,-0.073914693556,0.019547687552,-0.60784,0.10846,-0.87928,-0.60784,0.10846,-0.87928,-9.798608547,0.24406790520000002,-1.3495519464,0.15485433732599999,-0.073914693556,0.019547687552,-0.60784,0.10846,-0.87928,4.23648,7.0608,5.64864,1.0055020972119417,52.965
73875,0,7892932,0,-1360,33,-188,519,-232,66,-1048,187,-1516,-1360,33,-188,519,-232,66,-1048,187,-1516,160,272,256,53.65,1.0056846780162845,52.27,1.0054083395016038,4449.49853515625,-7309.86474609375,40.5,11.43375015258789,1,0,0.0,0.0,0.0,0.0,0.2865247541253407,0.0,0.0,0.009968211631077,-1.3495519464,0.2368894373999999,9.762716208,0.7514299154281616,-0.0600383467972278,0.6534479260444641,0.0689516067504882,6,44.8249755859375,-73.16441243489584,-9.762716208,0.2368894374,-1.3495519464,-9.762716208,0.2368894374,-1.3495519464,0.15851952874199998,-0.070860367376,0.020158552788,0.15851952874199998,-0.070860367376,0.020158552788,-0.60784,0.10846,-0.87928,-0.60784,0.10846,-0.87928,-9.762716208,0.2368894374,-1.3495519464,0.15851952874199998,-0.070860367376,0.020158552788,-0.60784,0.10846,-0.87928,4.7072,8.00224,7.53152,1.0055465087589441,52.96
73876,0,7893040,0,-1368,32,-182,513,-241,62,-1061,215,-1511,-1368,32,-182,513,-241,62,-1061,215,-1511,128,320,224,53.65,1.005793239575623,52.28,1.0052701702442637,4449.49853515625,-7309.86474609375,40.5,11.43375015258789,1,0,0.0,0.0,0.0,0.0,0.2153912099272978,0.0,0.0,-0.0665390340995183,-1.3064811395999998,0.2297109695999999,9.8201439504,0.7512803077697754,-0.0600106753408908,0.6536257863044739,0.0689200684428215,6,44.8249755859375,-73.16441243489584,-9.8201439504,0.2297109696,-1.3064811396,-9.8201439504,0.2297109696,-1.3064811396,0.156686933034,-0.07360926093799999,0.018936822316,0.156686933034,-0.07360926093799999,0.018936822316,-0.61538,0.1247,-0.87638,-0.61538,0.1247,-0.87638,-9.8201439504,0.2297109696,-1.3064811396,0.156686933034,-0.07360926093799999,0.018936822316,-0.61538,0.1247,-0.87638,3.76576,9.4144,6.59008,1.0055317049099433,52.965
73877,0,7893145,0,-1370,33,-177,524,-248,64,-1061,215,-1511,-1370,33,-177,524,-248,64,-1061,215,-1511,128,304,256,53.66,1.0056945472489514,52.27,1.0053195164075992,4449.49853515625,-7309.86474609375,40.5,11.432499885559082,1,0,0.0,0.0,0.0,0.0,0.2307449816393242,0.0,0.0,-0.043051247814043,-1.2705888006,0.2368894373999999,9.834500886,0.7512051463127136,-0.0599862076342105,0.6537113785743713,0.0689492151141166,6,44.8249755859375,-73.16441243489584,-9.834500886,0.2368894374,-1.2705888006000001,-9.834500886,0.2368894374,-1.2705888006000001,0.160046691832,-0.075747289264,0.019547687552,0.160046691832,-0.075747289264,0.019547687552,-0.61538,0.1247,-0.87638,-0.61538,0.1247,-0.87638,-9.834500886,0.2368894374,-1.2705888006000001,0.160046691832,-0.075747289264,0.019547687552,-0.61538,0.1247,-0.87638,3.76576,8.94368,7.53152,1.0055070318282753,52.965
73878,0,7893250,0,-1371,33,-183,521,-247,56,-1046,217,-1496,-1371,33,-183,521,-247,56,-1046,217,-1496,144,320,272,53.65,1.0056846780162845,52.28,1.0053787318036025,4449.49853515625,-7309.86474609375,40.5,11.43375015258789,1,0,0.0,0.0,0.0,0.0,0.2040044938405017,0.0,0.0,-0.0651044782987586,-1.3136596074,0.2368894373999999,9.8416793538,0.7511849999427795,-0.0600105375051498,0.653721809387207,0.0690477564930915,6,44.8249755859375,-73.16441243489584,-9.8416793538,0.2368894374,-1.3136596074,-9.8416793538,0.2368894374,-1.3136596074,0.159130393978,-0.07544185664599999,0.017104226607999998,0.159130393978,-0.07544185664599999,0.017104226607999998,-0.60668,0.12586,-0.86768,-0.60668,0.12586,-0.86768,-9.8416793538,0.2368894374,-1.3136596074,0.159130393978,-0.07544185664599999,0.017104226607999998,-0.60668,0.12586,-0.86768,4.23648,9.4144,8.00224,1.0055317049099435,52.965
73879,0,7893356,0,-1364,37,-183,540,-251,62,-1046,217,-1496,-1364,37,-183,540,-251,62,-1046,217,-1496,176,256,240,53.66,1.005743893412287,52.27,1.005418208734271,4449.49853515625,-7309.86474609375,40.5,11.43375015258789,1,0,0.0,0.0,0.0,0.0,0.1917274685193317,0.0,0.0,-0.070868377692548,-1.3136596074,0.2656033086,9.7914300792,0.7512264251708984,-0.0601046085357666,0.6536540389060974,0.0691581964492797,6,44.8249755859375,-73.16441243489584,-9.7914300792,0.26560330860000003,-1.3136596074,-9.7914300792,0.26560330860000003,-1.3136596074,0.16493361371999998,-0.07666358711799999,0.018936822316,0.16493361371999998,-0.07666358711799999,0.018936822316,-0.60668,0.12586,-0.86768,-0.60668,0.12586,-0.86768,-9.7914300792,0.26560330860000003,-1.3136596074,0.16493361371999998,-0.07666358711799999,0.018936822316,-0.60668,0.12586,-0.86768,5.17792,7.53152,7.0608,1.005581051073279,52.965
73880,0,7893461,0,-1368,33,-191,516,-246,60,-1055,216,-1526,-1368,33,-191,511,-246,60,-1055,216,-1526,176,256,240,53.65,1.0056846780162845,52.27,1.0054083395016038,4449.49853515625,-7309.86474609375,40.5,11.432499885559082,1,0,0.0,0.0,0.0,0.0,0.199689169381821,0.0,0.0,-0.0548787933116478,-1.3710873497999998,0.2368894373999999,9.8201439504,0.7512449026107788,-0.0601530820131301,0.6536189317703247,0.069246307015419,6,44.8249755859375,-73.16441243489584,-9.8201439504,0.2368894374,-1.3710873498,-9.8201439504,0.2368894374,-1.3710873498,0.157603230888,-0.075136424028,0.01832595708,0.15607606779799998,-0.075136424028,0.01832595708,-0.6119,0.12528,-0.88508,-0.6119,0.12528,-0.88508,-9.8201439504,0.2368894374,-1.3710873498,0.156839649343,-0.075136424028,0.01832595708,-0.6119,0.12528,-0.88508,5.17792,7.53152,7.0608,1.0055465087589441,52.96
73881,0,7893567,0,-1364,30,-189,520,-248,56,-1055,216,-1526,-1364,30,-189,520,-248,56,-1055,216,-1526,96,304,224,53.66,1.005852454971626,52.28,1.005428077966938,4449.49853515625,-7309.86474609375,40.5,11.432499885559082,1,0,0.0,0.0,0.0,0.0,0.1332969599557709,0.0,0.0,-0.1198853629189912,-1.3567304141999998,0.2153540339999999,9.7914300792,0.7512151598930359,-0.0601210668683052,0.6536483764648438,0.069319799542427,6,44.8249755859375,-73.16441243489584,-9.7914300792,0.215354034,-1.3567304142,-9.7914300792,0.215354034,-1.3567304142,0.15882496136,-0.075747289264,0.017104226607999998,0.15882496136,-0.075747289264,0.017104226607999998,-0.6119,0.12528,-0.88508,-0.6119,0.12528,-0.88508,-9.7914300792,0.215354034,-1.3567304142,0.15882496136,-0.075747289264,0.017104226607999998,-0.6119,0.12528,-0.88508,2.82432,8.94368,6.59008,1.0056402664692818,52.97
73882,0,7893672,0,-1364,39,-189,514,-235,62,-1063,193,-1518,-1364,39,-189,514,-235,62,-1063,193,-1518,192,336,224,53.65,1.005793239575623,52.28,1.0053293856402663,4449.49853515625,-7309.86474609375,40.5,11.432499885559082,1,0,0.0,0.0,0.0,0.0,0.1327261574320651,0.0,0.0,-0.1078858893398981,-1.3567304141999998,0.2799602442,9.7914300792,0.751126766204834,-0.0600317530333995,0.6537601947784424,0.0692994892597198,6,44.8249755859375,-73.16441243489584,-9.7914300792,0.2799602442,-1.3567304142,-9.7914300792,0.2799602442,-1.3567304142,0.156992365652,-0.07177666523,0.018936822316,0.156992365652,-0.07177666523,0.018936822316,-0.61654,0.11194,-0.88044,-0.61654,0.11194,-0.88044,-9.7914300792,0.2799602442,-1.3567304142,0.156992365652,-0.07177666523,0.018936822316,-0.61654,0.11194,-0.88044,5.64864,9.88512,6.59008,1.0055613126079446,52.965
73883,0,7893778,0,-1369,40,-180,504,-236,54,-1063,193,-1518,-1369,40,-180,504,-236,54,-1063,193,-1518,176,272,224,53.65,1.0056353318529485,52.28,1.0053293856402663,4449.49853515625,-7309.86474609375,40.5,11.43375015258789,1,0,0.0,0.0,0.0,0.0,0.1951982028895992,0.0,0.0,-0.0312681791215166,-1.2921242039999998,0.2871387119999999,9.8273224182,0.7503340244293213,-0.0676996856927871,0.6529672741889954,0.0777776315808296,6,44.8249755859375,-73.16441243489584,-9.8273224182,0.287138712,-1.292124204,-9.8273224182,0.287138712,-1.292124204,0.153938039472,-0.072082097848,0.016493361372,0.153938039472,-0.072082097848,0.016493361372,-0.61654,0.11194,-0.88044,-0.61654,0.11194,-0.88044,-9.8273224182,0.287138712,-1.292124204,0.153938039472,-0.072082097848,0.016493361372,-0.61654,0.11194,-0.88044,5.17792,8.00224,6.59008,1.0054823587466073,52.965
73884,0,7893883,0,-1370,35,-180,506,-241,66,-1048,208,-1501,-1370,35,-180,506,-241,66,-1048,208,-1501,128,224,224,53.66,1.00559585492228,52.28,1.005428077966938,4449.49853515625,-7309.86474609375,40.5,11.432499885559082,1,0,0.0,0.0,0.0,0.0,0.2168370183730676,0.0,0.0,-0.0044101715406603,-1.2921242039999998,0.2512463729999999,9.834500886,0.750293493270874,-0.0676249861717224,0.6530359387397766,0.0776571705937385,6,44.8249755859375,-73.16441243489584,-9.834500886,0.251246373,-1.292124204,-9.834500886,0.251246373,-1.292124204,0.15454890470799998,-0.07360926093799999,0.020158552788,0.15454890470799998,-0.07360926093799999,0.020158552788,-0.60784,0.12064,-0.87058,-0.60784,0.12064,-0.87058,-9.834500886,0.251246373,-1.292124204,0.15454890470799998,-0.07360926093799999,0.020158552788,-0.60784,0.12064,-0.87058,3.76576,6.59008,6.59008,1.005511966444609,52.97
73885,0,7893989,0,-1368,31,-177,509,-248,62,-1070,187,-1498,-1363,28,-180,518,-248,62,-1070,187,-1498,96,224,208,53.65,1.005793239575623,52.27,1.005477424130274,4449.49853515625,-7309.86474609375,40.5,11.4350004196167,1,0,0.0,0.0,0.0,0.0,0.2222161389544392,0.0,0.0,0.0010559606869652,-1.2813565023,0.2117648000999999,9.802197780899998,0.7503443360328674,-0.0676414966583252,0.6529847383499146,0.0775826722383499,6,44.8249755859375,-73.16441243489584,-9.8201439504,0.2225325018,-1.2705888006000001,-9.7842516114,0.20099709840000002,-1.292124204,0.155465202562,-0.075747289264,0.018936822316,0.158214096124,-0.075747289264,0.018936822316,-0.6206,0.10846,-0.8688400000000001,-0.6206,0.10846,-0.8688400000000001,-9.8021977809,0.2117648001,-1.2813565023,0.156839649343,-0.075747289264,0.018936822316,-0.6206,0.10846,-0.8688400000000001,2.82432,6.59008,6.11936,1.0056353318529485,52.96
73886,0,7894094,0,-1365,33,-188,516,-256,61,-1070,187,-1498,-1365,33,-188,516,-256,61,-1070,187,-1498,160,288,256,53.66,1.0056945472489514,52.29,1.0054971625956082,4449.49853515625,-7309.86474609375,40.5,11.43375015258789,1,0,0.0,0.0,0.0,0.0,0.1966110609775163,0.0,0.0,-0.0267383089919899,-1.3495519464,0.2368894373999999,9.798608547,0.750423014163971,-0.0676768869161605,0.6528829336166382,0.0776472985744476,6,44.8249755859375,-73.16441243489584,-9.798608547,0.2368894374,-1.3495519464,-9.798608547,0.2368894374,-1.3495519464,0.157603230888,-0.078190750208,0.018631389698,0.157603230888,-0.078190750208,0.018631389698,-0.6206,0.10846,-0.8688400000000001,-0.6206,0.10846,-0.8688400000000001,-9.798608547,0.2368894374,-1.3495519464,0.157603230888,-0.078190750208,0.018631389698,-0.6206,0.10846,-0.8688400000000001,4.7072,8.47296,7.53152,1.0055958549222797,52.974999999999994
73887,0,7894202,0,-1367,31,-185,521,-256,56,-1063,201,-1542,-1367,31,-185,521,-256,56,-1063,201,-1542,128,272,224,53.66,1.0056945472489514,52.28,1.0053787318036025,4449.49853515625,-7309.86474609375,40.5,11.432499885559082,1,0,0.0,0.0,0.0,0.0,0.1849057695138931,0.0,0.0,-0.0358372946981947,-1.328016543,0.2225325017999999,9.8129654826,0.7504473924636841,-0.0676553100347518,0.652851939201355,0.0776920542120933,6,44.8249755859375,-73.16441243489584,-9.812965482600001,0.2225325018,-1.3280165430000002,-9.812965482600001,0.2225325018,-1.3280165430000002,0.159130393978,-0.078190750208,0.017104226607999998,0.159130393978,-0.078190750208,0.017104226607999998,-0.61654,0.11658,-0.89436,-0.61654,0.11658,-0.89436,-9.812965482600001,0.2225325018,-1.3280165430000002,0.159130393978,-0.078190750208,0.017104226607999998,-0.61654,0.11658,-0.89436,3.76576,8.00224,6.59008,1.005536639526277,52.97
73888,0,7894308,0,-1367,38,-180,521,-253,55,-1063,201,-1542,-1367,38,-180,521,-253,55,-1063,201,-1542,128,320,192,53.65,1.0058425857389588,52.28,1.0053787318036025,4449.49853515625,-7309.86474609375,40.5,11.43375015258789,1,0,0.0,0.0,0.0,0.0,0.1896492729230362,0.0,0.0,-0.0301316553010526,-1.2921242039999998,0.2727817763999999,9.8129654826,0.7504091858863831,-0.0676278918981552,0.6528840065002441,0.077814295887947,6,44.8249755859375,-73.16441243489584,-9.812965482600001,0.2727817764,-1.292124204,-9.812965482600001,0.2727817764,-1.292124204,0.159130393978,-0.07727445235399999,0.016798793989999998,0.159130393978,-0.07727445235399999,0.016798793989999998,-0.61654,0.11658,-0.89436,-0.61654,0.11658,-0.89436,-9.812965482600001,0.2727817764,-1.292124204,0.159130393978,-0.07727445235399999,0.016798793989999998,-0.61654,0.11658,-0.89436,3.76576,9.4144,5.64864,1.0056106587712805,52.965
73889,0,7894413,0,-1366,33,-179,525,-247,52,-1058,188,-1524,-1366,33,-179,525,-247,52,-1058,188,-1524,96,288,256,53.65,1.0056846780162845,52.27,1.005418208734271,4449.49853515625,-7309.86474609375,40.5,11.43375015258789,1,0,0.0,0.0,0.0,0.0,0.1940370966520151,0.0,0.0,-0.0234386579091363,-1.2849457362,0.2368894373999999,9.8057870148,0.750369668006897,-0.0675138160586357,0.6529294848442078,0.0779123157262802,6,44.8249755859375,-73.16441243489584,-9.8057870148,0.2368894374,-1.2849457362,-9.8057870148,0.2368894374,-1.2849457362,0.16035212445,-0.07544185664599999,0.015882496136,0.16035212445,-0.07544185664599999,0.015882496136,-0.61364,0.10904,-0.88392,-0.61364,0.10904,-0.88392,-9.8057870148,0.2368894374,-1.2849457362,0.16035212445,-0.07544185664599999,0.015882496136,-0.61364,0.10904,-0.88392,2.82432,8.47296,7.53152,1.0055514433752777,52.96
73890,0,7894519,0,-1371,40,-184,518,-243,60,-1058,188,-1524,-1371,40,-184,518,-243,60,-1058,188,-1524,176,272,208,53.66,1.0058031088082902,52.28,1.0053293856402663,4449.49853515625,-7309.86474609375,40.5,11.43375015258789,1,0,0.0,0.0,0.0,0.0,0.2233663937865407,0.0,0.0,0.0100227073578157,-1.3208380752,0.2871387119999999,9.8416793538,0.7503121495246887,-0.0674609243869781,0.6529914736747742,0.0779933258891105,6,44.8249755859375,-73.16441243489584,-9.8416793538,0.287138712,-1.3208380752,-9.8416793538,0.287138712,-1.3208380752,0.158214096124,-0.07422012617399999,0.01832595708,0.158214096124,-0.07422012617399999,0.01832595708,-0.61364,0.10904,-0.88392,-0.61364,0.10904,-0.88392,-9.8416793538,0.287138712,-1.3208380752,0.158214096124,-0.07422012617399999,0.01832595708,-0.61364,0.10904,-0.88392,5.17792,8.00224,6.11936,1.0055662472242783,52.97
73891,0,7894624,0,-1367,35,-186,519,-249,66,-1062,188,-1541,-1367,35,-186,519,-249,66,-1062,188,-1541,208,272,160,53.66,1.0057044164816185,52.28,1.0053293856402663,4449.49853515625,-7309.86474609375,40.5,11.43375015258789,1,0,0.0,0.0,0.0,0.0,0.2567836299190319,0.0,0.0,0.0443662517859436,-1.3351950108,0.2512463729999999,9.8129654826,0.750296950340271,-0.0674804076552391,0.6530154347419739,0.0779222846031189,6,44.8249755859375,-73.16441243489584,-9.812965482600001,0.251246373,-1.3351950108000001,-9.812965482600001,0.251246373,-1.3351950108000001,0.15851952874199998,-0.07605272188199999,0.020158552788,0.15851952874199998,-0.07605272188199999,0.020158552788,-0.61596,0.10904,-0.89378,-0.61596,0.10904,-0.89378,-9.812965482600001,0.251246373,-1.3351950108000001,0.15851952874199998,-0.07605272188199999,0.020158552788,-0.61596,0.10904,-0.89378,6.11936,8.00224,4.7072,1.0055169010609424,52.97
73892,0,7894730,0,-1362,31,-180,518,-257,67,-1062,188,-1541,-1362,31,-180,518,-257,67,-1062,188,-1541,208,288,240,53.65,1.005793239575623,52.27,1.005418208734271,4449.49853515625,-7309.86474609375,40.5,11.432499885559082,1,0,0.0,0.0,0.0,0.0,0.2068868319092952,0.0,0.0,-0.0123148875779046,-1.2921242039999998,0.2225325017999999,9.7770731436,0.7511192560195923,-0.0544989816844463,0.6549394130706787,0.0624828450381755,6,44.8249755859375,-73.16441243489584,-9.777073143600001,0.2225325018,-1.292124204,-9.777073143600001,0.2225325018,-1.292124204,0.158214096124,-0.078496182826,0.020463985405999998,0.158214096124,-0.078496182826,0.020463985405999998,-0.61596,0.10904,-0.89378,-0.61596,0.10904,-0.89378,-9.777073143600001,0.2225325018,-1.292124204,0.158214096124,-0.078496182826,0.020463985405999998,-0.61596,0.10904,-0.89378,6.11936,8.47296,7.0608,1.005605724154947,52.96
73893,0,7894835,0,-1371,33,-187,516,-248,69,-1078,203,-1513,-1371,33,-187,516,-248,69,-1078,203,-1513,176,288,176,53.66,1.00559585492228,52.27,1.005477424130274,4449.49853515625,-7309.86474609375,40.5,11.432499885559082,1,0,0.0,0.0,0.0,0.0,0.2410559541215556,0.0,0.0,0.0217027894355215,-1.3423734786,0.2368894373999999,9.8416793538,0.7511197328567505,-0.0545079186558723,0.6549492478370667,0.0623663254082202,6,44.8249755859375,-73.16441243489584,-9.8416793538,0.2368894374,-1.3423734786000001,-9.8416793538,0.2368894374,-1.3423734786000001,0.157603230888,-0.075747289264,0.021074850641999997,0.157603230888,-0.075747289264,0.021074850641999997,-0.62524,0.11774,-0.87754,-0.62524,0.11774,-0.87754,-9.8416793538,0.2368894374,-1.3423734786000001,0.157603230888,-0.075747289264,0.021074850641999997,-0.62524,0.11774,-0.87754,5.17792,8.47296,5.17792,1.005536639526277,52.965
73894,0,7894942,0,-1362,28,-191,509,-256,58,-1078,203,-1513,-1362,28,-191,509,-256,58,-1078,203,-1513,144,240,208,53.65,1.0058425857389588,52.27,1.005418208734271,4449.49853515625,-7309.86474609375,40.5,11.43375015258789,1,0,0.0,0.0,0.0,0.0,0.2061130991652878,0.0,0.0,-0.0155365317359916,-1.3710873497999998,0.2009970984,9.7770731436,0.7511048316955566,-0.0544855557382106,0.6549682021141052,0.0623664408922195,6,44.8249755859375,-73.16441243489584,-9.777073143600001,0.20099709840000002,-1.3710873498,-9.777073143600001,0.20099709840000002,-1.3710873498,0.155465202562,-0.078190750208,0.017715091844,0.155465202562,-0.078190750208,0.017715091844,-0.62524,0.11774,-0.87754,-0.62524,0.11774,-0.87754,-9.777073143600001,0.20099709840000002,-1.3710873498,0.155465202562,-0.078190750208,0.017715091844,-0.62524,0.11774,-0.87754,4.23648,7.0608,6.11936,1.0056303972366147,52.96
73895,0,7895047,0,-1359,30,-182,514,-238,56,-1047,181,-1561,-1359,30,-182,514,-238,56,-1047,181,-1561,144,272,208,53.66,1.0056945472489514,52.28,1.005487293362941,4449.49853515625,-7309.86474609375,40.5,11.43375015258789,1,0,0.0,0.0,0.0,0.0,0.2205182737957701,0.0,0.0,-0.0016253553503545,-1.3064811395999998,0.2153540339999999,9.7555377402,0.7510596513748169,-0.0544441677629947,0.6550222039222717,0.0623786076903343,6,44.8249755859375,-73.16441243489584,-9.755537740200001,0.215354034,-1.3064811396,-9.755537740200001,0.215354034,-1.3064811396,0.156992365652,-0.072692963084,0.017104226607999998,0.156992365652,-0.072692963084,0.017104226607999998,-0.60726,0.10498,-0.90538,-0.60726,0.10498,-0.90538,-9.755537740200001,0.215354034,-1.3064811396,0.156992365652,-0.072692963084,0.017104226607999998,-0.60726,0.10498,-0.90538,4.23648,8.00224,6.11936,1.0055909203059463,52.97
73896,0,7895152,0,-1368,37,-181,513,-239,56,-1047,181,-1561,-1368,37,-181,513,-239,56,-1047,181,-1561,160,272,272,53.65,1.005793239575623,52.28,1.0053787318036025,4449.49853515625,-7309.86474609375,40.5,11.43375015258789,1,0,0.0,0.0,0.0,0.0,0.1273749750790044,0.0,0.0,-0.0959169317471179,-1.2993026717999998,0.2656033086,9.8201439504,0.7510051727294922,-0.0543462596833705,0.6550880074501038,0.062431015074253,6,44.8249755859375,-73.16441243489584,-9.8201439504,0.26560330860000003,-1.2993026718,-9.8201439504,0.26560330860000003,-1.2993026718,0.156686933034,-0.072998395702,0.017104226607999998,0.156686933034,-0.072998395702,0.017104226607999998,-0.60726,0.10498,-0.90538,-0.60726,0.10498,-0.90538,-9.8201439504,0.26560330860000003,-1.2993026718,0.156686933034,-0.072998395702,0.017104226607999998,-0.60726,0.10498,-0.90538,4.7072,8.00224,8.00224,1.0055859856896128,52.965
73897,0,7895258,0,-1371,38,-184,527,-250,59,-1064,202,-1530,-1371,38,-184,527,-250,59,-1064,202,-1530,160,240,224,53.66,1.00559585492228,52.28,1.005437947199605,4449.49853515625,-7309.86474609375,40.5,11.432499885559082,1,0,0.0,0.0,0.0,0.0,0.1769119068940496,0.0,0.0,-0.0322414833427008,-1.3208380752,0.2727817763999999,9.8416793538,0.7509313225746155,-0.0542603656649589,0.6551744937896729,0.062485035508871,6,44.8249755859375,-73.16441243489584,-9.8416793538,0.2727817764,-1.3208380752,-9.8416793538,0.2727817764,-1.3208380752,0.16096298968599998,-0.0763581545,0.018020524462,0.16096298968599998,-0.0763581545,0.018020524462,-0.61712,0.11716,-0.8874,-0.61712,0.11716,-0.8874,-9.8416793538,0.2727817764,-1.3208380752,0.16096298968599998,-0.0763581545,0.018020524462,-0.61712,0.11716,-0.8874,4.7072,7.0608,6.59008,1.0055169010609426,52.97
73898,0,7895363,0,-1368,37,-183,520,-256,60,-1064,202,-1530,-1368,37,-183,520,-256,60,-1064,202,-1530,128,352,256,53.65,1.005793239575623,52.28,1.0053392548729336,4449.49853515625,-7309.86474609375,40.5,11.43375015258789,1,0,0.0,0.0,0.0,0.0,0.1781673023795286,0.0,0.0,-0.0267810812900106,-1.3136596074,0.2656033086,9.8201439504,0.7509438991546631,-0.0542487241327762,0.6551578640937805,0.0625197365880012,6,44.8249755859375,-73.16441243489584,-9.8201439504,0.26560330860000003,-1.3136596074,-9.8201439504,0.26560330860000003,-1.3136596074,0.15882496136,-0.078190750208,0.01832595708,0.15882496136,-0.078190750208,0.01832595708,-0.61712,0.11716,-0.8874,-0.61712,0.11716,-0.8874,-9.8201439504,0.26560330860000003,-1.3136596074,0.15882496136,-0.078190750208,0.01832595708,-0.61712,0.11716,-0.8874,3.76576,10.35584,7.53152,1.0055662472242783,52.965
73899,0,7895469,0,-1363,37,-184,519,-250,64,-1059,215,-1541,-1363,37,-184,519,-250,64,-1059,215,-1541,144,304,160,53.66,1.0057537626449544,52.28,1.0053787318036025,4449.49853515625,-7309.86474609375,40.5,11.43375015258789,1,0,0.0,0.0,0.0,0.0,0.1452678357993786,0.0,0.0,-0.0551062982475335,-1.3208380752,0.2656033086,9.784251611399998,0.7509551644325256,-0.0542448535561561,0.6551426649093628,0.0625461488962173,6,44.8249755859375,-73.16441243489584,-9.7842516114,0.26560330860000003,-1.3208380752,-9.7842516114,0.26560330860000003,-1.3208380752,0.15851952874199998,-0.0763581545,0.019547687552,0.15851952874199998,-0.0763581545,0.019547687552,-0.61422,0.1247,-0.89378,-0.61422,0.1247,-0.89378,-9.7842516114,0.26560330860000003,-1.3208380752,0.15851952874199998,-0.0763581545,0.019547687552,-0.61422,0.1247,-0.89378,4.23648,8.94368,4.7072,1.0055662472242783,52.97
73900,0,7895574,0,-1365,31,-189,518,-246,65,-1059,215,-1541,-1365,31,-189,518,-246,65,-1059,215,-1541,192,288,192,53.65,1.005793239575623,52.28,1.0053787318036025,4449.49853515625,-7309.86474609375,40.5,11.432499885559082,1,0,0.0,0.0,0.0,0.0,0.0854854470473091,0.0,0.0,-0.1107738133962099,-1.3567304141999998,0.2225325017999999,9.798608547,0.751001238822937,-0.0542777851223945,0.6550917625427246,0.0624965317547321,6,44.8249755859375,-73.16441243489584,-9.798608547,0.2225325018,-1.3567304142,-9.798608547,0.2225325018,-1.3567304142,0.158214096124,-0.075136424028,0.01985312017,0.158214096124,-0.075136424028,0.01985312017,-0.61422,0.1247,-0.89378,-0.61422,0.1247,-0.89378,-9.798608547,0.2225325018,-1.3567304142,0.158214096124,-0.075136424028,0.01985312017,-0.61422,0.1247,-0.89378,5.64864,8.47296,5.64864,1.0055859856896128,52.965
73901,0,7895680,0,-1363,32,-190,515,-245,61,-1042,205,-1506,-1363,32,-190,515,-245,61,-1042,205,-1506,160,288,176,53.66,1.005743893412287,52.28,1.0053293856402663,4449.49853515625,-7309.86474609375,40.5,11.43375015258789,1,0,0.0,0.0,0.0,0.0,0.0946308926995186,0.0,0.0,-0.0868716413524106,-1.3639088819999998,0.2297109695999999,9.784251611399998,0.7509943842887878,-0.0542463921010494,0.6551125645637512,0.0623879060149192,6,44.8249755859375,-73.16441243489584,-9.7842516114,0.2297109696,-1.363908882,-9.7842516114,0.2297109696,-1.363908882,0.15729779826999998,-0.07483099140999999,0.018631389698,0.15729779826999998,-0.07483099140999999,0.018631389698,-0.60436,0.1189,-0.87348,-0.60436,0.1189,-0.87348,-9.7842516114,0.2297109696,-1.363908882,0.15729779826999998,-0.07483099140999999,0.018631389698,-0.60436,0.1189,-0.87348,4.7072,8.47296,5.17792,1.0055366395262766,52.97
73902,0,7895785,0,-1358,33,-187,517,-245,60,-1042,205,-1506,-1358,33,-187,517,-245,60,-1042,205,-1506,176,256,240,53.65,1.0056846780162845,52.28,1.0053392548729336,4449.49853515625,-7309.86474609375,40.5,11.43375015258789,1,0,0.0,0.0,0.0,0.0,0.1252568918571269,0.0,0.0,-0.0468743409513287,-1.3423734786,0.2368894373999999,9.748359272399998,0.749924898147583,-0.0589184798300266,0.6554319858551025,0.0674558654427528,6,44.8249755859375,-73.16441243489584,-9.7483592724,0.2368894374,-1.3423734786000001,-9.7483592724,0.2368894374,-1.3423734786000001,0.157908663506,-0.07483099140999999,0.01832595708,0.157908663506,-0.07483099140999999,0.01832595708,-0.60436,0.1189,-0.87348,-0.60436,0.1189,-0.87348,-9.7483592724,0.2368894374,-1.3423734786000001,0.157908663506,-0.07483099140999999,0.01832595708,-0.60436,0.1189,-0.87348,5.17792,7.53152,7.0608,1.005511966444609,52.965
73903,0,7895890,0,-1371,29,-184,513,-246,56,-1059,206,-1524,-1371,29,-184,513,-246,56,-1059,206,-1524,160,224,208,53.66,1.005743893412287,52.27,1.005477424130274,4449.49853515625,-7309.86474609375,40.5,11.432499885559082,1,0,0.0,0.0,0.0,0.0,0.098426552188493,0.0,0.0,-0.0699360282114988,-1.3208380752,0.2081755662,9.8416793538,0.7498511075973511,-0.0587781630456447,0.6555273532867432,0.067471832036972,6,44.8249755859375,-73.16441243489584,-9.8416793538,0.2081755662,-1.3208380752,-9.8416793538,0.2081755662,-1.3208380752,0.156686933034,-0.075136424028,0.017104226607999998,0.156686933034,-0.075136424028,0.017104226607999998,-0.61422,0.11948,-0.88392,-0.61422,0.11948,-0.88392,-9.8416793538,0.2081755662,-1.3208380752,0.156686933034,-0.075136424028,0.017104226607999998,-0.61422,0.11948,-0.88392,4.7072,6.59008,6.11936,1.0056106587712805,52.965
73904,0,7895996,0,-1369,36,-180,517,-241,57,-1059,206,-1524,-1369,36,-180,517,-241,57,-1059,206,-1524,112,192,256,53.66,1.0057044164816185,52.27,1.0053688625709352,4449.49853515625,-7309.86474609375,40.5,11.431249618530272,1,0,0.0,0.0,0.0,0.0,0.1045387949870412,0.0,0.0,-0.0546453861561484,-1.2921242039999998,0.2584248408,9.8273224182,0.7497850060462952,-0.0586679019033908,0.655610978603363,0.0674888119101524,6,44.8249755859375,-73.16441243489584,-9.8273224182,0.2584248408,-1.292124204,-9.8273224182,0.2584248408,-1.292124204,0.157908663506,-0.07360926093799999,0.017409659225999997,0.157908663506,-0.07360926093799999,0.017409659225999997,-0.61422,0.11948,-0.88392,-0.61422,0.11948,-0.88392,-9.8273224182,0.2584248408,-1.292124204,0.157908663506,-0.07360926093799999,0.017409659225999997,-0.61422,0.11948,-0.88392,3.29504,5.64864,7.53152,1.0055366395262768,52.965
73905,0,7896101,0,-1369,34,-181,525,-253,61,-1036,201,-1529,-1369,34,-181,525,-253,61,-1036,201,-1529,176,304,192,53.66,1.0056550703182827,52.28,1.0053392548729336,4449.49853515625,-7309.86474609375,40.5,11.432499885559082,1,0,0.0,0.0,0.0,0.0,0.165532960920989,0.0,0.0,0.0165650582882793,-1.2993026717999998,0.2440679052,9.8273224182,0.7498395442962646,-0.0586862564086914,0.6555343270301819,0.0676116272807121,6,44.8249755859375,-73.16441243489584,-9.8273224182,0.24406790520000002,-1.2993026718,-9.8273224182,0.24406790520000002,-1.2993026718,0.16035212445,-0.07727445235399999,0.018631389698,0.16035212445,-0.07727445235399999,0.018631389698,-0.60088,0.11658,-0.88682,-0.60088,0.11658,-0.88682,-9.8273224182,0.24406790520000002,-1.2993026718,0.16035212445,-0.07727445235399999,0.018631389698,-0.60088,0.11658,-0.88682,5.17792,8.94368,5.64864,1.0054971625956082,52.97
73906,0,7896207,0,-1370,38,-185,530,-253,62,-1036,201,-1529,-1364,35,-188,522,-245,61,-1036,201,-1529,128,272,256,53.66,1.005852454971626,52.28,1.0053886010362694,4449.49853515625,-7309.86474609375,40.5,11.43375015258789,1,0,0.0,0.0,0.0,0.0,0.1510366839719112,0.0,0.0,-0.0023961130536434,-1.3387842446999998,0.2620140746999999,9.8129654826,0.7498738169670105,-0.058687936514616,0.6554911136627197,0.0676490142941474,6,44.8249755859375,-73.16441243489584,-9.834500886,0.2727817764,-1.3280165430000002,-9.7914300792,0.251246373,-1.3495519464,0.16187928754,-0.07727445235399999,0.018936822316,0.159435826596,-0.07483099140999999,0.018631389698,-0.60088,0.11658,-0.88682,-0.60088,0.11658,-0.88682,-9.8129654826,0.26201407470000004,-1.3387842447000002,0.160657557068,-0.07605272188199999,0.018784106007,-0.60088,0.11658,-0.88682,3.76576,8.00224,7.53152,1.0056205280039476,52.97
73907,0,7896312,0,-1367,34,-192,517,-251,64,-1040,212,-1500,-1367,34,-192,517,-251,64,-1040,212,-1500,224,272,256,53.66,1.0058129780409573,52.27,1.005477424130274,4449.49853515625,-7309.86474609375,40.5,11.43375015258789,1,0,0.0,0.0,0.0,0.0,0.1778408341712225,0.0,0.0,0.0256125048662261,-1.3782658176,0.2440679052,9.8129654826,0.7498682737350464,-0.0587344132363796,0.6554929614067078,0.0676532462239265,6,44.8249755859375,-73.16441243489584,-9.812965482600001,0.24406790520000002,-1.3782658176,-9.812965482600001,0.24406790520000002,-1.3782658176,0.157908663506,-0.07666358711799999,0.019547687552,0.157908663506,-0.07666358711799999,0.019547687552,-0.6032,0.12296,-0.87,-0.6032,0.12296,-0.87,-9.812965482600001,0.24406790520000002,-1.3782658176,0.157908663506,-0.07666358711799999,0.019547687552,-0.6032,0.12296,-0.87,6.59008,8.00224,7.53152,1.0056452010856156,52.965
73908,0,7896418,0,-1368,35,-186,520,-239,63,-1040,212,-1500,-1368,35,-186,520,-239,63,-1040,212,-1500,192,320,208,53.66,1.0057044164816185,52.27,1.0053688625709352,4449.49853515625,-7309.86474609375,40.5,11.432499885559082,1,0,0.0,0.0,0.0,0.0,0.2333810563212333,0.0,0.0,0.0812828747887956,-1.3351950108,0.2512463729999999,9.8201439504,0.7498143315315247,-0.0587667673826217,0.6555543541908264,0.0676273256540298,6,44.8249755859375,-73.16441243489584,-9.8201439504,0.251246373,-1.3351950108000001,-9.8201439504,0.251246373,-1.3351950108000001,0.15882496136,-0.072998395702,0.019242254934,0.15882496136,-0.072998395702,0.019242254934,-0.6032,0.12296,-0.87,-0.6032,0.12296,-0.87,-9.8201439504,0.251246373,-1.3351950108000001,0.15882496136,-0.072998395702,0.019242254934,-0.6032,0.12296,-0.87,5.64864,9.4144,6.11936,1.0055366395262768,52.965
73909,0,7896523,0,-1364,30,-186,521,-245,54,-1044,199,-1518,-1364,30,-186,521,-245,54,-1044,199,-1518,128,288,192,53.65,1.0056846780162845,52.28,1.005428077966938,4449.49853515625,-7309.86474609375,40.5,11.43375015258789,1,0,0.0,0.0,0.0,0.0,0.2714781372852819,0.0,0.0,0.1117996636003916,-1.3351950108,0.2153540339999999,9.7914300792,0.7497548460960388,-0.0587424598634243,0.6556262373924255,0.0676115825772285,6,44.8249755859375,-73.16441243489584,-9.7914300792,0.215354034,-1.3351950108000001,-9.7914300792,0.215354034,-1.3351950108000001,0.159130393978,-0.07483099140999999,0.016493361372,0.159130393978,-0.07483099140999999,0.016493361372,-0.6055200000000001,0.11542,-0.88044,-0.6055200000000001,0.11542,-0.88044,-9.7914300792,0.215354034,-1.3351950108000001,0.159130393978,-0.07483099140999999,0.016493361372,-0.6055200000000001,0.11542,-0.88044,3.76576,8.47296,5.64864,1.0055563779916112,52.965
73910,0,7896631,0,-1366,35,-191,514,-231,65,-1044,199,-1518,-1366,35,-191,514,-231,65,-1044,199,-1518,176,368,240,53.66,1.005852454971626,52.28,1.005477424130274,4449.49853515625,-7309.86474609375,40.400001525878906,11.432499885559082,1,0,0.0,0.0,0.0,0.0,0.2519537671466975,0.0,0.0,0.0787232492268704,-1.3710873497999998,0.2512463729999999,9.8057870148,0.749653697013855,-0.0586780905723571,0.6557515263557434,0.0675732269883155,6,44.8249755859375,-73.16441243489584,-9.8057870148,0.251246373,-1.3710873498,-9.8057870148,0.251246373,-1.3710873498,0.156992365652,-0.070554934758,0.01985312017,0.156992365652,-0.070554934758,0.01985312017,-0.6055200000000001,0.11542,-0.88044,-0.6055200000000001,0.11542,-0.88044,-9.8057870148,0.251246373,-1.3710873498,0.156992365652,-0.070554934758,0.01985312017,-0.6055200000000001,0.11542,-0.88044,5.17792,10.82656,7.0608,1.0056649395509498,52.97
73911,0,7896736,0,-1371,36,-188,515,-263,61,-1051,201,-1508,-1371,36,-188,515,-263,61,-1051,201,-1508,160,320,272,53.66,1.0056452010856156,52.27,1.005477424130274,4449.49853515625,-7309.86474609375,40.400001525878906,11.43375015258789,1,0,0.0,0.0,0.0,0.0,0.2454183015511323,0.0,0.0,0.061022547216411,-1.3495519464,0.2584248408,9.8416793538,0.7496353387832642,-0.0586103610694408,0.6557825207710266,0.0675348937511444,6,44.8249755859375,-73.16441243489584,-9.8416793538,0.2584248408,-1.3495519464,-9.8416793538,0.2584248408,-1.3495519464,0.15729779826999998,-0.080328778534,0.018631389698,0.15729779826999998,-0.080328778534,0.018631389698,-0.60958,0.11658,-0.87464,-0.60958,0.11658,-0.87464,-9.8416793538,0.2584248408,-1.3495519464,0.15729779826999998,-0.080328778534,0.018631389698,-0.60958,0.11658,-0.87464,4.7072,9.4144,8.00224,1.0055613126079448,52.965
73912,0,7896841,0,-1364,33,-184,517,-258,60,-1047,214,-1523,-1364,33,-184,517,-258,60,-1047,214,-1523,176,304,256,53.66,1.0056945472489514,52.28,1.005437947199605,4449.49853515625,-7309.86474609375,40.400001525878906,11.432499885559082,1,0,0.0,0.0,0.0,0.0,0.2333677596495691,0.0,0.0,0.0432413659200248,-1.3208380752,0.2368894373999999,9.7914300792,0.7509850859642029,-0.0619285963475704,0.6535332202911377,0.0712785571813583,6,44.8249755859375,-73.16441243489584,-9.7914300792,0.2368894374,-1.3208380752,-9.7914300792,0.2368894374,-1.3208380752,0.157908663506,-0.078801615444,0.01832595708,0.157908663506,-0.078801615444,0.01832595708,-0.60726,0.12412,-0.88334,-0.60726,0.12412,-0.88334,-9.7914300792,0.2368894374,-1.3208380752,0.157908663506,-0.078801615444,0.01832595708,-0.60726,0.12412,-0.88334,5.17792,8.94368,7.53152,1.0055662472242783,52.97
73913,0,7896947,0,-1366,36,-190,523,-254,62,-1047,214,-1523,-1366,36,-190,523,-254,62,-1047,214,-1523,112,272,288,53.66,1.0057537626449544,52.28,1.005437947199605,4449.49853515625,-7309.86474609375,40.400001525878906,11.432499885559082,1,0,0.0,0.0,0.0,0.0,0.2357727134843649,0.0,0.0,0.040895586050271,-1.3639088819999998,0.2584248408,9.8057870148,0.7509728074073792,-0.0619428977370262,0.6535349488258362,0.0713797733187675,6,44.8249755859375,-73.16441243489584,-9.8057870148,0.2584248408,-1.363908882,-9.8057870148,0.2584248408,-1.363908882,0.15974125921399998,-0.077579884972,0.018936822316,0.15974125921399998,-0.077579884972,0.018936822316,-0.60726,0.12412,-0.88334,-0.60726,0.12412,-0.88334,-9.8057870148,0.2584248408,-1.363908882,0.15974125921399998,-0.077579884972,0.018936822316,-0.60726,0.12412,-0.88334,3.29504,8.00224,8.47296,1.0055958549222797,52.97
73914,0,7897052,0,-1368,35,-191,523,-240,58,-1054,207,-1506,-1368,35,-191,526,-248,58,-1054,207,-1506,160,288,208,53.66,1.005743893412287,52.28,1.005477424130274,4449.49853515625,-7309.86474609375,40.400001525878906,11.43375015258789,1,0,0.0,0.0,0.0,0.0,0.2186951155983318,0.0,0.0,0.0168800891310237,-1.3710873497999998,0.2512463729999999,9.8201439504,0.7509672045707703,-0.0619715377688407,0.6535323858261108,0.0714367553591728,6,44.8249755859375,-73.16441243489584,-9.8201439504,0.251246373,-1.3710873498,-9.8201439504,0.251246373,-1.3710873498,0.15974125921399998,-0.07330382832,0.017715091844,0.160657557068,-0.075747289264,0.017715091844,-0.61132,0.12006,-0.87348,-0.61132,0.12006,-0.87348,-9.8201439504,0.251246373,-1.3710873498,0.16019940814099998,-0.074525558792,0.017715091844,-0.61132,0.12006,-0.87348,4.7072,8.47296,6.11936,1.0056106587712805,52.97
73915,0,7897158,0,-1371,33,-189,518,-246,58,-1054,207,-1506,-1371,33,-189,518,-246,58,-1054,207,-1506,192,256,208,53.65,1.00573402417962,52.27,1.0053688625709352,4449.49853515625,-7309.86474609375,40.400001525878906,11.43375015258789,1,0,0.0,0.0,0.0,0.0,0.1691201862143422,0.0,0.0,-0.0342467233735971,-1.3567304141999998,0.2368894373999999,9.8416793538,0.7509129047393799,-0.0619305856525898,0.653590977191925,0.0715074464678764,6,44.8249755859375,-73.16441243489584,-9.8416793538,0.2368894374,-1.3567304142,-9.8416793538,0.2368894374,-1.3567304142,0.158214096124,-0.075136424028,0.017715091844,0.158214096124,-0.075136424028,0.017715091844,-0.61132,0.12006,-0.87348,-0.61132,0.12006,-0.87348,-9.8416793538,0.2368894374,-1.3567304142,0.158214096124,-0.075136424028,0.017715091844,-0.61132,0.12006,-0.87348,5.64864,7.53152,6.11936,1.0055514433752775,52.96
73916,0,7897263,0,-1364,33,-185,524,-244,65,-1032,199,-1524,-1364,33,-185,524,-244,65,-1032,199,-1524,160,336,176,53.66,1.0056945472489514,52.28,1.005437947199605,4449.49853515625,-7309.86474609375,40.400001525878906,11.43375015258789,1,0,0.0,0.0,0.0,0.0,0.1869500428057411,0.0,0.0,-0.0116058509366406,-1.328016543,0.2368894373999999,9.7914300792,0.7507896423339844,-0.0619135685265064,0.6537304520606995,0.0715421512722969,6,44.8249755859375,-73.16441243489584,-9.7914300792,0.2368894374,-1.3280165430000002,-9.7914300792,0.2368894374,-1.3280165430000002,0.160046691832,-0.074525558792,0.01985312017,0.160046691832,-0.074525558792,0.01985312017,-0.59856,0.11542,-0.88392,-0.59856,0.11542,-0.88392,-9.7914300792,0.2368894374,-1.3280165430000002,0.160046691832,-0.074525558792,0.01985312017,-0.59856,0.11542,-0.88392,4.7072,9.88512,5.17792,1.0055662472242783,52.97
73917,0,7897369,0,-1365,34,-182,524,-239,62,-1032,199,-1524,-1365,34,-182,524,-239,62,-1032,199,-1524,128,288,256,53.66,1.0058623242042932,52.28,1.005477424130274,4449.49853515625,-7309.86474609375,40.400001525878906,11.43375015258789,1,0,0.0,0.0,0.0,0.0,0.1358811375821459,0.0,0.0,-0.0643996412774779,-1.3064811395999998,0.2440679052,9.798608547,0.7506967186927795,-0.0618626102805137,0.6538388133049011,0.0715701356530189,6,44.8249755859375,-73.16441243489584,-9.798608547,0.24406790520000002,-1.3064811396,-9.798608547,0.24406790520000002,-1.3064811396,0.160046691832,-0.072998395702,0.018936822316,0.160046691832,-0.072998395702,0.018936822316,-0.59856,0.11542,-0.88392,-0.59856,0.11542,-0.88392,-9.798608547,0.24406790520000002,-1.3064811396,0.160046691832,-0.072998395702,0.018936822316,-0.59856,0.11542,-0.88392,3.76576,8.47296,7.53152,1.0056698741672836,52.97
73918,0,7897474,0,-1367,30,-181,519,-259,63,-1057,214,-1529,-1367,30,-181,519,-259,63,-1057,214,-1529,160,256,208,53.66,1.0057537626449544,52.28,1.0053886010362694,4449.49853515625,-7309.86474609375,40.400001525878906,11.432499885559082,1,0,0.0,0.0,0.0,0.0,0.1188121650278115,0.0,0.0,-0.0727131846586177,-1.2993026717999998,0.2153540339999999,9.8129654826,0.7506557703018188,-0.0618383437395095,0.6538852453231812,0.071596086025238,6,44.8249755859375,-73.16441243489584,-9.812965482600001,0.215354034,-1.2993026718,-9.812965482600001,0.215354034,-1.2993026718,0.15851952874199998,-0.079107048062,0.019242254934,0.15851952874199998,-0.079107048062,0.019242254934,-0.61306,0.12412,-0.88682,-0.61306,0.12412,-0.88682,-9.812965482600001,0.215354034,-1.2993026718,0.15851952874199998,-0.079107048062,0.019242254934,-0.61306,0.12412,-0.88682,4.7072,7.53152,6.11936,1.005571181840612,52.97
73919,0,7897582,0,-1367,37,-181,541,-252,58,-1057,214,-1529,-1367,37,-181,541,-252,58,-1057,214,-1529,160,288,208,53.66,1.0056945472489514,52.28,1.005428077966938,4449.49853515625,-7309.86474609375,40.400001525878906,11.43375015258789,1,0,0.0,0.0,0.0,0.0,0.0982578141985405,0.0,0.0,-0.0858331552885699,-1.2993026717999998,0.2656033086,9.8129654826,0.7506438493728638,-0.0618293993175029,0.6538984775543213,0.0716087073087692,6,44.8249755859375,-73.16441243489584,-9.812965482600001,0.26560330860000003,-1.2993026718,-9.812965482600001,0.26560330860000003,-1.2993026718,0.165239046338,-0.076969019736,0.017715091844,0.165239046338,-0.076969019736,0.017715091844,-0.61306,0.12412,-0.88682,-0.61306,0.12412,-0.88682,-9.812965482600001,0.26560330860000003,-1.2993026718,0.165239046338,-0.076969019736,0.017715091844,-0.61306,0.12412,-0.88682,4.7072,8.47296,6.11936,1.0055613126079446,52.97
73920,0,7897687,0,-1365,36,-181,523,-252,55,-1052,206,-1500,-1365,36,-181,523,-252,55,-1052,206,-1500,112,272,272,53.65,1.005793239575623,52.28,1.0052800394769306,4449.49853515625,-7309.86474609375,40.400001525878906,11.43375015258789,1,0,0.0,0.0,0.0,0.0,0.066097312416345,0.0,0.0,-0.1084719001247193,-1.2993026717999998,0.2584248408,9.798608547,0.7506230473518372,-0.0618146583437919,0.6539144515991211,0.071692906320095,6,44.8249755859375,-73.16441243489584,-9.798608547,0.2584248408,-1.2993026718,-9.798608547,0.2584248408,-1.2993026718,0.15974125921399998,-0.076969019736,0.016798793989999998,0.15974125921399998,-0.076969019736,0.016798793989999998,-0.61016,0.11948,-0.87,-0.61016,0.11948,-0.87,-9.798608547,0.2584248408,-1.2993026718,0.15974125921399998,-0.076969019736,0.016798793989999998,-0.61016,0.11948,-0.87,3.29504,8.00224,8.00224,1.0055366395262768,52.965
73921,0,7897792,0,-1365,33,-192,524,-252,60,-1052,206,-1500,-1365,33,-192,524,-252,60,-1052,206,-1500,96,272,176,53.66,1.0056452010856156,52.28,1.005437947199605,4449.49853515625,-7309.86474609375,40.400001525878906,11.432499885559082,1,0,0.0,0.0,0.0,0.0,0.1126461129320685,0.0,0.0,-0.049797940544132,-1.3782658176,0.2368894373999999,9.798608547,0.750546932220459,-0.0643700286746025,0.6535062789916992,0.0739285126328468,6,44.8249755859375,-73.16441243489584,-9.798608547,0.2368894374,-1.3782658176,-9.798608547,0.2368894374,-1.3782658176,0.160046691832,-0.076969019736,0.01832595708,0.160046691832,-0.076969019736,0.01832595708,-0.61016,0.11948,-0.87,-0.61016,0.11948,-0.87,-9.798608547,0.2368894374,-1.3782658176,0.160046691832,-0.076969019736,0.01832595708,-0.61016,0.11948,-0.87,2.82432,8.00224,5.17792,1.0055415741426104,52.97
73922,0,7897898,0,-1369,38,-190,528,-268,63,-1077,210,-1514,-1369,38,-190,528,-268,63,-1077,210,-1514,128,272,128,53.66,1.0056945472489514,52.28,1.0053886010362694,4449.49853515625,-7309.86474609375,40.400001525878906,11.43375015258789,1,0,0.0,0.0,0.0,0.0,0.1117433376649497,0.0,0.0,-0.0456619853523626,-1.3639088819999998,0.2727817763999999,9.8273224182,0.7505643367767334,-0.0643778070807457,0.6534780263900757,0.0739945843815803,6,44.8249755859375,-73.16441243489584,-9.8273224182,0.2727817764,-1.363908882,-9.8273224182,0.2727817764,-1.363908882,0.161268422304,-0.08185594162399999,0.019242254934,0.161268422304,-0.08185594162399999,0.019242254934,-0.62466,0.1218,-0.87812,-0.62466,0.1218,-0.87812,-9.8273224182,0.2727817764,-1.363908882,0.161268422304,-0.08185594162399999,0.019242254934,-0.62466,0.1218,-0.87812,3.76576,8.00224,3.76576,1.0055415741426104,52.97
73923,0,7898003,0,-1367,32,-188,507,-255,63,-1077,210,-1514,-1367,32,-188,507,-255,63,-1077,210,-1514,144,272,192,53.66,1.0056452010856156,52.28,1.0053886010362694,4449.49853515625,-7309.86474609375,40.400001525878906,11.432499885559082,1,0,0.0,0.0,0.0,0.0,0.1638475430132276,0.0,0.0,0.0139939010871818,-1.3495519464,0.2297109695999999,9.8129654826,0.7504979968070984,-0.0643525272607803,0.6535552144050598,0.0740078166127204,6,44.8249755859375,-73.16441243489584,-9.812965482600001,0.2297109696,-1.3495519464,-9.812965482600001,0.2297109696,-1.3495519464,0.15485433732599999,-0.07788531758999999,0.019242254934,0.15485433732599999,-0.07788531758999999,0.019242254934,-0.62466,0.1218,-0.87812,-0.62466,0.1218,-0.87812,-9.812965482600001,0.2297109696,-1.3495519464,0.15485433732599999,-0.07788531758999999,0.019242254934,-0.62466,0.1218,-0.87812,4.23648,8.00224,5.64864,1.0055169010609424,52.97
73924,0,7898109,0,-1369,33,-187,526,-239,61,-1040,216,-1505,-1369,33,-187,526,-239,61,-1040,216,-1505,128,304,192,53.66,1.0056649395509498,52.28,1.005428077966938,4449.49853515625,-7309.86474609375,40.400001525878906,11.432499885559082,1,0,0.0,0.0,0.0,0.0,0.2266690565247625,0.0,0.0,0.0761642321038229,-1.3423734786,0.2368894373999999,9.8273224182,0.750403106212616,-0.0643123164772987,0.6536685228347778,0.0740038007497787,6,44.8249755859375,-73.16441243489584,-9.8273224182,0.2368894374,-1.3423734786000001,-9.8273224182,0.2368894374,-1.3423734786000001,0.160657557068,-0.072998395702,0.018631389698,0.160657557068,-0.072998395702,0.018631389698,-0.6032,0.12528,-0.8729,-0.6032,0.12528,-0.8729,-9.8273224182,0.2368894374,-1.3423734786000001,0.160657557068,-0.072998395702,0.018631389698,-0.6032,0.12528,-0.8729,3.76576,8.94368,5.64864,1.005546508758944,52.97
73925,0,7898214,0,-1363,30,-182,521,-238,64,-1040,216,-1505,-1363,30,-182,521,-238,64,-1040,216,-1505,208,304,208,53.66,1.0056945472489514,52.27,1.0053688625709352,4449.49853515625,-7309.86474609375,40.400001525878906,11.432499885559082,1,0,0.0,0.0,0.0,0.0,0.2551262097254252,0.0,0.0,0.0986027113341423,-1.3064811395999998,0.2153540339999999,9.784251611399998,0.7503146529197693,-0.0642807185649871,0.6537840962409973,0.0739076510071754,6,44.8249755859375,-73.16441243489584,-9.7842516114,0.215354034,-1.3064811396,-9.7842516114,0.215354034,-1.3064811396,0.159130393978,-0.072692963084,0.019547687552,0.159130393978,-0.072692963084,0.019547687552,-0.6032,0.12528,-0.8729,-0.6032,0.12528,-0.8729,-9.7842516114,0.215354034,-1.3064811396,0.159130393978,-0.072692963084,0.019547687552,-0.6032,0.12528,-0.8729,6.11936,8.94368,6.11936,1.0055317049099433,52.965
73926,0,7898320,0,-1371,30,-182,523,-250,64,-1056,199,-1503,-1371,30,-182,523,-250,64,-1056,199,-1503,192,288,272,53.66,1.0057044164816185,52.28,1.0053787318036025,4449.49853515625,-7309.86474609375,40.400001525878906,11.432499885559082,1,0,0.0,0.0,0.0,0.0,0.2813520766791211,0.0,0.0,0.1126802391942226,-1.3064811395999998,0.2153540339999999,9.8416793538,0.7502702474594116,-0.0642906576395034,0.6538302302360535,0.0739416033029556,6,44.8249755859375,-73.16441243489584,-9.8416793538,0.215354034,-1.3064811396,-9.8416793538,0.215354034,-1.3064811396,0.15974125921399998,-0.0763581545,0.019547687552,0.15974125921399998,-0.0763581545,0.019547687552,-0.61248,0.11542,-0.87174,-0.61248,0.11542,-0.87174,-9.8416793538,0.215354034,-1.3064811396,0.15974125921399998,-0.0763581545,0.019547687552,-0.61248,0.11542,-0.87174,5.64864,8.47296,8.00224,1.0055415741426104,52.97
73927,0,7898425,0,-1365,26,-183,526,-255,58,-1056,199,-1503,-1372,32,-189,523,-262,53,-1056,199,-1503,144,288,160,53.66,1.005743893412287,52.28,1.0053886010362694,4449.49853515625,-7309.86474609375,40.400001525878906,11.432499885559082,1,0,0.0,0.0,0.0,0.0,0.2845396009853049,0.0,0.0,0.1036371690628686,-1.3351950108,0.2081755662,9.8237331843,0.7502259016036987,-0.0642157047986984,0.6538847088813782,0.0739754438400268,6,44.8249755859375,-73.16441243489584,-9.798608547,0.1866401628,-1.3136596074,-9.848857821600001,0.2297109696,-1.3567304142,0.160657557068,-0.07788531758999999,0.017715091844,0.15974125921399998,-0.080023345916,0.016187928754,-0.61248,0.11542,-0.87174,-0.61248,0.11542,-0.87174,-9.8237331843,0.2081755662,-1.3351950108000001,0.16019940814099998,-0.07895433175299998,0.016951510299,-0.61248,0.11542,-0.87174,4.23648,8.47296,4.7072,1.0055662472242783,52.97
73928,0,7898532,0,-1370,35,-180,526,-253,53,-1042,192,-1497,-1370,35,-180,526,-253,53,-1042,192,-1497,128,240,208,53.66,1.0056945472489514,52.28,1.0053293856402663,4449.49853515625,-7309.86474609375,40.400001525878906,11.43375015258789,1,0,0.0,0.0,0.0,0.0,0.2382445536307232,0.0,0.0,0.0460910115234559,-1.2921242039999998,0.2512463729999999,9.834500886,0.7502253651618958,-0.0642624273896217,0.6538568735122681,0.0741860345005989,6,44.8249755859375,-73.16441243489584,-9.834500886,0.251246373,-1.292124204,-9.834500886,0.251246373,-1.292124204,0.160657557068,-0.07727445235399999,0.016187928754,0.160657557068,-0.07727445235399999,0.016187928754,-0.60436,0.11136,-0.86826,-0.60436,0.11136,-0.86826,-9.834500886,0.251246373,-1.292124204,0.160657557068,-0.07727445235399999,0.016187928754,-0.60436,0.11136,-0.86826,3.76576,7.0608,6.11936,1.0055119664446088,52.97
73929,0,7898637,0,-1363,31,-183,515,-258,57,-1042,192,-1497,-1363,31,-183,515,-258,57,-1042,192,-1497,144,208,192,53.66,1.0057044164816185,52.28,1.0053886010362694,4449.49853515625,-7309.86474609375,40.400001525878906,11.43375015258789,1,0,0.0,0.0,0.0,0.0,0.2199393096846476,0.0,0.0,0.0212142667444244,-1.3136596074,0.2225325017999999,9.784251611399998,0.750247597694397,-0.0642388984560966,0.6538164615631104,0.0743368566036224,6,44.8249755859375,-73.16441243489584,-9.7842516114,0.2225325018,-1.3136596074,-9.7842516114,0.2225325018,-1.3136596074,0.15729779826999998,-0.078801615444,0.017409659225999997,0.15729779826999998,-0.078801615444,0.017409659225999997,-0.60436,0.11136,-0.86826,-0.60436,0.11136,-0.86826,-9.7842516114,0.2225325018,-1.3136596074,0.15729779826999998,-0.078801615444,0.017409659225999997,-0.60436,0.11136,-0.86826,4.23648,6.11936,5.64864,1.005546508758944,52.97
73930,0,7898742,0,-1365,33,-191,531,-261,67,-1049,199,-1500,-1365,33,-191,531,-261,67,-1049,199,-1500,144,304,224,53.66,1.0058228472736244,52.27,1.0053688625709352,4449.49853515625,-7309.86474609375,40.400001525878906,11.432499885559082,1,0,0.0,0.0,0.0,0.0,0.2754265267136416,0.0,0.0,0.07399546823766,-1.3710873497999998,0.2368894373999999,9.798608547,0.750230073928833,-0.0642735213041305,0.6538220643997192,0.0744339525699615,6,44.8249755859375,-73.16441243489584,-9.798608547,0.2368894374,-1.3710873498,-9.798608547,0.2368894374,-1.3710873498,0.16218472015799998,-0.079717913298,0.020463985405999998,0.16218472015799998,-0.079717913298,0.020463985405999998,-0.60842,0.11542,-0.87,-0.60842,0.11542,-0.87,-9.798608547,0.2368894374,-1.3710873498,0.16218472015799998,-0.079717913298,0.020463985405999998,-0.60842,0.11542,-0.87,4.23648,8.94368,6.59008,1.0055958549222797,52.965
73931,0,7898848,0,-1362,35,-183,515,-243,61,-1049,199,-1500,-1362,35,-183,515,-243,61,-1049,199,-1500,160,272,224,53.66,1.0057044164816185,52.28,1.0052208240809275,4449.49853515625,-7309.86474609375,40.400001525878906,11.43375015258789,1,0,0.0,0.0,0.0,0.0,0.287722248642533,0.0,0.0,0.0814691980965604,-1.3136596074,0.2512463729999999,9.7770731436,0.7500559091567993,-0.062053095549345,0.6546086072921753,0.0710864290595054,6,44.8249755859375,-73.16441243489584,-9.777073143600001,0.251246373,-1.3136596074,-9.777073143600001,0.251246373,-1.3136596074,0.15729779826999998,-0.07422012617399999,0.018631389698,0.15729779826999998,-0.07422012617399999,0.018631389698,-0.60842,0.11542,-0.87,-0.60842,0.11542,-0.87,-9.777073143600001,0.251246373,-1.3136596074,0.15729779826999998,-0.07422012617399999,0.018631389698,-0.60842,0.11542,-0.87,4.7072,8.00224,6.59008,1.005462620281273,52.97
73932,0,7898953,0,-1366,36,-187,527,-244,61,-1046,186,-1536,-1364,31,-187,527,-244,63,-1046,186,-1536,144,288,272,53.66,1.005605724154947,52.28,1.0053392548729336,4449.49853515625,-7309.86474609375,40.400001525878906,11.43375015258789,1,0,0.0,0.0,0.0,0.0,0.310588665949197,0.0,0.0,0.0984786280669016,-1.3423734786,0.2404786713,9.798608547,0.7499836087226868,-0.0620352588593959,0.6546987891197205,0.0710333064198494,6,44.8249755859375,-73.16441243489584,-9.8057870148,0.2584248408,-1.3423734786000001,-9.7914300792,0.2225325018,-1.3423734786000001,0.16096298968599998,-0.074525558792,0.018631389698,0.16096298968599998,-0.074525558792,0.019242254934,-0.60668,0.10788,-0.89088,-0.60668,0.10788,-0.89088,-9.798608547,0.2404786713,-1.3423734786000001,0.16096298968599998,-0.074525558792,0.018936822316,-0.60668,0.10788,-0.89088,4.23648,8.47296,8.00224,1.0054724895139402,52.97
73933,0,7899059,0,-1366,33,-179,513,-247,64,-1046,186,-1536,-1366,33,-179,513,-247,64,-1046,186,-1536,160,272,304,53.66,1.0057636318776215,52.28,1.0053886010362694,4449.49853515625,-7309.86474609375,40.400001525878906,11.432499885559082,1,0,0.0,0.0,0.0,0.0,0.2681069643068521,0.0,0.0,0.0449431963524423,-1.2849457362,0.2368894373999999,9.8057870148,0.7499168515205383,-0.0619917809963226,0.6547850370407104,0.0709813684225082,6,44.8249755859375,-73.16441243489584,-9.8057870148,0.2368894374,-1.2849457362,-9.8057870148,0.2368894374,-1.2849457362,0.156686933034,-0.07544185664599999,0.019547687552,0.156686933034,-0.07544185664599999,0.019547687552,-0.60668,0.10788,-0.89088,-0.60668,0.10788,-0.89088,-9.8057870148,0.2368894374,-1.2849457362,0.156686933034,-0.07544185664599999,0.019547687552,-0.60668,0.10788,-0.89088,4.7072,8.00224,8.94368,1.0055761164569454,52.97
73934,0,7899164,0,-1370,30,-185,529,-251,62,-1046,204,-1505,-1370,30,-185,529,-251,62,-1046,204,-1505,160,288,240,53.66,1.00559585492228,52.28,1.0053392548729336,4449.49853515625,-7309.86474609375,40.400001525878906,11.431249618530272,1,0,0.0,0.0,0.0,0.0,0.2839474317231561,0.0,0.0,0.0593454870972936,-1.328016543,0.2153540339999999,9.834500886,0.7499226331710815,-0.0620153583586216,0.6547701358795166,0.0710373893380165,6,44.8249755859375,-73.16441243489584,-9.834500886,0.215354034,-1.3280165430000002,-9.834500886,0.215354034,-1.3280165430000002,0.161573854922,-0.07666358711799999,0.018936822316,0.161573854922,-0.07666358711799999,0.018936822316,-0.60668,0.11832,-0.8729,-0.60668,0.11832,-0.8729,-9.834500886,0.215354034,-1.3280165430000002,0.161573854922,-0.07666358711799999,0.018936822316,-0.60668,0.11832,-0.8729,4.7072,8.47296,7.0608,1.0054675548976069,52.97
73935,0,7899270,0,-1367,38,-187,517,-248,55,-1046,204,-1505,-1367,38,-187,517,-246,55,-1046,204,-1505,160,272,240,53.66,1.005743893412287,52.27,1.0053195164075992,4449.49853515625,-7309.86474609375,40.29999923706055,11.432499885559082,1,0,0.0,0.0,0.0,0.0,0.2581915316028983,0.0,0.0,0.0267928696835986,-1.3423734786,0.2727817763999999,9.8129654826,0.7499419450759888,-0.062022216618061,0.6547409296035767,0.0710958763957023,6,44.8249755859375,-73.16441243489584,-9.812965482600001,0.2727817764,-1.3423734786000001,-9.812965482600001,0.2727817764,-1.3423734786000001,0.157908663506,-0.075747289264,0.016798793989999998,0.157908663506,-0.075136424028,0.016798793989999998,-0.60668,0.11832,-0.8729,-0.60668,0.11832,-0.8729,-9.812965482600001,0.2727817764,-1.3423734786000001,0.157908663506,-0.075441856646,0.016798793989999998,-0.60668,0.11832,-0.8729,4.7072,8.00224,7.0608,1.0055317049099433,52.965
73936,0,7899375,0,-1368,31,-193,526,-251,59,-1051,208,-1522,-1368,31,-193,526,-251,59,-1051,208,-1522,128,272,240,53.66,1.0057537626449544,52.28,1.0053293856402663,4449.49853515625,-7309.86474609375,40.29999923706055,11.43375015258789,1,0,0.0,0.0,0.0,0.0,0.2828023616858416,0.0,0.0,0.0516355174577163,-1.3854442854,0.2225325017999999,9.8201439504,0.7499639987945557,-0.062052559107542,0.6547096967697144,0.0711248219013214,6,44.8249755859375,-73.16441243489584,-9.8201439504,0.2225325018,-1.3854442854,-9.8201439504,0.2225325018,-1.3854442854,0.160657557068,-0.07666358711799999,0.018020524462,0.160657557068,-0.07666358711799999,0.018020524462,-0.60958,0.12064,-0.88276,-0.60958,0.12064,-0.88276,-9.8201439504,0.2225325018,-1.3854442854,0.160657557068,-0.07666358711799999,0.018020524462,-0.60958,0.12064,-0.88276,3.76576,8.00224,7.0608,1.0055415741426104,52.97
73937,0,7899480,0,-1369,34,-188,511,-242,60,-1051,208,-1522,-1369,34,-188,511,-242,60,-1051,208,-1522,160,320,192,53.66,1.0057537626449544,52.28,1.0053886010362694,4449.49853515625,-7309.86474609375,40.29999923706055,11.43375015258789,1,0,0.0,0.0,0.0,0.0,0.3314176544005585,0.0,0.0,0.0956056464788004,-1.3495519464,0.2440679052,9.8273224182,0.7499421834945679,-0.0620386973023414,0.6547240018844604,0.0712346881628036,6,44.8249755859375,-73.16441243489584,-9.8273224182,0.24406790520000002,-1.3495519464,-9.8273224182,0.24406790520000002,-1.3495519464,0.15607606779799998,-0.073914693556,0.01832595708,0.15607606779799998,-0.073914693556,0.01832595708,-0.60958,0.12064,-0.88276,-0.60958,0.12064,-0.88276,-9.8273224182,0.24406790520000002,-1.3495519464,0.15607606779799998,-0.073914693556,0.01832595708,-0.60958,0.12064,-0.88276,4.7072,9.4144,5.64864,1.005571181840612,52.97
73938,0,7899586,0,-1365,33,-184,528,-245,57,-1046,195,-1506,-1365,33,-184,528,-245,57,-1046,195,-1506,112,304,176,53.66,1.0056649395509498,52.29,1.0053984702689367,4449.49853515625,-7309.86474609375,40.29999923706055,11.432499885559082,1,0,0.0,0.0,0.0,0.0,0.3021354061677084,0.0,0.0,0.0560344260731397,-1.3208380752,0.2368894373999999,9.798608547,0.7498605251312256,-0.0620044507086277,0.6548096537590027,0.0713381245732307,6,44.8249755859375,-73.16441243489584,-9.798608547,0.2368894374,-1.3208380752,-9.798608547,0.2368894374,-1.3208380752,0.161268422304,-0.07483099140999999,0.017409659225999997,0.161268422304,-0.07483099140999999,0.017409659225999997,-0.60668,0.1131,-0.87348,-0.60668,0.1131,-0.87348,-9.798608547,0.2368894374,-1.3208380752,0.161268422304,-0.07483099140999999,0.017409659225999997,-0.60668,0.1131,-0.87348,3.29504,8.94368,5.17792,1.0055317049099433,52.974999999999994
73939,0,7899691,0,-1364,36,-180,515,-235,65,-1040,218,-1523,-1364,36,-180,515,-235,65,-1040,218,-1523,144,256,208,53.66,1.0057537626449544,52.28,1.005487293362941,4449.49853515625,-7309.86474609375,40.29999923706055,11.432499885559082,1,0,0.0,0.0,0.0,0.0,0.2630008960930612,0.0,0.0,0.009571694097362,-1.2921242039999998,0.2584248408,9.7914300792,0.7497156858444214,-0.0619732700288295,0.6549746990203857,0.0713722482323646,6,44.8249755859375,-73.16441243489584,-9.7914300792,0.2584248408,-1.292124204,-9.7914300792,0.2584248408,-1.292124204,0.15729779826999998,-0.07177666523,0.01985312017,0.15729779826999998,-0.07177666523,0.01985312017,-0.6032,0.12644,-0.88334,-0.6032,0.12644,-0.88334,-9.7914300792,0.2584248408,-1.292124204,0.15729779826999998,-0.07177666523,0.01985312017,-0.6032,0.12644,-0.88334,4.23648,7.53152,6.11936,1.0056205280039476,52.97
73940,0,7899797,0,-1374,33,-184,522,-251,71,-1040,218,-1523,-1374,33,-184,522,-251,71,-1040,218,-1523,176,256,224,53.66,1.005743893412287,52.28,1.0053392548729336,4449.49853515625,-7309.86474609375,40.29999923706055,11.432499885559082,1,0,0.0,0.0,0.0,0.0,0.2818883250984088,0.0,0.0,0.0280078899937372,-1.3208380752,0.2368894373999999,9.8632147572,0.7500218152999878,-0.0589371174573898,0.6553229689598083,0.0674207806587219,6,44.8249755859375,-73.16441243489584,-9.8632147572,0.2368894374,-1.3208380752,-9.8632147572,0.2368894374,-1.3208380752,0.159435826596,-0.07666358711799999,0.021685715878,0.159435826596,-0.07666358711799999,0.021685715878,-0.6032,0.12644,-0.88334,-0.6032,0.12644,-0.88334,-9.8632147572,0.2368894374,-1.3208380752,0.159435826596,-0.07666358711799999,0.021685715878,-0.6032,0.12644,-0.88334,5.17792,7.53152,6.59008,1.0055415741426104,52.97
73941,0,7899902,0,-1364,38,-182,515,-249,70,-1048,207,-1518,-1364,38,-182,515,-249,70,-1048,207,-1518,160,256,272,53.66,1.0057044164816185,52.28,1.0053392548729336,4449.49853515625,-7309.86474609375,40.29999923706055,11.432499885559082,1,0,0.0,0.0,0.0,0.0,0.3784981816748178,0.0,0.0,0.1263457453029646,-1.3064811395999998,0.2727817763999999,9.7914300792,0.7500009536743164,-0.0589504018425941,0.6553546190261841,0.0673331245779991,6,44.8249755859375,-73.16441243489584,-9.7914300792,0.2727817764,-1.3064811396,-9.7914300792,0.2727817764,-1.3064811396,0.15729779826999998,-0.07605272188199999,0.021380283259999997,0.15729779826999998,-0.07605272188199999,0.021380283259999997,-0.60784,0.12006,-0.88044,-0.60784,0.12006,-0.88044,-9.7914300792,0.2727817764,-1.3064811396,0.15729779826999998,-0.07605272188199999,0.021380283259999997,-0.60784,0.12006,-0.88044,4.7072,7.53152,8.00224,1.0055218356772762,52.97
73942,0,7900008,0,-1357,32,-185,514,-258,68,-1048,207,-1518,-1357,32,-185,514,-258,68,-1048,207,-1518,128,288,240,53.66,1.0058721934369603,52.28,1.0053787318036025,4449.49853515625,-7309.86474609375,40.29999923706055,11.432499885559082,1,0,0.0,0.0,0.0,0.0,0.3682759780188369,0.0,0.0,0.1008943436906766,-1.328016543,0.2297109695999999,9.7411808046,0.7499980926513672,-0.0589873977005481,0.6553672552108765,0.0672095715999603,6,44.8249755859375,-73.16441243489584,-9.7411808046,0.2297109696,-1.3280165430000002,-9.7411808046,0.2297109696,-1.3280165430000002,0.156992365652,-0.078801615444,0.020769418023999998,0.156992365652,-0.078801615444,0.020769418023999998,-0.60784,0.12006,-0.88044,-0.60784,0.12006,-0.88044,-9.7411808046,0.2297109696,-1.3280165430000002,0.156992365652,-0.078801615444,0.020769418023999998,-0.60784,0.12006,-0.88044,3.76576,8.47296,7.0608,1.0056254626202814,52.97
73943,0,7900113,0,-1366,29,-191,519,-252,56,-1038,203,-1529,-1366,29,-191,519,-252,56,-1038,203,-1529,144,240,160,53.66,1.0057142857142858,52.28,1.0053392548729336,4449.49853515625,-7309.86474609375,40.29999923706055,11.43375015258789,1,0,0.0,0.0,0.0,0.0,0.3687557056209263,0.0,0.0,0.0905211236867585,-1.3710873497999998,0.2081755662,9.8057870148,0.7499721646308899,-0.0589641444385051,0.6554015278816223,0.0671856552362442,6,44.8249755859375,-73.16441243489584,-9.8057870148,0.2081755662,-1.3710873498,-9.8057870148,0.2081755662,-1.3710873498,0.15851952874199998,-0.076969019736,0.017104226607999998,0.15851952874199998,-0.076969019736,0.017104226607999998,-0.60204,0.11774,-0.88682,-0.60204,0.11774,-0.88682,-9.8057870148,0.2081755662,-1.3710873498,0.15851952874199998,-0.076969019736,0.017104226607999998,-0.60204,0.11774,-0.88682,4.23648,7.0608,4.7072,1.0055267702936097,52.97
73944,0,7900219,0,-1364,31,-185,521,-259,54,-1038,203,-1529,-1364,31,-185,521,-259,54,-1038,203,-1529,96,224,256,53.66,1.0057044164816185,52.28,1.0053886010362694,4449.49853515625,-7309.86474609375,40.29999923706055,11.43375015258789,1,0,0.0,0.0,0.0,0.0,0.4449382690707683,0.0,0.0,0.1578575047993025,-1.328016543,0.2225325017999999,9.7914300792,0.7499468922615051,-0.0589335709810256,0.6554229855537415,0.0672848224639892,6,44.8249755859375,-73.16441243489584,-9.7914300792,0.2225325018,-1.3280165430000002,-9.7914300792,0.2225325018,-1.3280165430000002,0.159130393978,-0.079107048062,0.016493361372,0.159130393978,-0.079107048062,0.016493361372,-0.60204,0.11774,-0.88682,-0.60204,0.11774,-0.88682,-9.7914300792,0.2225325018,-1.3280165430000002,0.159130393978,-0.079107048062,0.016493361372,-0.60204,0.11774,-0.88682,2.82432,6.59008,7.53152,1.005546508758944,52.97
73945,0,7900324,0,-1370,36,-188,525,-256,55,-1032,199,-1543,-1370,36,-188,525,-256,55,-1032,199,-1543,160,336,208,53.66,1.0056550703182827,52.28,1.0053392548729336,4449.49853515625,-7309.86474609375,40.29999923706055,11.43375015258789,1,0,0.0,0.0,0.0,0.0,0.5129825220763504,0.0,0.0,0.2133526074448017,-1.3495519464,0.2584248408,9.834500886,0.7499099969863892,-0.0588613003492355,0.6554594039916992,0.0674052610993385,6,44.8249755859375,-73.16441243489584,-9.834500886,0.2584248408,-1.3495519464,-9.834500886,0.2584248408,-1.3495519464,0.16035212445,-0.078190750208,0.016798793989999998,0.16035212445,-0.078190750208,0.016798793989999998,-0.59856,0.11542,-0.89494,-0.59856,0.11542,-0.89494,-9.834500886,0.2584248408,-1.3495519464,0.16035212445,-0.078190750208,0.016798793989999998,-0.59856,0.11542,-0.89494,4.7072,9.88512,6.11936,1.0054971625956082,52.97
73946,0,7900429,0,-1367,36,-180,536,-246,59,-1032,199,-1543,-1367,36,-180,536,-246,59,-1032,199,-1543,192,272,256,53.66,1.0058623242042932,52.28,1.0052800394769306,4449.49853515625,-7309.86474609375,40.29999923706055,11.432499885559082,1,0,0.0,0.0,0.0,0.0,0.5160309103986622,0.0,0.0,0.1925885436398621,-1.2921242039999998,0.2584248408,9.8129654826,0.7498803734779358,-0.0588422045111656,0.6554829478263855,0.0675216391682624,6,44.8249755859375,-73.16441243489584,-9.812965482600001,0.2584248408,-1.292124204,-9.812965482600001,0.2584248408,-1.292124204,0.16371188324799998,-0.075136424028,0.018020524462,0.16371188324799998,-0.075136424028,0.018020524462,-0.59856,0.11542,-0.89494,-0.59856,0.11542,-0.89494,-9.812965482600001,0.2584248408,-1.292124204,0.16371188324799998,-0.075136424028,0.018020524462,-0.59856,0.11542,-0.89494,5.64864,8.00224,7.53152,1.005571181840612,52.97
73947,0,7900535,0,-1366,42,-184,520,-259,58,-1027,188,-1531,-1366,42,-184,520,-259,58,-1027,188,-1531,160,272,208,53.66,1.0057044164816185,52.29,1.0053984702689367,4449.49853515625,-7309.86474609375,40.29999923706055,11.432499885559082,1,0,0.0,0.0,0.0,0.0,0.4657516926031478,0.0,0.0,0.1191734857911839,-1.3208380752,0.3014956475999999,9.8057870148,0.7499064803123474,-0.0588327199220657,0.6554459929466248,0.0675993487238884,6,44.8249755859375,-73.16441243489584,-9.8057870148,0.3014956476,-1.3208380752,-9.8057870148,0.3014956476,-1.3208380752,0.15882496136,-0.079107048062,0.017715091844,0.15882496136,-0.079107048062,0.017715091844,-0.59566,0.10904,-0.88798,-0.59566,0.10904,-0.88798,-9.8057870148,0.3014956476,-1.3208380752,0.15882496136,-0.079107048062,0.017715091844,-0.59566,0.10904,-0.88798,4.7072,8.00224,6.11936,1.0055514433752775,52.974999999999994
73948,0,7900640,0,-1376,34,-186,520,-246,62,-1027,188,-1531,-1376,34,-186,520,-246,62,-1027,188,-1531,128,304,192,53.66,1.0058228472736244,52.29,1.0053392548729336,4449.49853515625,-7309.86474609375,40.29999923706055,11.432499885559082,1,0,0.0,0.0,0.0,0.0,0.4166527807381946,0.0,0.0,0.054906829516245,-1.3351950108,0.2440679052,9.877571692799998,0.7498750686645508,-0.0588588714599609,0.6554734706878662,0.0676579847931861,6,44.8249755859375,-73.16441243489584,-9.8775716928,0.24406790520000002,-1.3351950108000001,-9.8775716928,0.24406790520000002,-1.3351950108000001,0.15882496136,-0.075136424028,0.018936822316,0.15882496136,-0.075136424028,0.018936822316,-0.59566,0.10904,-0.88798,-0.59566,0.10904,-0.88798,-9.8775716928,0.24406790520000002,-1.3351950108000001,0.15882496136,-0.075136424028,0.018936822316,-0.59566,0.10904,-0.88798,3.76576,8.94368,5.64864,1.005581051073279,52.974999999999994
73949,0,7900746,0,-1366,35,-193,515,-254,60,-1049,214,-1529,-1366,35,-193,515,-254,60,-1049,214,-1529,176,288,256,53.66,1.0056550703182827,52.28,1.0052306933135948,4449.49853515625,-7309.86474609375,40.29999923706055,11.432499885559082,1,0,0.0,0.0,0.0,0.0,0.4453641724896713,0.0,0.0,0.0790209435383798,-1.3854442854,0.2512463729999999,9.8057870148,0.7498819231987,-0.0588258579373359,0.655472457408905,0.0676198452711105,6,44.8249755859375,-73.16441243489584,-9.8057870148,0.251246373,-1.3854442854,-9.8057870148,0.251246373,-1.3854442854,0.15729779826999998,-0.077579884972,0.01832595708,0.15729779826999998,-0.077579884972,0.01832595708,-0.60842,0.12412,-0.88682,-0.60842,0.12412,-0.88682,-9.8057870148,0.251246373,-1.3854442854,0.15729779826999998,-0.077579884972,0.01832595708,-0.60842,0.12412,-0.88682,5.17792,8.47296,7.53152,1.0054428818159389,52.97
73950,0,7900851,0,-1367,25,-179,511,-253,61,-1049,214,-1529,-1367,25,-179,511,-253,61,-1049,214,-1529,176,304,192,53.66,1.0057537626449544,52.28,1.0053392548729336,4449.49853515625,-7309.86474609375,40.29999923706055,11.432499885559082,1,0,0.0,0.0,0.0,0.0,0.4047638714189586,0.0,0.0,0.0274081984770704,-1.2849457362,0.1794616949999999,9.8129654826,0.7507407665252686,-0.0656722262501716,0.6529777646064758,0.075468860566616,6,44.8249755859375,-73.16441243489584,-9.812965482600001,0.179461695,-1.2849457362,-9.812965482600001,0.179461695,-1.2849457362,0.15607606779799998,-0.07727445235399999,0.018631389698,0.15607606779799998,-0.07727445235399999,0.018631389698,-0.60842,0.12412,-0.88682,-0.60842,0.12412,-0.88682,-9.812965482600001,0.179461695,-1.2849457362,0.15607606779799998,-0.07727445235399999,0.018631389698,-0.60842,0.12412,-0.88682,5.17792,8.94368,5.64864,1.0055465087589441,52.97
73951,0,7900957,0,-1369,31,-186,526,-242,63,-1068,216,-1499,-1369,31,-186,526,-242,63,-1068,216,-1499,112,320,192,53.66,1.0058129780409573,52.28,1.005487293362941,4449.49853515625,-7309.86474609375,40.29999923706055,11.432499885559082,1,0,0.0,0.0,0.0,0.0,0.398888680977679,0.0,0.0,0.0167571186744517,-1.3351950108,0.2225325017999999,9.8273224182,0.7506825923919678,-0.0657200589776039,0.6530340313911438,0.0755197182297706,6,44.8249755859375,-73.16441243489584,-9.8273224182,0.2225325018,-1.3351950108000001,-9.8273224182,0.2225325018,-1.3351950108000001,0.160657557068,-0.073914693556,0.019242254934,0.160657557068,-0.073914693556,0.019242254934,-0.61944,0.12528,-0.86942,-0.61944,0.12528,-0.86942,-9.8273224182,0.2225325018,-1.3351950108000001,0.160657557068,-0.073914693556,0.019242254934,-0.61944,0.12528,-0.86942,3.29504,9.4144,5.64864,1.0056501357019492,52.97
73952,0,7901062,0,-1367,32,-185,516,-239,54,-1068,216,-1499,-1367,32,-185,516,-239,54,-1068,216,-1499,160,240,240,53.66,1.0057537626449544,52.28,1.0053886010362694,4449.49853515625,-7309.86474609375,40.29999923706055,11.43375015258789,1,0,0.0,0.0,0.0,0.0,0.340418827826667,0.0,0.0,-0.0470012444698551,-1.328016543,0.2297109695999999,9.8129654826,0.7506582140922546,-0.0657019764184951,0.6530589461326599,0.0755614340305328,6,44.8249755859375,-73.16441243489584,-9.812965482600001,0.2297109696,-1.3280165430000002,-9.812965482600001,0.2297109696,-1.3280165430000002,0.157603230888,-0.072998395702,0.016493361372,0.157603230888,-0.072998395702,0.016493361372,-0.61944,0.12528,-0.86942,-0.61944,0.12528,-0.86942,-9.812965482600001,0.2297109696,-1.3280165430000002,0.157603230888,-0.072998395702,0.016493361372,-0.61944,0.12528,-0.86942,4.7072,7.0608,7.0608,1.005571181840612,52.97
73953,0,7901168,0,-1369,34,-192,526,-255,59,-1054,202,-1520,-1369,34,-192,526,-255,59,-1054,202,-1520,64,224,176,53.66,1.0056945472489514,52.28,1.005437947199605,4449.49853515625,-7309.86474609375,40.29999923706055,11.432499885559082,1,0,0.0,0.0,0.0,0.0,0.3313045274744522,0.0,0.0,-0.0495249634354967,-1.3782658176,0.2440679052,9.8273224182,0.7506606578826904,-0.0656361728906631,0.6530523896217346,0.0756507068872451,6,44.8249755859375,-73.16441243489584,-9.8273224182,0.24406790520000002,-1.3782658176,-9.8273224182,0.24406790520000002,-1.3782658176,0.160657557068,-0.07788531758999999,0.018020524462,0.160657557068,-0.07788531758999999,0.018020524462,-0.61132,0.11716,-0.8816,-0.61132,0.11716,-0.8816,-9.8273224182,0.24406790520000002,-1.3782658176,0.160657557068,-0.07788531758999999,0.018020524462,-0.61132,0.11716,-0.8816,1.88288,6.59008,5.17792,1.0055662472242783,52.97
73954,0,7901273,0,-1372,36,-181,518,-247,60,-1054,202,-1520,-1372,36,-181,518,-247,60,-1054,202,-1520,144,240,288,53.66,1.0057044164816185,52.28,1.0053886010362694,4449.49853515625,-7309.86474609375,40.29999923706055,11.432499885559082,1,0,0.0,0.0,0.0,0.0,0.2748320678981473,0.0,0.0,-0.1017140714523525,-1.2993026717999998,0.2584248408,9.8488578216,0.7506853938102722,-0.0656157582998275,0.6530125141143799,0.0757684856653213,6,44.8249755859375,-73.16441243489584,-9.848857821600001,0.2584248408,-1.2993026718,-9.848857821600001,0.2584248408,-1.2993026718,0.158214096124,-0.07544185664599999,0.01832595708,0.158214096124,-0.07544185664599999,0.01832595708,-0.61132,0.11716,-0.8816,-0.61132,0.11716,-0.8816,-9.848857821600001,0.2584248408,-1.2993026718,0.158214096124,-0.07544185664599999,0.01832595708,-0.61132,0.11716,-0.8816,4.23648,7.0608,8.47296,1.005546508758944,52.97
73955,0,7901378,0,-1366,32,-187,537,-257,64,-1061,208,-1518,-1363,33,-187,537,-257,63,-1061,208,-1518,160,320,256,53.66,1.0057044164816185,52.29,1.0053984702689367,4449.49853515625,-7309.86474609375,40.29999923706055,11.432499885559082,1,0,0.0,0.0,0.0,0.0,0.3122900357467698,0.0,0.0,-0.0519905291833788,-1.3423734786,0.2333002034999999,9.7950193131,0.7507364153862,-0.0656614005565643,0.6529344916343689,0.075893759727478,6,44.8249755859375,-73.16441243489584,-9.8057870148,0.2297109696,-1.3423734786000001,-9.7842516114,0.2368894374,-1.3423734786000001,0.164017315866,-0.078496182826,0.019547687552,0.164017315866,-0.078496182826,0.019242254934,-0.61538,0.12064,-0.88044,-0.61538,0.12064,-0.88044,-9.7950193131,0.23330020350000003,-1.3423734786000001,0.164017315866,-0.078496182826,0.019394971243,-0.61538,0.12064,-0.88044,4.7072,9.4144,7.53152,1.0055514433752775,52.974999999999994
73956,0,7901484,0,-1368,37,-190,512,-241,69,-1061,208,-1518,-1368,37,-190,512,-241,69,-1061,208,-1518,144,240,208,53.66,1.005615593387614,52.29,1.0053392548729336,4449.49853515625,-7309.86474609375,40.29999923706055,11.432499885559082,1,0,0.0,0.0,0.0,0.0,0.3119614910056834,0.0,0.0,-0.049236875829575,-1.3639088819999998,0.2656033086,9.8201439504,0.7507385611534119,-0.0656783729791641,0.6529356837272644,0.0758475810289383,6,44.8249755859375,-73.16441243489584,-9.8201439504,0.26560330860000003,-1.363908882,-9.8201439504,0.26560330860000003,-1.363908882,0.156381500416,-0.07360926093799999,0.021074850641999997,0.156381500416,-0.07360926093799999,0.021074850641999997,-0.61538,0.12064,-0.88044,-0.61538,0.12064,-0.88044,-9.8201439504,0.26560330860000003,-1.363908882,0.156381500416,-0.07360926093799999,0.021074850641999997,-0.61538,0.12064,-0.88044,4.23648,7.0608,6.11936,1.005477424130274,52.974999999999994
73957,0,7901589,0,-1363,40,-191,526,-250,73,-1066,203,-1539,-1363,40,-191,526,-250,73,-1066,203,-1539,128,256,192,53.66,1.0056550703182827,52.28,1.0052800394769306,4449.49853515625,-7309.86474609375,40.29999923706055,11.432499885559082,1,0,0.0,0.0,0.0,0.0,0.3566779299163469,0.0,0.0,0.002330772064384,-1.3710873497999998,0.2871387119999999,9.784251611399998,0.750738263130188,-0.0657210499048233,0.652937114238739,0.0758032128214836,6,44.8249755859375,-73.16441243489584,-9.7842516114,0.287138712,-1.3710873498,-9.7842516114,0.287138712,-1.3710873498,0.160657557068,-0.0763581545,0.022296581114,0.160657557068,-0.0763581545,0.022296581114,-0.61828,0.11774,-0.89262,-0.61828,0.11774,-0.89262,-9.7842516114,0.287138712,-1.3710873498,0.160657557068,-0.0763581545,0.022296581114,-0.61828,0.11774,-0.89262,3.76576,7.53152,5.64864,1.0054675548976066,52.97
73958,0,7901695,0,-1368,37,-183,519,-243,71,-1066,203,-1539,-1368,37,-183,508,-244,71,-1066,203,-1539,144,256,208,53.66,1.0058721934369603,52.28,1.0053392548729336,4449.4990234375,-7309.86474609375,40.20000076293945,11.432499885559082,1,0,0.0,0.0,0.0,0.0,0.3277709410821894,0.0,0.0,-0.0285965456946899,-1.3136596074,0.2656033086,9.8201439504,0.7506840229034424,-0.0656835585832595,0.6530165672302246,0.0756881162524223,6,44.82498372395833,-73.16441243489584,-9.8201439504,0.26560330860000003,-1.3136596074,-9.8201439504,0.26560330860000003,-1.3136596074,0.15851952874199998,-0.07422012617399999,0.021685715878,0.155159769944,-0.074525558792,0.021685715878,-0.61828,0.11774,-0.89262,-0.61828,0.11774,-0.89262,-9.8201439504,0.26560330860000003,-1.3136596074,0.156839649343,-0.074372842483,0.021685715878,-0.61828,0.11774,-0.89262,4.23648,7.53152,6.11936,1.005605724154947,52.97
73959,0,7901800,0,-1362,37,-182,518,-237,58,-1051,190,-1508,-1362,37,-182,518,-237,58,-1051,190,-1508,160,288,288,53.66,1.005615593387614,52.28,1.0052800394769306,4449.4990234375,-7309.86474609375,40.20000076293945,11.432499885559082,1,0,0.0,0.0,0.0,0.0,0.3685431592233625,0.0,0.0,0.0178513660608726,-1.3064811395999998,0.2656033086,9.7770731436,0.7493247985839844,-0.0581866726279258,0.6562849879264832,0.066458411514759,6,44.82498372395833,-73.16441243489584,-9.777073143600001,0.26560330860000003,-1.3064811396,-9.777073143600001,0.26560330860000003,-1.3064811396,0.158214096124,-0.072387530466,0.017715091844,0.158214096124,-0.072387530466,0.017715091844,-0.60958,0.1102,-0.87464,-0.60958,0.1102,-0.87464,-9.777073143600001,0.26560330860000003,-1.3064811396,0.158214096124,-0.072387530466,0.017715091844,-0.60958,0.1102,-0.87464,4.7072,8.47296,8.47296,1.0054478164322722,52.97
73960,0,7901906,0,-1367,26,-178,529,-267,64,-1051,190,-1508,-1367,26,-178,529,-267,64,-1051,190,-1508,160,288,192,53.66,1.0056649395509498,52.29,1.0053392548729336,4449.4990234375,-7309.86474609375,40.20000076293945,11.432499885559082,1,0,0.0,0.0,0.0,0.0,0.3510660928649166,0.0,0.0,-0.0008957190621509,-1.2777672684,0.1866401627999999,9.8129654826,0.7493166327476501,-0.0581807382404804,0.6562881469726562,0.0665242597460746,6,44.82498372395833,-73.16441243489584,-9.812965482600001,0.1866401628,-1.2777672684,-9.812965482600001,0.1866401628,-1.2777672684,0.161573854922,-0.081550509006,0.019547687552,0.161573854922,-0.081550509006,0.019547687552,-0.60958,0.1102,-0.87464,-0.60958,0.1102,-0.87464,-9.812965482600001,0.1866401628,-1.2777672684,0.161573854922,-0.081550509006,0.019547687552,-0.60958,0.1102,-0.87464,4.7072,8.47296,5.64864,1.0055020972119417,52.974999999999994
73961,0,7902011,0,-1365,34,-188,533,-261,50,-1037,188,-1505,-1365,34,-188,533,-261,50,-1037,188,-1505,160,240,272,53.66,1.0056550703182827,52.29,1.0054478164322724,4449.4990234375,-7309.86474609375,40.20000076293945,11.43375015258789,1,0,0.0,0.0,0.0,0.0,0.293802423444197,0.0,0.0,-0.0605027645870446,-1.3495519464,0.2440679052,9.798608547,0.7494025230407715,-0.0582111664116382,0.656170129776001,0.0666947588324546,6,44.82498372395833,-73.16441243489584,-9.798608547,0.24406790520000002,-1.3495519464,-9.798608547,0.24406790520000002,-1.3495519464,0.162795585394,-0.079717913298,0.0152716309,0.162795585394,-0.079717913298,0.0152716309,-0.60146,0.10904,-0.8729,-0.60146,0.10904,-0.8729,-9.798608547,0.24406790520000002,-1.3495519464,0.162795585394,-0.079717913298,0.0152716309,-0.60146,0.10904,-0.8729,4.7072,7.0608,8.00224,1.0055514433752775,52.974999999999994
73962,0,7902120,0,-1369,36,-191,536,-242,62,-1037,188,-1505,-1369,36,-191,536,-242,62,-1037,188,-1505,144,240,240,53.66,1.0057537626449544,52.29,1.0053392548729336,4449.4990234375,-7309.86474609375,40.20000076293945,11.432499885559082,1,0,0.0,0.0,0.0,0.0,0.3038451666650698,0.0,0.0,-0.0409666048117871,-1.3710873497999998,0.2584248408,9.8273224182,0.7494661211967468,-0.0582683607935905,0.6560743451118469,0.0668721497058868,6,44.82498372395833,-73.16441243489584,-9.8273224182,0.2584248408,-1.3710873498,-9.8273224182,0.2584248408,-1.3710873498,0.16371188324799998,-0.073914693556,0.018936822316,0.16371188324799998,-0.073914693556,0.018936822316,-0.60146,0.10904,-0.8729,-0.60146,0.10904,-0.8729,-9.8273224182,0.2584248408,-1.3710873498,0.16371188324799998,-0.073914693556,0.018936822316,-0.60146,0.10904,-0.8729,4.23648,7.0608,7.0608,1.0055465087589441,52.974999999999994
73963,0,7902225,0,-1367,37,-193,523,-246,62,-1025,197,-1494,-1367,37,-193,523,-246,62,-1025,197,-1494,160,288,224,53.66,1.0057142857142858,52.28,1.005487293362941,4449.4990234375,-7309.86474609375,40.20000076293945,11.432499885559082,1,0,0.0,0.0,0.0,0.0,0.2967918032024584,0.0,0.0,-0.0435891579021562,-1.3854442854,0.2656033086,9.8129654826,0.7494863867759705,-0.0583307594060897,0.6560370326042175,0.066957026720047,6,44.82498372395833,-73.16441243489584,-9.812965482600001,0.26560330860000003,-1.3854442854,-9.812965482600001,0.26560330860000003,-1.3854442854,0.15974125921399998,-0.075136424028,0.018936822316,0.15974125921399998,-0.075136424028,0.018936822316,-0.5945,0.11426,-0.86652,-0.5945,0.11426,-0.86652,-9.812965482600001,0.26560330860000003,-1.3854442854,0.15974125921399998,-0.075136424028,0.018936822316,-0.5945,0.11426,-0.86652,4.7072,8.47296,6.59008,1.0056007895386134,52.97
73964,0,7902330,0,-1363,37,-192,506,-241,62,-1025,197,-1494,-1363,37,-192,506,-241,62,-1025,197,-1494,224,288,272,53.66,1.0057636318776215,52.28,1.0053392548729336,4449.4990234375,-7309.86474609375,40.20000076293945,11.432499885559082,1,0,0.0,0.0,0.0,0.0,0.2778314003114849,0.0,0.0,-0.0591666813519118,-1.3782658176,0.2656033086,9.784251611399998,0.7494441866874695,-0.0582745261490345,0.6560927033424377,0.0669319182634353,6,44.82498372395833,-73.16441243489584,-9.7842516114,0.26560330860000003,-1.3782658176,-9.7842516114,0.26560330860000003,-1.3782658176,0.15454890470799998,-0.07360926093799999,0.018936822316,0.15454890470799998,-0.07360926093799999,0.018936822316,-0.5945,0.11426,-0.86652,-0.5945,0.11426,-0.86652,-9.7842516114,0.26560330860000003,-1.3782658176,0.15454890470799998,-0.07360926093799999,0.018936822316,-0.5945,0.11426,-0.86652,6.59008,8.47296,8.00224,1.0055514433752775,52.97
73965,0,7902436,0,-1363,32,-180,505,-242,63,-1023,214,-1516,-1363,32,-180,505,-242,63,-1023,214,-1516,144,208,176,53.66,1.0057142857142858,52.28,1.0053392548729336,4449.4990234375,-7309.86474609375,40.20000076293945,11.432499885559082,1,0,0.0,0.0,0.0,0.0,0.2784150221790762,0.0,0.0,-0.0507514621569109,-1.2921242039999998,0.2297109695999999,9.784251611399998,0.7493343353271484,-0.0581623539328575,0.6562438607215881,0.0667783394455909,6,44.82498372395833,-73.16441243489584,-9.7842516114,0.2297109696,-1.292124204,-9.7842516114,0.2297109696,-1.292124204,0.15424347209,-0.073914693556,0.019242254934,0.15424347209,-0.073914693556,0.019242254934,-0.59334,0.12412,-0.87928,-0.59334,0.12412,-0.87928,-9.7842516114,0.2297109696,-1.292124204,0.15424347209,-0.073914693556,0.019242254934,-0.59334,0.12412,-0.87928,4.23648,6.11936,5.17792,1.0055267702936097,52.97
73966,0,7902541,0,-1367,34,-188,515,-245,69,-1064,217,-1510,-1367,34,-188,515,-245,69,-1064,217,-1510,128,272,208,53.66,1.0057142857142858,52.28,1.0053787318036025,4449.4990234375,-7309.86474609375,40.20000076293945,11.432499885559082,1,0,0.0,0.0,0.0,0.0,0.2422889519036274,0.0,0.0,-0.0825163719438027,-1.3495519464,0.2440679052,9.8129654826,0.7492360472679138,-0.0581290610134601,0.6563661694526672,0.0667073652148246,6,44.82498372395833,-73.16441243489584,-9.812965482600001,0.24406790520000002,-1.3495519464,-9.812965482600001,0.24406790520000002,-1.3495519464,0.15729779826999998,-0.07483099140999999,0.021074850641999997,0.15729779826999998,-0.07483099140999999,0.021074850641999997,-0.61712,0.12586,-0.8758,-0.61712,0.12586,-0.8758,-9.812965482600001,0.24406790520000002,-1.3495519464,0.15729779826999998,-0.07483099140999999,0.021074850641999997,-0.61712,0.12586,-0.8758,3.76576,8.00224,6.11936,1.0055465087589441,52.97
73967,0,7902647,0,-1367,34,-181,524,-249,66,-1064,217,-1510,-1367,34,-181,524,-249,66,-1064,217,-1510,80,288,272,53.66,1.0057044164816185,52.29,1.0053392548729336,4449.4990234375,-7309.86474609375,40.20000076293945,11.432499885559082,1,0,0.0,0.0,0.0,0.0,0.2487908225484013,0.0,0.0,-0.0676834860109406,-1.2993026717999998,0.2440679052,9.8129654826,0.7492459416389465,-0.0581401400268077,0.6563606858253479,0.0666400268673896,6,44.82498372395833,-73.16441243489584,-9.812965482600001,0.24406790520000002,-1.2993026718,-9.812965482600001,0.24406790520000002,-1.2993026718,0.160046691832,-0.07605272188199999,0.020158552788,0.160046691832,-0.07605272188199999,0.020158552788,-0.61712,0.12586,-0.8758,-0.61712,0.12586,-0.8758,-9.812965482600001,0.24406790520000002,-1.2993026718,0.160046691832,-0.07605272188199999,0.020158552788,-0.61712,0.12586,-0.8758,2.3536,8.47296,8.00224,1.0055218356772762,52.974999999999994
73968,0,7902752,0,-1369,30,-181,517,-252,64,-1032,176,-1495,-1369,30,-181,517,-252,64,-1032,176,-1495,112,304,224,53.66,1.0058129780409573,52.29,1.0054478164322724,4449.4990234375,-7309.86474609375,40.20000076293945,11.43375015258789,1,0,0.0,0.0,0.0,0.0,0.1703727934416694,0.0,0.0,-0.1417457633364952,-1.2993026717999998,0.2153540339999999,9.8273224182,0.7492877244949341,-0.0581851117312908,0.6563081741333008,0.066649205982685,6,44.82498372395833,-73.16441243489584,-9.8273224182,0.215354034,-1.2993026718,-9.8273224182,0.215354034,-1.2993026718,0.157908663506,-0.076969019736,0.019547687552,0.157908663506,-0.076969019736,0.019547687552,-0.59856,0.10208,-0.8671,-0.59856,0.10208,-0.8671,-9.8273224182,0.215354034,-1.2993026718,0.157908663506,-0.076969019736,0.019547687552,-0.59856,0.10208,-0.8671,3.29504,8.94368,6.59008,1.0056303972366147,52.974999999999994
73969,0,7902858,0,-1365,30,-189,526,-256,55,-1032,176,-1495,-1365,30,-189,526,-256,55,-1032,176,-1495,80,240,208,53.66,1.0057142857142858,52.29,1.0054478164322724,4449.4990234375,-7309.86474609375,40.20000076293945,11.432499885559082,1,0,0.0,0.0,0.0,0.0,0.1575520460028631,0.0,0.0,-0.1412230510314032,-1.3567304141999998,0.2153540339999999,9.798608547,0.751495361328125,-0.0586125254631042,0.6536564230918884,0.0674730092287063,6,44.82498372395833,-73.16441243489584,-9.798608547,0.215354034,-1.3567304142,-9.798608547,0.215354034,-1.3567304142,0.160657557068,-0.078190750208,0.016798793989999998,0.160657557068,-0.078190750208,0.016798793989999998,-0.59856,0.10208,-0.8671,-0.59856,0.10208,-0.8671,-9.798608547,0.215354034,-1.3567304142,0.160657557068,-0.078190750208,0.016798793989999998,-0.59856,0.10208,-0.8671,2.3536,7.0608,6.11936,1.0055810510732792,52.974999999999994
73970,0,7902963,0,-1364,37,-189,523,-251,60,-1044,220,-1496,-1364,37,-189,523,-251,60,-1044,220,-1496,144,240,208,53.67,1.0058228472736244,52.29,1.0053392548729336,4449.4990234375,-7309.86474609375,40.20000076293945,11.432499885559082,1,0,0.0,0.0,0.0,0.0,0.1375518111944457,0.0,0.0,-0.146309072068331,-1.3567304141999998,0.2656033086,9.7914300792,0.7514611482620239,-0.0585594587028026,0.6536868214607239,0.0676053613424301,6,44.82498372395833,-73.16441243489584,-9.7914300792,0.26560330860000003,-1.3567304142,-9.7914300792,0.26560330860000003,-1.3567304142,0.15974125921399998,-0.07666358711799999,0.01832595708,0.15974125921399998,-0.07666358711799999,0.01832595708,-0.6055200000000001,0.1276,-0.86768,-0.6055200000000001,0.1276,-0.86768,-9.7914300792,0.26560330860000003,-1.3567304142,0.15974125921399998,-0.07666358711799999,0.01832595708,-0.6055200000000001,0.1276,-0.86768,4.23648,7.0608,6.11936,1.005581051073279,52.980000000000004
73971,0,7903070,0,-1366,34,-189,515,-226,51,-1044,220,-1496,-1366,34,-189,515,-226,51,-1044,220,-1496,128,256,176,53.66,1.0058228472736244,52.28,1.0053392548729336,4449.4990234375,-7309.86474609375,40.20000076293945,11.432499885559082,1,0,0.0,0.0,0.0,0.0,0.120481700852835,0.0,0.0,-0.1501756948882115,-1.3567304141999998,0.2440679052,9.8057870148,0.7513843774795532,-0.05838318541646,0.6537845134735107,0.0676663964986801,6,44.82498372395833,-73.16441243489584,-9.8057870148,0.24406790520000002,-1.3567304142,-9.8057870148,0.24406790520000002,-1.3567304142,0.15729779826999998,-0.06902777166799999,0.015577063518,0.15729779826999998,-0.06902777166799999,0.015577063518,-0.6055200000000001,0.1276,-0.86768,-0.6055200000000001,0.1276,-0.86768,-9.8057870148,0.24406790520000002,-1.3567304142,0.15729779826999998,-0.06902777166799999,0.015577063518,-0.6055200000000001,0.1276,-0.86768,3.76576,7.53152,5.17792,1.005581051073279,52.97
73972,0,7903175,0,-1372,36,-185,520,-239,67,-1060,203,-1485,-1372,36,-185,520,-239,67,-1060,203,-1485,144,256,192,53.67,1.0057735011102886,52.29,1.0054971625956082,4449.4990234375,-7309.86474609375,40.20000076293945,11.43375015258789,1,0,0.0,0.0,0.0,0.0,0.0549828455692098,0.0,0.0,-0.2034023666708122,-1.328016543,0.2584248408,9.8488578216,0.7512699365615845,-0.0582840405404567,0.6539260149002075,0.0676557794213295,6,44.82498372395833,-73.16441243489584,-9.848857821600001,0.2584248408,-1.3280165430000002,-9.848857821600001,0.2584248408,-1.3280165430000002,0.15882496136,-0.072998395702,0.020463985405999998,0.15882496136,-0.072998395702,0.020463985405999998,-0.6148,0.11774,-0.8613,-0.6148,0.11774,-0.8613,-9.848857821600001,0.2584248408,-1.3280165430000002,0.15882496136,-0.072998395702,0.020463985405999998,-0.6148,0.11774,-0.8613,4.23648,7.53152,5.64864,1.0056353318529485,52.980000000000004
73973,0,7903280,0,-1361,41,-182,517,-241,69,-1060,203,-1485,-1361,41,-182,517,-241,69,-1060,203,-1485,144,240,208,53.66,1.005615593387614,52.28,1.0053392548729336,4449.4990234375,-7309.86474609375,40.20000076293945,11.432499885559082,1,0,0.0,0.0,0.0,0.0,0.1008222463865958,0.0,0.0,-0.1319066828331103,-1.3064811395999998,0.2943171798,9.7698946758,0.7512102723121643,-0.0582219325006008,0.6540071368217468,0.0675872713327407,6,44.82498372395833,-73.16441243489584,-9.7698946758,0.2943171798,-1.3064811396,-9.7698946758,0.2943171798,-1.3064811396,0.157908663506,-0.07360926093799999,0.021074850641999997,0.157908663506,-0.07360926093799999,0.021074850641999997,-0.6148,0.11774,-0.8613,-0.6148,0.11774,-0.8613,-9.7698946758,0.2943171798,-1.3064811396,0.157908663506,-0.07360926093799999,0.021074850641999997,-0.6148,0.11774,-0.8613,4.23648,7.0608,6.11936,1.005477424130274,52.97
73974,0,7903386,0,-1366,40,-183,525,-246,69,-1051,225,-1495,-1366,40,-183,525,-246,69,-1051,225,-1495,176,336,144,53.67,1.0056254626202812,52.28,1.0053886010362694,4449.4990234375,-7309.86474609375,40.20000076293945,11.432499885559082,1,0,0.0,0.0,0.0,0.0,0.0974005744520445,0.0,0.0,-0.1213774355008731,-1.3136596074,0.2871387119999999,9.8057870148,0.7512101531028748,-0.0582161135971546,0.6540234088897705,0.0674365609884262,6,44.82498372395833,-73.16441243489584,-9.8057870148,0.287138712,-1.3136596074,-9.8057870148,0.287138712,-1.3136596074,0.16035212445,-0.075136424028,0.021074850641999997,0.16035212445,-0.075136424028,0.021074850641999997,-0.60958,0.1305,-0.8671,-0.60958,0.1305,-0.8671,-9.8057870148,0.287138712,-1.3136596074,0.16035212445,-0.075136424028,0.021074850641999997,-0.60958,0.1305,-0.8671,5.17792,9.88512,4.23648,1.0055070318282753,52.975
73975,0,7903491,0,-1367,29,-181,513,-245,67,-1051,225,-1495,-1367,29,-181,513,-245,67,-1051,225,-1495,224,288,272,53.67,1.0056748087836171,52.28,1.005437947199605,4449.4990234375,-7309.86474609375,40.20000076293945,11.432499885559082,1,0,0.0,0.0,0.0,0.0,0.0987824888855446,0.0,0.0,-0.1118781150225287,-1.2993026717999998,0.2081755662,9.8129654826,0.7512619495391846,-0.0582097545266151,0.6539850831031799,0.0672364458441734,6,44.82498372395833,-73.16441243489584,-9.812965482600001,0.2081755662,-1.2993026718,-9.812965482600001,0.2081755662,-1.2993026718,0.156686933034,-0.07483099140999999,0.020463985405999998,0.156686933034,-0.07483099140999999,0.020463985405999998,-0.60958,0.1305,-0.8671,-0.60958,0.1305,-0.8671,-9.812965482600001,0.2081755662,-1.2993026718,0.156686933034,-0.07483099140999999,0.020463985405999998,-0.60958,0.1305,-0.8671,6.59008,8.47296,8.00224,1.0055563779916112,52.975
73976,0,7903597,0,-1369,28,-196,518,-229,62,-1043,217,-1504,-1369,28,-196,518,-229,62,-1043,217,-1504,160,288,256,53.66,1.0057636318776215,52.29,1.0053984702689367,4449.4990234375,-7309.86474609375,40.20000076293945,11.431249618530272,1,0,0.0,0.0,0.0,0.0,0.0937300279147251,0.0,0.0,-0.103873281456232,-1.4069796888,0.2009970984,9.8273224182,0.7512418627738953,-0.0581798106431961,0.654018759727478,0.0671596601605415,6,44.82498372395833,-73.16441243489584,-9.8273224182,0.20099709840000002,-1.4069796888000001,-9.8273224182,0.20099709840000002,-1.4069796888000001,0.158214096124,-0.069944069522,0.018936822316,0.158214096124,-0.069944069522,0.018936822316,-0.60494,0.12586,-0.87232,-0.60494,0.12586,-0.87232,-9.8273224182,0.20099709840000002,-1.4069796888000001,0.158214096124,-0.069944069522,0.018936822316,-0.60494,0.12586,-0.87232,4.7072,8.47296,7.53152,1.0055810510732792,52.974999999999994
