,timestamp_s,timestamp_ms,imu1_accel_x,imu1_accel_y,imu1_accel_z,imu1_gyro_x,imu1_gyro_y,imu1_gyro_z,imu1_mag_x,imu1_mag_y,imu1_mag_z,imu2_accel_x,imu2_accel_y,imu2_accel_z,imu2_gyro_x,imu2_gyro_y,imu2_gyro_z,imu2_mag_x,imu2_mag_y,imu2_mag_z,high_g_accel_x,high_g_accel_y,high_g_accel_z,baro1_temp,baro1_pres,baro1_alt,baro2_temp,baro2_pres,baro2_alt,gps_lat,gps_long,gps_alt,battery_voltage,pyro_cont,heading,vtg,pos_x,pos_y,pos_z,vel_x,vel_y,vel_z,q_x,q_y,q_z,q_w,state,baro_pres_avg,imu1_accel_x_real,imu1_accel_y_real,imu1_accel_z_real,imu2_accel_x_real,imu2_accel_y_real,imu2_accel_z_real,imu1_gyro_x_real,imu1_gyro_y_real,imu1_gyro_z_real,imu2_gyro_x_real,imu2_gyro_y_real,imu2_gyro_z_real,imu1_mag_x_real,imu1_mag_y_real,imu1_mag_z_real,imu2_mag_x_real,imu2_mag_y_real,imu2_mag_z_real,imu_accel_x_avg,imu_accel_y_avg,imu_accel_z_avg,imu_gyro_x_avg,imu_gyro_y_avg,imu_gyro_z_avg,imu_mag_x_avg,imu_mag_y_avg,imu_mag_z_avg,high_g_accel_x_real,high_g_accel_y_real,high_g_accel_z_real,baro_temp_avg
1249,8985022,0,-643,16301,-408,102,-33,22,-425,8097,3989,-691,16264,238,130,268,33,1714,2642,10894,-336,64,12352,39.47,0.999743399950654,0.0,41.63,1.0116062176165803,0.0,0.0,0.0,0.0,7.762389183044434,0,0.0,0.0,0.0,0.0,0.0,0.0,0.0,0.0,0.0,0.0,0.0,0.0,7,1.0056748087836171,-0.38464623295,9.75135030065,-0.2440679052,-0.41336010415,9.7292166916,0.1423729447,0.0155770626,-0.0050396379,0.0033597586000000002,0.019853119,0.0409279684,0.0050396379,-0.0595,1.1335799999999998,0.55846,0.23995999999999998,0.36988,1.5251599999999998,-0.39900316855,9.740283496124999,-0.05084748024999999,0.0177150908,0.01794416525,0.00419969825,0.09022999999999999,0.7517299999999999,1.04181,-9.88512,1.88288,363.39584,40.55
1250,8985308,0,-677,16294,-371,91,-46,16,-461,8130,3929,-720,16260,255,97,250,-2,1694,2600,11001,-240,128,12336,39.47,0.9996052306933136,0.0,41.64,1.0114779175919073,0.0,0.0,0.0,0.0,7.773467540740967,0,0.0,0.0,0.0,0.0,0.0,0.0,0.0,0.0,0.0,0.0,0.0,0.0,7,1.0055415741426104,-0.40498522505,9.7471628611,-0.22193429615,-0.430708068,9.726823869,0.15254244075,0.0138971833,-0.0070249498,0.0024434608,0.0148134811,0.038179075,-0.0003054326,-0.06454,1.1381999999999999,0.55006,0.23715999999999998,0.364,1.5401399999999998,-0.41784664652500003,9.736993365050001,-0.03469592769999999,0.0143553322,0.0155770626,0.0010690141000000001,0.08631,0.7510999999999999,1.0451,-7.0608,3.76576,362.92512,40.555
1251,8985554,0,-645,16299,-446,86,-41,-3,-454,8103,3985,-724,16258,200,70,247,-5,1696,2582,10924,-192,160,12304,39.47,0.9998026153466568,0.0,41.64,1.0114779175919073,0.0,0.0,0.0,0.0,7.765712738037109,0,0.0,0.0,0.0,0.0,0.0,0.0,0.0,0.0,0.0,0.0,0.0,0.0,7,1.005640266469282,-0.38584264425,9.750153889349999,-0.2667997199,-0.4331008906,9.7256274577,0.11964113,0.0131336018,-0.0062613683,-0.0004581489,0.010690141,0.0377209261,-0.0007635815,-0.06355999999999999,1.13442,0.5579,0.23743999999999998,0.36147999999999997,1.5293599999999998,-0.409471767425,9.737890673525,-0.07357929495000001,0.0119118714,0.0157297789,-0.0006108652,0.08693999999999999,0.74795,1.0436299999999998,-5.64864,4.7072,361.98368000000005,40.555
1252,8985802,0,-634,16294,-489,95,-26,-10,-462,8063,3923,-683,16258,168,97,267,10,1715,2612,10922,-304,0,12368,39.47,0.9996743153219836,0.0,41.62,1.0114877868245744,0.0,0.0,0.0,0.0,7.765712738037109,0,0.0,0.0,0.0,0.0,0.0,0.0,0.0,0.0,0.0,0.0,0.0,0.0,7,1.005581051073279,-0.3792623821,9.7471628611,-0.29252256285,-0.40857445895,9.7256274577,0.1004985492,0.0145080485,-0.0039706238,-0.001527163,0.0148134811,0.0407752521,0.001527163,-0.06467999999999999,1.12882,0.5492199999999999,0.24009999999999998,0.36567999999999995,1.5290799999999998,-0.39391842052500003,9.7363951594,-0.096012006825,0.0146607648,0.01840231415,0.0,0.08771,0.74725,1.0391499999999998,-8.94368,0.0,363.86656000000005,40.545
1253,8986090,0,-641,16296,-468,130,-44,5,-381,8103,3903,-689,16268,180,120,235,28,1678,2583,10977,-192,64,12288,39.46,0.9995460152973108,0.0,41.64,1.0114779175919073,0.0,0.0,0.0,0.0,7.779560565948486,0,0.0,0.0,0.0,0.0,0.0,0.0,0.0,0.0,0.0,0.0,0.0,0.0,7,1.005511966444609,-0.38344982164999997,9.7483592724,-0.2799602442,-0.41216369285,9.7316095142,0.107677017,0.019853119,-0.0067195172000000004,0.0007635815,0.018325956,0.0358883305,0.0042760564000000004,-0.05334,1.13442,0.5464199999999999,0.23492,0.36161999999999994,1.5367799999999998,-0.39780675725,9.7399843933,-0.0861416136,0.0190895375,0.014584406650000001,0.00251981895,0.09079,0.7480199999999999,1.0415999999999999,-5.64864,1.88288,361.51296,40.55
1254,8986336,0,-723,16307,-393,111,-25,11,-462,8129,3915,-726,16274,239,121,257,9,1700,2619,10982,-288,32,12368,39.47,0.9998420922773256,0.0,41.64,1.0114779175919073,0.0,0.0,0.0,0.0,7.760727882385254,0,0.0,0.0,0.0,0.0,0.0,0.0,0.0,0.0,0.0,0.0,0.0,0.0,7,1.0056600049346165,-0.43250268495,9.75493953455,-0.23509482045,-0.4342973019,9.7351987481,0.14297115035,0.0169515093,-0.0038179075,0.0016798793000000001,0.0184786723,0.0392480891,0.0013744467,-0.06467999999999999,1.1380599999999998,0.5480999999999999,0.238,0.36666,1.53748,-0.433399993425,9.745069141325,-0.04606183505,0.0177150908,0.0177150908,0.001527163,0.08666,0.7523599999999999,1.0427899999999999,-8.47296,0.94144,363.86656000000005,40.555
1255,8986624,0,-635,16315,-408,100,-14,-4,-460,8090,3937,-684,16260,242,97,271,-6,1663,2606,10934,-176,16,12288,39.47,0.9994966691339748,0.0,41.63,1.0113890944979027,0.0,0.0,0.0,0.0,7.768482208251953,0,0.0,0.0,0.0,0.0,0.0,0.0,0.0,0.0,0.0,0.0,0.0,0.0,7,1.0054428818159389,-0.37986058775,9.75972517975,-0.2440679052,-0.4091726646,9.726823869,0.1447657673,0.01527163,-0.0021380282000000002,-0.0006108652,0.0148134811,0.0413861173,-0.0009162978,-0.0644,1.1325999999999998,0.55118,0.23281999999999997,0.36483999999999994,1.53076,-0.394516626175,9.743274524375,-0.04965106895,0.01504255555,0.019624044549999997,-0.0007635815,0.08420999999999998,0.7487199999999998,1.04097,-5.17792,0.47072,361.51296,40.55
1256,8986872,0,-620,16293,-465,92,-51,6,-469,8111,3949,-656,16266,156,86,240,1,1726,2539,10954,-288,64,12368,39.47,0.9999013076733284,0.0,41.63,1.0116062176165803,0.0,0.0,0.0,0.0,7.771251678466797,0,0.0,0.0,0.0,0.0,0.0,0.0,0.0,0.0,0.0,0.0,0.0,0.0,7,1.0057537626449544,-0.370887503,9.74656465545,-0.27816562725,-0.3924229064,9.7304131029,0.0933200814,0.0140498996,-0.0077885313,0.0009162978,0.0131336018,0.036651912,0.0001527163,-0.06566,1.13554,0.5528599999999999,0.24163999999999997,0.35545999999999994,1.5335599999999998,-0.38165520470000003,9.738488879175,-0.092422772925,0.0135917507,0.014431690350000002,0.0005345070500000001,0.08798999999999998,0.7454999999999999,1.0432099999999997,-8.47296,1.88288,363.86656000000005,40.55
1257,8987118,0,-627,16299,-500,111,-50,19,-452,8063,3897,-663,16284,156,97,240,32,1684,2586,10942,-336,112,12432,39.47,0.9996644460893166,0.0,41.64,1.011517394522576,0.0,0.0,0.0,0.0,7.7640509605407715,0,0.0,0.0,0.0,0.0,0.0,0.0,0.0,0.0,0.0,0.0,0.0,0.0,7,1.0055909203059463,-0.37507494255,9.750153889349999,-0.299102825,-0.39661034595,9.741180804599999,0.0933200814,0.0169515093,-0.007635815,0.0029016097,0.0148134811,0.036651912,0.0048869216,-0.06327999999999999,1.12882,0.54558,0.23575999999999997,0.36204,1.53188,-0.38584264425000003,9.745667346974999,-0.1028913718,0.0158824952,0.0145080485,0.00389426565,0.08623999999999998,0.7454299999999999,1.03873,-9.88512,3.29504,365.74944000000005,40.555
1258,8987406,0,-714,16300,-444,120,-42,4,-449,8092,3950,-760,16260,203,119,263,18,1713,2604,10957,-208,48,12336,39.47,0.9996743153219836,0.0,41.63,1.0113298791019,0.0,0.0,0.0,0.0,7.769036293029785,0,0.0,0.0,0.0,0.0,0.0,0.0,0.0,0.0,0.0,0.0,0.0,0.0,7,1.005502097211942,-0.4271188341,9.750752095,-0.2656033086,-0.454636294,9.726823869,0.12143574694999999,0.018325956,-0.0064140846,0.0006108652,0.0181732397,0.0401643869,0.0027488934,-0.06286,1.1328799999999999,0.5529999999999999,0.23981999999999998,0.36456,1.53398,-0.44087756405,9.738787982,-0.072083780825,0.01824959785,0.01687515115,0.0016798793,0.08847999999999999,0.7487199999999999,1.0434899999999998,-6.11936,1.41216,362.92512,40.55
1259,8987654,0,-696,16301,-404,104,-35,-19,-436,8121,3907,-752,16258,216,110,265,-25,1736,2603,10891,-240,112,12320,39.48,0.9995361460646436,0.0,41.64,1.011586479151246,0.0,0.0,0.0,0.0,7.766820430755615,0,0.0,0.0,0.0,0.0,0.0,0.0,0.0,0.0,0.0,0.0,0.0,0.0,7,1.0055613126079448,-0.4163511324,9.75135030065,-0.2416750826,-0.4498506488,9.7256274577,0.1292124204,0.0158824952,-0.0053450705,-0.0029016097,0.016798793,0.0404698195,-0.0038179075,-0.06104,1.1369399999999998,0.5469799999999999,0.24303999999999998,0.36441999999999997,1.5247399999999998,-0.4331008906,9.738488879175,-0.056231331100000004,0.0163406441,0.0175623745,-0.0033597586000000002,0.091,0.7506799999999999,1.0358599999999998,-7.0608,3.29504,362.4544,40.56
1260,8987940,0,-606,16311,-431,95,-27,-20,-476,8092,3941,-665,16282,212,100,278,-16,1684,2615,10905,-256,128,12304,39.48,0.9995953614606464,0.0,41.65,1.01139896373057,0.0,0.0,0.0,0.0,7.7640509605407715,0,0.0,0.0,0.0,0.0,0.0,0.0,0.0,0.0,0.0,0.0,0.0,0.0,7,1.0054971625956082,-0.3625126239,9.75733235715,-0.25782663515,-0.39780675725,9.7399843933,0.1268195978,0.0145080485,-0.0041233401,-0.003054326,0.01527163,0.0424551314,-0.0024434608,-0.06663999999999999,1.1328799999999999,0.5517399999999999,0.23575999999999997,0.3661,1.5267,-0.380159690575,9.748658375225,-0.065503518675,0.01488983925,0.01916589565,-0.0027488934,0.08456,0.74949,1.0392199999999998,-7.53152,3.76576,361.98368000000005,40.565
1261,8988186,0,-587,16302,-447,94,-41,27,-463,8154,3872,-636,16276,201,106,243,12,1758,2570,10940,-368,0,12336,39.48,0.9995361460646436,0.0,41.64,1.01153713298791,0.0,0.0,0.0,0.0,7.762943267822266,0,0.0,0.0,0.0,0.0,0.0,0.0,0.0,0.0,0.0,0.0,0.0,0.0,7,1.0055366395262768,-0.35114671655,9.7519485063,-0.26739792554999997,-0.3804587934,9.7363951594,0.12023933565,0.0143553322,-0.0062613683,0.0041233401,0.0161879278,0.0371100609,0.0018325956,-0.06481999999999999,1.14156,0.54208,0.24611999999999998,0.35979999999999995,1.5315999999999999,-0.36580275497500003,9.74417183285,-0.07357929494999998,0.015271630000000001,0.015424346299999999,0.00297796785,0.09065,0.7506799999999999,1.03684,-10.82656,0.0,362.92512,40.56
1262,8988434,0,-678,16302,-401,107,-60,26,-448,8092,3912,-717,16270,237,105,205,46,1703,2539,10919,-272,64,12304,39.49,0.9993486306439674,0.0,41.64,1.0113792252652356,0.0,0.0,0.0,0.0,7.767374515533447,0,0.0,0.0,0.0,0.0,0.0,0.0,0.0,0.0,0.0,0.0,0.0,0.0,7,1.0053639279546016,-0.40558343069999997,9.7519485063,-0.23988046564999999,-0.42891345105,9.7328059255,0.14177473905,0.0163406441,-0.009162978,0.0039706238,0.0160352115,0.0313068415,0.0070249498,-0.06272,1.1328799999999999,0.54768,0.23841999999999997,0.35545999999999994,1.52866,-0.417248440875,9.7423772159,-0.0490528633,0.0161879278,0.01107193175,0.0054977868,0.08784999999999998,0.7441699999999999,1.03817,-8.00224,1.88288,361.98368000000005,40.565
1263,8988722,0,-712,16299,-423,77,-40,-21,-485,8115,4004,-770,16278,221,86,245,2,1663,2582,10849,-320,80,12288,39.47,0.9996644460893166,0.0,41.63,1.011438440661239,0.0,0.0,0.0,0.0,7.778452396392822,0,0.0,0.0,0.0,0.0,0.0,0.0,0.0,0.0,0.0,0.0,0.0,0.0,7,1.0055514433752777,-0.4259224228,9.750153889349999,-0.25304098995,-0.4606183505,9.7375915707,0.13220344865,0.0117591551,-0.006108652,-0.0032070423,0.0131336018,0.0374154935,0.0003054326,-0.06789999999999999,1.1360999999999999,0.56056,0.23281999999999997,0.36147999999999997,1.5188599999999999,-0.44327038664999996,9.743872730025,-0.06041877065000001,0.01244637845,0.01565342075,-0.00145080485,0.08245999999999999,0.74879,1.03971,-9.4144,2.3536,361.51296,40.55
1264,8988968,0,-639,16302,-456,108,-32,-8,-471,8089,3938,-682,16257,158,98,268,-28,1711,2572,10869,-288,64,12304,39.48,0.9997039230199852,0.0,41.64,1.0114285714285711,0.0,0.0,0.0,0.0,7.775682926177978,0,0.0,0.0,0.0,0.0,0.0,0.0,0.0,0.0,0.0,0.0,0.0,0.0,7,1.0055662472242781,-0.38225341035,9.7519485063,-0.2727817764,-0.4079762533,9.72502925205,0.0945164927,0.0164933604,-0.0048869216,-0.0012217304,0.0149661974,0.0409279684,-0.0042760564000000004,-0.06594,1.1324599999999998,0.5513199999999999,0.23953999999999998,0.36007999999999996,1.5216599999999998,-0.39511483182499996,9.738488879175,-0.08913264185,0.0157297789,0.018020523400000002,-0.0027488934000000002,0.08679999999999999,0.7462699999999999,1.03649,-8.47296,1.88288,361.98368000000005,40.56
1265,8989256,0,-619,16302,-441,117,-1,2,-474,8141,3910,-658,16252,184,132,254,2,1672,2584,10952,-288,128,12288,39.49,0.9995164075993092,0.0,41.63,1.0114976560572415,0.0,0.0,0.0,0.0,7.765712738037109,0,0.0,0.0,0.0,0.0,0.0,0.0,0.0,0.0,0.0,0.0,0.0,0.0,7,1.0055070318282753,-0.37028929735,9.7519485063,-0.26380869165,-0.39361931769999997,9.7220382238,0.1100698396,0.0178678071,-0.0001527163,0.0003054326,0.0201585516,0.0387899402,0.0003054326,-0.06635999999999999,1.13974,0.5474,0.23407999999999998,0.36175999999999997,1.53328,-0.381954307525,9.736993365050001,-0.07686942602499999,0.01901317935,0.019318611949999998,0.0003054326,0.08385999999999999,0.75075,1.04034,-8.47296,3.76576,361.51296,40.56
1266,8989504,0,-663,16308,-414,119,-54,19,-487,8102,3914,-715,16254,218,124,217,26,1684,2544,10925,-256,96,12256,39.48,0.999743399950654,0.0,41.64,1.0113792252652356,0.0,0.0,0.0,0.0,7.777898788452148,0,0.0,0.0,0.0,0.0,0.0,0.0,0.0,0.0,0.0,0.0,0.0,0.0,7,1.0055613126079448,-0.39661034595,9.7555377402,-0.2476571391,-0.42771703974999997,9.723234635099999,0.1304088317,0.0181732397,-0.0082466802,0.0029016097,0.0189368212,0.0331394371,0.0039706238,-0.06817999999999999,1.13428,0.54796,0.23575999999999997,0.35616,1.5294999999999999,-0.41216369285,9.739386187649998,-0.0586241537,0.01855503045,0.01244637845,0.00343611675,0.08378999999999999,0.74522,1.03873,-7.53152,2.82432,360.57152,40.56
1267,8989750,0,-683,16313,-395,117,-23,-6,-473,8091,3895,-747,16250,247,107,247,15,1703,2577,10907,-288,48,12288,39.48,0.9994769306686404,0.0,41.64,1.01146804835924,0.0,0.0,0.0,0.0,7.784545421600342,0,0.0,0.0,0.0,0.0,0.0,0.0,0.0,0.0,0.0,0.0,0.0,0.0,7,1.0054724895139402,-0.40857445895,9.75852876845,-0.23629123175,-0.44685962055,9.7208418125,0.14775679555,0.0178678071,-0.0035124749,-0.0009162978,0.0163406441,0.0377209261,0.0022907445,-0.06622,1.1327399999999999,0.5453,0.23841999999999997,0.36078,1.5269799999999998,-0.42771703974999997,9.739685290475,-0.044267218100000005,0.017104225600000002,0.017104225600000002,0.0006872233500000001,0.08609999999999998,0.7467599999999999,1.0361399999999998,-8.47296,1.41216,361.51296,40.56
1268,8990038,0,-624,16291,-437,93,-27,-17,-483,8100,3853,-695,16278,221,98,291,-4,1689,2620,10907,-176,144,12336,39.48,0.9995361460646436,0.0,41.64,1.0114187021959042,0.0,0.0,0.0,0.0,7.769589900970459,0,0.0,0.0,0.0,0.0,0.0,0.0,0.0,0.0,0.0,0.0,0.0,0.0,7,1.005477424130274,-0.3732803256,9.745368244149999,-0.26141586904999997,-0.41575292675,9.7375915707,0.13220344865,0.0142026159,-0.0041233401,-0.0025961771,0.0149661974,0.0444404433,-0.0006108652,-0.06762,1.134,0.5394199999999999,0.23645999999999998,0.36679999999999996,1.5269799999999998,-0.394516626175,9.741479907425,-0.06460621019999999,0.01458440665,0.0201585516,-0.00160352115,0.08442,0.7504,1.0332,-5.17792,4.23648,362.92512,40.56
1269,8990286,0,-632,16305,-438,84,-48,8,-446,8101,3897,-681,16276,191,94,248,13,1712,2576,10920,-176,80,12288,39.49,0.9994966691339748,0.0,41.64,1.0114187021959042,0.0,0.0,0.0,0.0,7.766820430755615,0,0.0,0.0,0.0,0.0,0.0,0.0,0.0,0.0,0.0,0.0,0.0,0.0,7,1.0054576856649395,-0.3780659708,9.75374312325,-0.2620140747,-0.40737804764999996,9.7363951594,0.11425727915,0.0128281692,-0.0073303824,0.0012217304,0.0143553322,0.0378736424,0.0019853119,-0.062439999999999996,1.13414,0.54558,0.23967999999999998,0.36063999999999996,1.5288,-0.392722009225,9.745069141325,-0.073878397775,0.013591750699999999,0.015271629999999998,0.00160352115,0.08861999999999999,0.74739,1.0371899999999998,-5.17792,2.3536,361.51296,40.565
1270,8990572,0,-650,16304,-421,113,-40,36,-443,8120,3850,-691,16257,223,121,223,23,1699,2566,10893,-208,48,12320,39.5,0.9996348383913152,0.0,41.65,1.011438440661239,0.0,0.0,0.0,0.0,7.762943267822266,0,0.0,0.0,0.0,0.0,0.0,0.0,0.0,0.0,0.0,0.0,0.0,0.0,7,1.005536639526277,-0.3888336725,9.7531449176,-0.25184457865,-0.41336010415,9.72502925205,0.13339985995,0.0172569419,-0.006108652,0.0054977868,0.0184786723,0.0340557349,0.0035124749,-0.06201999999999999,1.1367999999999998,0.5389999999999999,0.23786,0.35923999999999995,1.5250199999999998,-0.401096888325,9.739087084825,-0.05922235934999999,0.0178678071,0.013973541450000002,0.00450513085,0.08792,0.7480199999999999,1.0320099999999999,-6.11936,1.41216,362.4544,40.575
1271,8990818,0,-676,16308,-393,97,-27,6,-459,8157,3929,-718,16288,250,106,247,0,1692,2577,10899,-240,80,12208,39.5,0.9996447076239824,0.0,41.64,1.01146804835924,0.0,0.0,0.0,0.0,7.773467540740967,0,0.0,0.0,0.0,0.0,0.0,0.0,0.0,0.0,0.0,0.0,0.0,0.0,7,1.0055563779916112,-0.4043870194,9.7555377402,-0.23509482045,-0.42951165669999997,9.7435736272,0.1495514125,0.0148134811,-0.0041233401,0.0009162978,0.0161879278,0.0377209261,0.0,-0.06426,1.14198,0.55006,0.23687999999999998,0.36078,1.5258599999999998,-0.41694933805,9.749555683699999,-0.04277170397499999,0.01550070445,0.016798793000000003,0.0004581489,0.08631,0.7513799999999999,1.03796,-7.0608,2.3536,359.15936,40.57
1272,8991066,0,-665,16294,-411,73,-31,-14,-438,8125,3901,-712,16278,249,103,276,-5,1680,2574,10857,-272,48,12304,39.48,0.9996348383913152,0.0,41.64,1.0114187021959042,0.0,0.0,0.0,0.0,7.775682926177978,0,0.0,0.0,0.0,0.0,0.0,0.0,0.0,0.0,0.0,0.0,0.0,0.0,7,1.0055267702936097,-0.39780675725,9.7471628611,-0.24586252214999998,-0.4259224228,9.7375915707,0.14895320685,0.0111482899,-0.0047342053,-0.0021380282000000002,0.0157297789,0.0421496988,-0.0007635815,-0.06131999999999999,1.1375,0.54614,0.2352,0.36035999999999996,1.5199799999999999,-0.411864590025,9.7423772159,-0.048454657649999996,0.013439034400000001,0.01870774675,-0.00145080485,0.08694,0.74893,1.0330599999999999,-8.00224,1.41216,361.98368000000005,40.56
1273,8991354,0,-623,16308,-441,92,-13,-3,-517,8080,3879,-676,16264,179,108,280,-9,1716,2610,10934,-352,32,12288,39.49,0.999388107574636,0.0,41.64,1.0112509252405626,0.0,0.0,0.0,0.0,7.768482208251953,0,0.0,0.0,0.0,0.0,0.0,0.0,0.0,0.0,0.0,0.0,0.0,0.0,7,1.0053195164075994,-0.37268211995,9.7555377402,-0.26380869165,-0.4043870194,9.7292166916,0.10707881135,0.0140498996,-0.0019853119,-0.0004581489,0.0164933604,0.042760564,-0.0013744467,-0.07238,1.1312,0.54306,0.24023999999999998,0.36539999999999995,1.53076,-0.388534569675,9.7423772159,-0.07836494014999999,0.015271630000000001,0.02038762605,-0.0009162978,0.08392999999999999,0.7483,1.03691,-10.35584,0.94144,361.51296,40.565
1274,8991600,0,-607,16309,-455,74,-45,16,-485,8118,3863,-683,16270,200,126,250,5,1693,2660,10921,-272,32,12352,39.5,0.9995262768319764,0.0,41.65,1.0113890944979027,0.0,0.0,0.0,0.0,7.774021148681641,0,0.0,0.0,0.0,0.0,0.0,0.0,0.0,0.0,0.0,0.0,0.0,0.0,7,1.0054576856649395,-0.36311082955,9.75613594585,-0.27218357075,-0.40857445895,9.7328059255,0.11964113,0.0113010062,-0.0068722335,0.0024434608,0.0192422538,0.038179075,0.0007635815,-0.06789999999999999,1.13652,0.54082,0.23701999999999998,0.37239999999999995,1.52894,-0.38584264425000003,9.744470935675,-0.076271220375,0.015271630000000001,0.01565342075,0.00160352115,0.08456,0.7544599999999999,1.03488,-8.00224,0.94144,363.39584,40.575
1275,8991888,0,-669,16319,-426,117,-68,11,-468,8103,3901,-710,16260,223,126,243,25,1718,2644,10879,-272,16,12368,39.5,0.999575622995312,0.0,41.64,1.0112509252405626,0.0,0.0,0.0,0.0,7.7646050453186035,0,0.0,0.0,0.0,0.0,0.0,0.0,0.0,0.0,0.0,0.0,0.0,0.0,7,1.0054132741179374,-0.40019957985,9.76211800235,-0.2548356069,-0.4247260115,9.726823869,0.13339985995,0.0178678071,-0.0103847084,0.0016798793000000001,0.0192422538,0.0371100609,0.0038179075,-0.06552,1.13442,0.54614,0.24051999999999998,0.37016,1.5230599999999999,-0.412462795675,9.744470935675,-0.060717873475,0.018555030450000003,0.01336267625,0.0027488934,0.0875,0.75229,1.0346,-8.00224,0.47072,363.86656000000005,40.57
1276,8992136,0,-677,16300,-408,95,-42,-12,-446,8125,3857,-715,16261,221,108,256,3,1719,2614,10930,-288,32,12288,39.5,0.9993486306439674,0.0,41.65,1.0114779175919073,0.0,0.0,0.0,0.0,7.777898788452148,0,0.0,0.0,0.0,0.0,0.0,0.0,0.0,0.0,0.0,0.0,0.0,0.0,7,1.0054132741179374,-0.40498522505,9.750752095,-0.2440679052,-0.42771703974999997,9.72742207465,0.13220344865,0.0145080485,-0.0064140846,-0.0018325956,0.0164933604,0.0390953728,0.0004581489,-0.062439999999999996,1.1375,0.5399799999999999,0.24065999999999999,0.36595999999999995,1.5301999999999998,-0.4163511324,9.739087084825,-0.055932228274999995,0.01550070445,0.0163406441,-0.00068722335,0.08911,0.75173,1.0350899999999998,-8.47296,0.94144,361.51296,40.575
1277,8992382,0,-634,16324,-432,84,-15,-12,-483,8107,3887,-675,16290,231,103,245,-4,1694,2618,10918,-256,80,12288,39.49,0.999565753762645,0.0,41.65,1.0112904021712312,0.0,0.0,0.0,0.0,7.775682926177978,0,0.0,0.0,0.0,0.0,0.0,0.0,0.0,0.0,0.0,0.0,0.0,0.0,7,1.005428077966938,-0.3792623821,9.7651090306,-0.2584248408,-0.40378881375,9.7447700385,0.13818550515,0.0128281692,-0.0022907445,-0.0018325956,0.0157297789,0.0374154935,-0.0006108652,-0.06762,1.1349799999999999,0.54418,0.23715999999999998,0.36651999999999996,1.5285199999999999,-0.39152559792499997,9.754939534550001,-0.060119667825,0.01427897405,0.017562374500000002,-0.0012217304,0.08476999999999998,0.7507499999999999,1.0363499999999999,-7.53152,2.3536,361.51296,40.57
1278,8992670,0,-646,16365,-456,102,104,-9,-414,8140,3968,-692,16306,154,133,390,12,1743,2621,10852,-320,32,12352,39.5,0.9994177152726376,0.0,41.65,1.0113890944979027,0.0,0.0,0.0,0.0,7.7646050453186035,0,0.0,0.0,0.0,0.0,0.0,0.0,0.0,0.0,0.0,0.0,0.0,0.0,7,1.00540340488527,-0.3864408499,9.78963546225,-0.2727817764,-0.4139583098,9.754341328899999,0.0921236701,0.0155770626,0.0158824952,-0.0013744467,0.0203112679,0.059559357,0.0018325956,-0.05796,1.1396,0.5555199999999999,0.24402,0.36694,1.51928,-0.40019957985,9.771988395575,-0.09032905315,0.017944165249999998,0.037720926099999996,0.00022907445000000005,0.09303,0.75327,1.0373999999999999,-9.4144,0.94144,363.39584,40.575
1279,8992918,0,6590,32764,-14629,325,-19896,230,-444,8060,3737,8461,32764,-17066,281,-19707,135,1658,2698,10915,-3392,-144,12432,39.5,0.9987169997532692,0.0,41.64,1.0111423636812238,0.0,0.0,0.0,0.0,7.761281490325928,0,0.0,0.0,0.0,0.0,0.0,0.0,0.0,0.0,0.0,0.0,0.0,0.0,7,1.0049296817172464,3.9421752335,19.5996099166,-8.75115045385,5.06141800465,19.5996099166,-10.208977622899999,0.0496327975,-3.0384435048,0.035124749,0.0429132803,-3.0095801241,0.0206167005,-0.06215999999999999,1.1283999999999998,0.52318,0.23212,0.37771999999999994,1.5280999999999998,4.501796619075,19.5996099166,-9.480064038375,0.0462730389,-3.02401181445,0.02787072475,0.08498,0.7530599999999998,1.0256399999999999,-99.79264,-4.23648,365.74944000000005,40.57
1280,8993204,0,-5625,32764,-4606,-2951,-8580,-10654,-237,8223,3361,-4303,32764,-3735,-2884,-8262,-10595,1946,2812,10388,-3616,128,12240,39.5,0.997108314828522,0.0,41.64,1.0089810017271157,0.0,0.0,0.0,0.0,7.772913455963135,0,0.0,0.0,0.0,0.0,0.0,0.0,0.0,0.0,0.0,0.0,0.0,0.0,7,1.003044658277819,-3.3649067812499998,19.5996099166,-2.7553352239,-2.57407891195,19.5996099166,-2.23429810275,-0.4506658013,-1.310305854,-1.6270394602,-0.4404338092,-1.2617420706,-1.6180291985,-0.033179999999999994,1.15122,0.47053999999999996,0.27243999999999996,0.39368,1.4543199999999998,-2.9694928465999997,19.5996099166,-2.494816663325,-0.44554980525,-1.2860239623,-1.62253432935,0.11962999999999999,0.77245,0.9624299999999999,-106.38272,3.76576,360.10080000000005,40.57
1281,8993450,0,-16997,32764,2386,-288,127,-1973,482,8728,3380,-15604,32764,-63,-122,364,-1780,2728,3198,10301,-1808,496,12288,39.5,0.9952232913890944,0.0,41.63,1.0067406859116703,0.0,0.0,0.0,0.0,7.770698070526123,0,0.0,0.0,0.0,0.0,0.0,0.0,0.0,0.0,0.0,0.0,0.0,0.0,7,1.0009819886503823,-10.16770143305,19.5996099166,1.4273186809,-9.3344009626,19.5996099166,-0.037686955949999996,-0.0439822944,0.0193949701,-0.3013092599,-0.0186313886,0.0555887332,-0.271835014,0.06748,1.22192,0.47319999999999995,0.38192,0.44771999999999995,1.44214,-9.751051197825,19.5996099166,0.694815862475,-0.0313068415,0.03749185165,-0.28657213695,0.22469999999999998,0.8348199999999999,0.95767,-53.19136,14.59232,361.51296,40.565
1282,8993698,0,-4191,32764,-1345,4000,-7750,5278,803,8777,3437,-4754,32764,-593,3893,-7360,5111,2883,3356,10367,-1392,192,12288,39.51,0.9940093757710338,0.0,41.61,1.0060597088576364,0.0,0.0,0.0,0.0,7.766820430755615,0,0.0,0.0,0.0,0.0,0.0,0.0,0.0,0.0,0.0,0.0,0.0,0.0,7,1.000034542314335,-2.50707987915,19.5996099166,-0.80458659925,-2.8438696600999998,19.5996099166,-0.35473595045,0.6108652,-1.183551325,0.8060366314,0.5945245559,-1.123991968,0.7805330093,0.11241999999999999,1.22878,0.48117999999999994,0.40362,0.46984,1.45138,-2.6754747696249996,19.5996099166,-0.57966127485,0.60269487795,-1.1537716465,0.79328482035,0.25801999999999997,0.84931,0.9662799999999999,-40.95264,5.64864,361.51296,40.56
1283,8993986,0,1851,-2547,-572,-862,4895,1434,214,8405,3210,1990,-2592,-167,-841,5175,1506,2342,2932,10215,128,0,12336,39.48,0.9924500370096224,0.0,41.6,1.0042240315815445,0.0,0.0,0.0,0.0,7.777344703674316,0,0.0,0.0,0.0,0.0,0.0,0.0,0.0,0.0,0.0,0.0,0.0,0.0,7,0.9983370342955835,1.10727865815,-1.52362979055,-0.3421736318,1.1904292435,-1.5505490447999999,-0.09990034354999999,-0.1316414506,0.7475462885,0.2189951742,-0.1284344083,0.7903068525,0.2299907478,0.029959999999999997,1.1766999999999999,0.44939999999999997,0.32787999999999995,0.41047999999999996,1.4301,1.148853950825,-1.5370894176749998,-0.221036987675,-0.13003792944999998,0.7689265705,0.224492961,0.17891999999999997,0.7935899999999999,0.93975,3.76576,0.0,362.92512,40.54
1284,8994232,0,-563,-2872,81,-1041,9490,-3005,290,8377,3603,-537,-3016,146,-956,9754,-2861,2437,2844,10516,48,32,12352,39.47,0.9907130520602024,0.0,41.57,1.000680977054034,0.0,0.0,0.0,0.0,7.769036293029785,0,0.0,0.0,0.0,0.0,0.0,0.0,0.0,0.0,0.0,0.0,0.0,0.0,7,0.9956970145571182,-0.33678978095,-1.7180466267999999,0.048454657649999996,-0.32123643405,-1.8041882404,0.08733802489999999,-0.1589776683,1.449277687,-0.4589124815,-0.1459967828,1.4895947902,-0.4369213343,0.0406,1.17278,0.50442,0.34118,0.39815999999999996,1.4722399999999998,-0.3290131075,-1.7611174336,0.067896341275,-0.15248722555,1.4694362386,-0.44791690790000005,0.19089,0.7854699999999999,0.9883299999999999,1.41216,0.94144,363.39584,40.519999999999996
1285,8994520,0,-2244,-2546,965,1360,12500,298,399,8572,4997,-2307,-2569,1396,1495,12674,402,2694,2998,11205,128,128,12320,39.45,0.98853195164076,0.0,41.54,0.9986084381939304,0.0,0.0,0.0,0.0,7.754080772399902,0,0.0,0.0,0.0,0.0,0.0,0.0,0.0,0.0,0.0,0.0,0.0,0.0,7,0.9935701949173452,-1.3423734786,-1.5230315849,0.57726845225,-1.38006043455,-1.53679031485,0.8350950873999999,0.207694168,1.90895375,0.0455094574,0.2283108685,1.9355263862,0.0613919526,0.05585999999999999,1.2000799999999998,0.69958,0.37715999999999994,0.41972,1.5686999999999998,-1.3612169565749999,-1.529910949875,0.7061817698249999,0.21800251825,1.9222400681,0.053450705,0.21650999999999998,0.8098999999999998,1.13414,3.76576,3.76576,362.4544,40.495000000000005
1286,8994768,0,-1218,-2489,-1552,763,15248,149,-175,8570,5607,-1125,-2583,-1102,855,15368,301,1948,3045,12514,144,112,12240,39.43,0.9871305206020232,0.0,41.52,0.9969997532691832,0.0,0.0,0.0,0.0,7.773467540740967,0,0.0,0.0,0.0,0.0,0.0,0.0,0.0,0.0,0.0,0.0,0.0,0.0,7,0.9920651369356033,-0.7286144817,-1.48893386285,-0.9284151688,-0.67298135625,-1.54516519395,-0.6592226263,0.1165225369,2.3286181424,0.0227547287,0.1305724365,2.3469440984,0.0459676063,-0.024499999999999997,1.1998,0.7849799999999999,0.27271999999999996,0.42629999999999996,1.7519599999999997,-0.700797918975,-1.5170495283999998,-0.79381889755,0.1235474867,2.3377811204,0.0343611675,0.12410999999999998,0.8130499999999999,1.2684699999999998,4.23648,3.29504,360.10080000000005,40.475
1287,8995014,0,-531,-2245,-1271,-606,17170,-234,-1026,8536,6063,-552,-2359,-871,-501,17273,-26,1098,3050,12915,176,80,12288,39.43,0.985452751048606,0.0,41.52,0.9955884529977794,0.0,0.0,0.0,0.0,7.7640509605407715,0,0.0,0.0,0.0,0.0,0.0,0.0,0.0,0.0,0.0,0.0,0.0,0.0,7,0.9905206020231927,-0.31764720015,-1.34297168425,-0.76031938115,-0.3302095188,-1.41116712835,-0.52103712115,-0.0925460778,2.622138871,-0.0357356142,-0.0765108663,2.6378686499,-0.0039706238,-0.14364,1.1950399999999999,0.8488199999999999,0.15372,0.42699999999999994,1.8080999999999998,-0.323928359475,-1.3770694063,-0.64067825115,-0.08452847205,2.63000376045,-0.019853119000000002,0.005040000000000003,0.8110199999999999,1.3284599999999998,5.17792,2.3536,361.51296,40.475
1288,8995302,0,-697,-1953,-115,-286,17542,-40,-2206,8644,6013,-784,-2054,163,-146,17630,147,-64,3155,13034,144,80,12288,39.43,0.9836269430051814,0.0,41.52,0.9937527757216876,0.0,0.0,0.0,0.0,7.769036293029785,0,0.0,0.0,0.0,0.0,0.0,0.0,0.0,0.0,0.0,0.0,0.0,0.0,7,0.9886898593634346,-0.41694933805,-1.16829563445,-0.06879364975,-0.4689932296,-1.2287144051,0.09750752095,-0.0436768618,2.6789493346,-0.006108652,-0.0222965798,2.692388369,0.0224492961,-0.30883999999999995,1.21016,0.8418199999999999,-0.00896,0.4417,1.82476,-0.442971283825,-1.198505019775,0.014356935599999995,-0.0329867208,2.6856688518,0.00817032205,-0.15889999999999999,0.8259299999999999,1.3332899999999999,4.23648,2.3536,361.51296,40.475
1289,8995550,0,-1096,-1799,-571,256,17558,-513,-3815,8750,4552,-1161,-1888,-39,348,17660,-319,-1601,3289,11596,96,112,12208,39.44,0.9819294349864298,0.0,41.51,0.9921243523316062,0.0,0.0,0.0,0.0,7.77623701095581,0,0.0,0.0,0.0,0.0,0.0,0.0,0.0,0.0,0.0,0.0,0.0,0.0,7,0.9870268936590181,-0.6556333924,-1.07617196435,-0.34157542614999997,-0.69451675965,-1.1294122672,-0.02333002035,0.0390953728,2.6813927954,-0.0783434619,0.0531452724,2.696969858,-0.0487164997,-0.5340999999999999,1.2249999999999999,0.63728,-0.22413999999999998,0.46046,1.6234399999999998,-0.6750750760249999,-1.102792115775,-0.18245272324999998,0.0461203226,2.6891813267,-0.0635299808,-0.37911999999999996,0.84273,1.1303599999999998,2.82432,3.29504,359.15936,40.474999999999994
1290,8995836,0,-994,-1613,-194,1033,17130,-8,-3797,8708,3375,-1046,-1692,231,1136,17253,132,-1640,3234,10473,96,144,12224,39.44,0.9804391808536886,0.0,41.52,0.9904169750801876,0.0,0.0,0.0,0.0,7.760173797607422,0,0.0,0.0,0.0,0.0,0.0,0.0,0.0,0.0,0.0,0.0,0.0,0.0,7,0.9854280779669381,-0.5946164160999999,-0.96490571345,-0.1160518961,-0.6257231099,-1.0121639598,0.13818550515,0.1577559379,2.616030219,-0.0012217304,0.1734857168,2.6348143239,0.0201585516,-0.5315799999999999,1.21912,0.4725,-0.22959999999999997,0.45275999999999994,1.4662199999999999,-0.610169763,-0.988534836625,0.011066804525000001,0.16562082735,2.62542227145,0.009468410600000001,-0.38059,0.8359399999999999,0.9693599999999999,2.82432,4.23648,359.63008,40.480000000000004
1291,8996082,0,-618,-1470,-665,1367,16789,-467,-3247,8693,2427,-664,-1596,-95,1477,16881,-320,-1037,3208,9532,144,80,12224,39.45,0.9789982728842832,0.0,41.52,0.9891142363681223,0.0,0.0,0.0,0.0,7.774575233459473,0,0.0,0.0,0.0,0.0,0.0,0.0,0.0,0.0,0.0,0.0,0.0,0.0,7,0.9840562546262028,-0.3696910917,-0.8793623054999999,-0.39780675725,-0.3972085516,-0.9547362174,-0.05682953675,0.2087631821,2.5639539607,-0.0713185121,0.2255619751,2.5780038603,-0.048869216,-0.45458,1.21702,0.33977999999999997,-0.14517999999999998,0.44911999999999996,1.3344799999999999,-0.38344982164999997,-0.91704926145,-0.227318147,0.2171625786,2.5709789105,-0.06009386405,-0.29988,0.83307,0.8371299999999999,4.23648,2.3536,359.63008,40.485
1292,8996330,0,-1078,-1393,-647,645,16540,-968,-979,8711,1798,-1059,-1466,-359,799,16644,-817,1171,3218,8813,96,32,12416,39.44,0.9778534418948926,0.0,41.55,0.987850974586726,0.0,0.0,0.0,0.0,7.775129318237305,0,0.0,0.0,0.0,0.0,0.0,0.0,0.0,0.0,0.0,0.0,0.0,0.0,7,0.9828522082408093,-0.6448656907,-0.83330047045,-0.38703905555,-0.63349978335,-0.8769694829,-0.21475582834999998,0.0985020135,2.525927602,-0.1478293784,0.1220203237,2.5418100972,-0.1247692171,-0.13706,1.2195399999999998,0.25172,0.16393999999999997,0.45052,1.23382,-0.6391827370250001,-0.855134976675,-0.30089744195,0.1102611686,2.5338688496,-0.13629929775,0.013439999999999994,0.8350299999999999,0.7427699999999999,2.82432,0.94144,365.27872,40.495
1293,8996618,0,-680,-1166,-535,405,16016,-546,110,8673,2382,-701,-1253,-136,545,16116,-363,2194,3221,9384,16,80,12272,39.44,0.9766691339748336,0.0,41.55,0.986390328151986,0.0,0.0,0.0,0.0,7.767928600311279,0,0.0,0.0,0.0,0.0,0.0,0.0,0.0,0.0,0.0,0.0,0.0,0.0,7,0.9815297310634098,-0.406779842,-0.6975077879,-0.32004002275,-0.41934216065,-0.74955167945,-0.08135596839999999,0.0618501015,2.4459042608,-0.0833830998,0.0832303835,2.4611758908,-0.0554360169,0.015399999999999999,1.2142199999999999,0.33347999999999994,0.30716,0.45093999999999995,1.3137599999999998,-0.413061001325,-0.723529733675,-0.20069799557499998,0.0725402425,2.4535400758,-0.06940955835,0.16128,0.8325799999999999,0.8236199999999999,0.47072,2.3536,361.04224,40.495
1294,8996864,0,-685,-1047,-915,203,15493,-688,693,8754,3433,-647,-1107,-397,303,15607,-514,2760,3282,10288,144,64,12368,39.44,0.9753269183320996,0.0,41.55,0.985393535652603,0.0,0.0,0.0,0.0,7.762943267822266,0,0.0,0.0,0.0,0.0,0.0,0.0,0.0,0.0,0.0,0.0,0.0,0.0,7,0.9803602269923513,-0.40977087025,-0.62632131555,-0.54735816975,-0.38703905555,-0.66221365455,-0.23748764305,0.0310014089,2.3660336359,-0.1050688144,0.0462730389,2.3834432941,-0.0784961782,0.09702,1.22556,0.48061999999999994,0.38639999999999997,0.45947999999999994,1.4403199999999998,-0.3984049629,-0.6442674850500001,-0.3924229064,0.0386372239,2.374738465,-0.0917824963,0.24170999999999998,0.8425199999999999,0.9604699999999999,4.23648,1.88288,363.86656000000005,40.495
1295,8997152,0,-824,-934,-746,-166,14980,-360,331,8844,5604,-904,-1043,-411,-52,15119,-178,2479,3349,12453,112,80,12288,39.45,0.974418948926721,0.0,41.57,0.9842684431285468,0.0,0.0,0.0,0.0,7.762943267822266,0,0.0,0.0,0.0,0.0,0.0,0.0,0.0,0.0,0.0,0.0,0.0,0.0,7,0.9793436960276338,-0.4929214556,-0.5587240770999999,-0.4462614149,-0.5407779076,-0.62392849295,-0.24586252214999998,-0.0253509058,2.287690174,-0.054977868,-0.0079412476,2.3089177397,-0.0271835014,0.04634,1.23816,0.7845599999999999,0.34706,0.46885999999999994,1.7434199999999997,-0.5168496816,-0.591326285025,-0.346061968525,-0.016646076699999998,2.29830395685,-0.0410806847,0.19669999999999999,0.85351,1.2639899999999997,3.29504,2.3536,361.51296,40.510000000000005
1296,8997400,0,-594,-810,-933,-173,14593,59,-579,8902,6245,-666,-902,-388,-66,14763,219,1699,3450,13132,16,128,12352,39.45,0.973432025660005,0.0,41.58,0.983113742906489,0.0,0.0,0.0,0.0,7.770143985748291,0,0.0,0.0,0.0,0.0,0.0,0.0,0.0,0.0,0.0,0.0,0.0,0.0,7,0.978272884283247,-0.35533415609999996,-0.4845465765,-0.55812587145,-0.3984049629,-0.5395814963,-0.2321037922,-0.0264199199,2.2285889659,0.0090102617,-0.0100792758,2.2545507369,0.0334448697,-0.08106,1.2462799999999998,0.8743,0.23786,0.483,1.83848,-0.3768695595,-0.5120640364,-0.395114831825,-0.01824959785,2.2415698514000004,0.0212275657,0.0784,0.8646399999999999,1.35639,0.47072,3.76576,363.39584,40.515
1297,8997646,0,-794,-732,-906,-549,14351,413,-1691,8966,6502,-843,-819,-466,-477,14481,579,599,3551,13417,112,96,12368,39.44,0.9726523562792992,0.0,41.57,0.9822649888971132,0.0,0.0,0.0,0.0,7.771805763244629,0,0.0,0.0,0.0,0.0,0.0,0.0,0.0,0.0,0.0,0.0,0.0,0.0,7,0.9774586725882062,-0.4749752861,-0.4378865358,-0.5419743189,-0.50428736295,-0.48993042735,-0.2787638329,-0.0838412487,2.1916316213,0.0630718319,-0.0728456751,2.2114847403,0.0884227377,-0.23673999999999998,1.25524,0.9102799999999999,0.08385999999999999,0.49713999999999997,1.87838,-0.489631324525,-0.463908481575,-0.41036907590000005,-0.0783434619,2.2015581808,0.07574728480000001,-0.07644,0.8761899999999999,1.3943299999999998,3.29504,2.82432,363.86656000000005,40.504999999999995
1298,8997934,0,-685,-617,-758,-337,13829,1076,-3795,9219,5598,-624,-700,-303,-251,13944,1227,-1471,3792,12683,96,96,12304,39.45,0.9717641253392548,0.0,41.59,0.9832815198618308,0.0,0.0,0.0,0.0,7.762943267822266,0,0.0,0.0,0.0,0.0,0.0,0.0,0.0,0.0,0.0,0.0,0.0,0.0,7,0.9775228226005428,-0.40977087025,-0.36909288605,-0.45343988269999996,-0.3732803256,-0.418743955,-0.18125631195,-0.0514653931,2.1119137127,0.1643227388,-0.0383317913,2.1294760872,0.1873829001,-0.5313,1.29066,0.78372,-0.20593999999999998,0.5308799999999999,1.7756199999999998,-0.39152559792499997,-0.39391842052500003,-0.31734809732499997,-0.044898592200000004,2.12069489995,0.17585281945,-0.36862,0.9107699999999999,1.2796699999999999,2.82432,2.82432,361.98368000000005,40.52
1299,8998182,0,-712,-516,-764,370,12908,1222,-4345,9327,4584,-783,-597,-332,435,13063,1350,-2142,3879,11799,144,128,12288,39.45,0.9710535405872194,0.0,41.6,0.9825413274117938,0.0,0.0,0.0,0.0,7.762943267822266,0,0.0,0.0,0.0,0.0,0.0,0.0,0.0,0.0,0.0,0.0,0.0,0.0,7,0.9767974339995066,-0.4259224228,-0.3086741154,-0.4570291166,-0.46839502395,-0.35712877305,-0.1986042758,0.056505031,1.9712620004,0.1866193186,0.0664315905,1.9949330269,0.206167005,-0.6083,1.30578,0.64176,-0.29988,0.54306,1.6518599999999999,-0.44715872337499996,-0.332901444225,-0.3278166962,0.06146831075,1.9830975136500002,0.1963931618,-0.45409,0.92442,1.1468099999999999,4.23648,3.76576,361.51296,40.525000000000006
1300,8998468,0,-722,-376,-539,1026,12186,1075,-4486,9431,3566,-751,-461,-17,1105,12335,1173,-2353,3989,10677,-32,112,12352,39.44,0.970165309647175,0.0,41.61,0.9817715272637552,0.0,0.0,0.0,0.0,7.762389183044434,0,0.0,0.0,0.0,0.0,0.0,0.0,0.0,0.0,0.0,0.0,0.0,0.0,7,0.9759684184554651,-0.4319044793,-0.2249253244,-0.32243284535,-0.44925244315,-0.27577280465,-0.010169496049999999,0.1566869238,1.8610008318,0.1641700225,0.1687515115,1.8837555605,0.1791362199,-0.6280399999999999,1.3203399999999998,0.49923999999999996,-0.32942,0.55846,1.4947799999999998,-0.440578461225,-0.250349064525,-0.1663011707,0.16271921765,1.8723781961500001,0.1716531212,-0.47873,0.9393999999999999,0.9970099999999998,-0.94144,3.29504,363.39584,40.525
1301,8998714,0,-626,-303,-588,1656,11699,729,-3579,9680,1662,-642,-397,-176,1745,11832,812,-1538,4190,8823,96,48,12272,39.45,0.96980014803849,0.0,41.62,0.9812385886997286,0.0,0.0,0.0,0.0,7.765712738037109,0,0.0,0.0,0.0,0.0,0.0,0.0,0.0,0.0,0.0,0.0,0.0,0.0,7,0.9755193683691092,-0.3744767369,-0.18125631195,-0.3517449222,-0.3840480273,-0.23748764305,-0.1052841944,0.2528981928,1.7866279937,0.1113301827,0.2664899435,1.8069392616,0.1240056356,-0.50106,1.3552,0.23267999999999997,-0.21531999999999998,0.5865999999999999,1.23522,-0.37926238209999996,-0.2093719775,-0.2285145583,0.25969406814999996,1.79678362765,0.11766790915,-0.35818999999999995,0.9708999999999999,0.73395,2.82432,1.41216,361.04224,40.535
1302,8998962,0,-438,-282,-611,1831,11243,134,-2715,9826,1118,-455,-393,-116,1912,11416,206,-761,4230,8269,32,64,12432,39.46,0.9691389094497904,0.0,41.64,0.980587219343696,0.0,0.0,0.0,0.0,7.777898788452148,0,0.0,0.0,0.0,0.0,0.0,0.0,0.0,0.0,0.0,0.0,0.0,0.0,7,0.9748630643967432,-0.2620140747,-0.16869399329999998,-0.36550365214999997,-0.27218357075,-0.23509482045,-0.0693918554,0.2796235453,1.7169893609,0.0204639842,0.2919935656,1.7434092808,0.0314595578,-0.3801,1.37564,0.15652,-0.10654,0.5922,1.15766,-0.26709882272499996,-0.201894406875,-0.21744775377499997,0.28580855545,1.73019932085,0.025961771,-0.24331999999999998,0.9839199999999999,0.65709,0.94144,1.88288,365.74944000000005,40.55
1303,8999250,0,-255,-244,-456,1564,10587,-894,-1652,9893,955,-284,-325,15,1650,10755,-790,263,4398,7904,160,32,12288,39.45,0.9688033555391068,0.0,41.65,0.9800740192450036,0.0,0.0,0.0,0.0,7.769589900970459,0,0.0,0.0,0.0,0.0,0.0,0.0,0.0,0.0,0.0,0.0,0.0,0.0,7,0.9744386873920552,-0.15254244075,-0.1459621786,-0.2727817764,-0.1698904046,-0.19441683625,0.00897308475,0.2388482932,1.6168074681,-0.1365283722,0.251981895,1.6424638065,-0.120645877,-0.23127999999999999,1.38502,0.13369999999999999,0.03682,0.6157199999999999,1.10656,-0.161216422675,-0.170189507425,-0.131904345825,0.2454150941,1.6296356372999998,-0.1285871246,-0.09723,1.00037,0.62013,4.7072,0.94144,361.51296,40.55
1304,8999496,0,-192,-232,-442,1289,9902,-1743,-603,10000,1160,-255,-319,113,1394,10068,-1661,2216,4606,8371,96,-16,12352,39.46,0.968438193930422,0.0,41.64,0.9797088576363188,0.0,0.0,0.0,0.0,7.7646050453186035,0,0.0,0.0,0.0,0.0,0.0,0.0,0.0,0.0,0.0,0.0,0.0,0.0,7,0.9740735257833704,-0.11485548479999999,-0.1387837108,-0.2644068973,-0.15254244075,-0.19082760235,0.06759723845,0.1968513107,1.5121968026000001,-0.2661845109,0.2128865222,1.5375477084,-0.2536617743,-0.08442,1.4,0.1624,0.31023999999999996,0.64484,1.17194,-0.13369896277499999,-0.164805656575,-0.098404829425,0.20486891645,1.5248722555,-0.2599231426,0.11290999999999998,1.0224199999999999,0.66717,2.82432,-0.47072,363.39584,40.55
1305,8999784,0,-24,-242,-479,728,9189,-2518,989,10413,2238,-38,-327,-28,831,9347,-2417,2903,4732,8964,48,-16,12304,39.46,0.9683296323710832,0.0,41.65,0.9796101653096472,0.0,0.0,0.0,0.0,7.779560565948486,0,0.0,0.0,0.0,0.0,0.0,0.0,0.0,0.0,0.0,0.0,0.0,0.0,7,0.9739698988403651,-0.014356935599999999,-0.1447657673,-0.28654050635,-0.0227318147,-0.19561324755,-0.0167497582,0.1111774664,1.4033100807,-0.3845396434,0.1269072453,1.4274392561,-0.3691152971,0.13846,1.45782,0.31332,0.40641999999999995,0.66248,1.2549599999999999,-0.01854437515,-0.170189507425,-0.151645132275,0.11904235585,1.4153746684000001,-0.37682747025,0.27243999999999996,1.06015,0.78414,1.41216,-0.47072,361.98368000000005,40.555
1306,9000032,0,4,-256,-716,-140,8838,-3235,1458,10598,3136,7,-362,-231,-28,8993,-3102,3412,5009,9657,48,80,12192,39.47,0.9679842092277324,0.0,41.66,0.9793831729583024,0.0,0.0,0.0,0.0,7.774575233459473,0,0.0,0.0,0.0,0.0,0.0,0.0,0.0,0.0,0.0,0.0,0.0,0.0,7,0.9736836910930173,0.0023928226,-0.1531406464,-0.4283152454,0.00418743955,-0.2165504453,-0.13818550515,-0.021380282,1.3497066594,-0.4940372305,-0.0042760564000000004,1.3733776859,-0.4737259626,0.20412,1.48372,0.43904,0.47767999999999994,0.7012599999999999,1.35198,0.003290131075,-0.18484554585000001,-0.28325037527499997,-0.0128281692,1.36154217265,-0.48388159654999996,0.3409,1.09249,0.89551,1.41216,2.3536,358.68864,40.565
1307,9000278,0,-31,-288,-828,-1268,9067,-3495,1688,10937,3975,-41,-359,-335,-1193,9197,-3336,3691,5605,11356,112,80,12352,39.45,0.967895386133728,0.0,41.67,0.9792450037009622,0.0,0.0,0.0,0.0,7.770143985748291,0,0.0,0.0,0.0,0.0,0.0,0.0,0.0,0.0,0.0,0.0,0.0,0.0,7,0.9735701949173452,-0.01854437515,-0.1722832272,-0.4953142782,-0.02452643165,-0.21475582834999998,-0.20039889275,-0.1936442684,1.3846786921,-0.5337434685,-0.1821905459,1.4045318111,-0.5094615768,0.23631999999999997,1.5311799999999998,0.5565,0.51674,0.7847,1.58984,-0.0215354034,-0.19351952777499998,-0.347856585475,-0.18791740715,1.3946052516,-0.5216025226500001,0.37653,1.15794,1.07317,3.29504,2.3536,363.39584,40.56
1308,9000566,0,-31008,32764,31527,-4604,7713,-1311,1159,11720,5602,-15829,23230,19006,-3453,8746,-1478,3367,5939,12129,-2480,640,13216,39.45,0.9678065630397236,0.0,41.67,0.9793042190969652,0.0,0.0,0.0,0.0,7.785099506378174,0,0.0,0.0,0.0,0.0,0.0,0.0,0.0,0.0,0.0,0.0,0.0,0.0,7,0.9735553910683443,-18.5491607952,19.5996099166,18.85962952755,-9.46899723385,13.8963172495,11.3694965839,-0.7031058452,1.1779008219,-0.2002110693,-0.5273293839,1.3356567598,-0.2257146914,0.16226,1.6407999999999998,0.78428,0.47137999999999997,0.83146,1.69806,-14.009079014525,16.747963583049998,15.114563055725,-0.6152176145499999,1.2567787908499999,-0.21296288035,0.31682,1.23613,1.2411699999999999,-72.9616,18.8288,388.81472,40.56
1309,9000814,0,-2505,1318,2185,-1337,-386,-1772,742,12300,5943,-2241,1496,6696,-1508,-172,-1749,2831,6592,12833,-32,96,12496,39.45,0.9681519861830744,0.0,41.68,0.9790278805822848,0.0,0.0,0.0,0.0,7.761281490325928,0,0.0,0.0,0.0,0.0,0.0,0.0,0.0,0.0,0.0,0.0,0.0,0.0,7,0.9735899333826796,-1.49850515325,0.7884350467,1.30707934525,-1.34057886165,0.8949156523999999,4.0055850324,-0.2041816931,-0.0589484918,-0.2706132836,-0.2302961804,-0.0262672036,-0.2671008087,0.10387999999999999,1.7219999999999998,0.83202,0.39633999999999997,0.9228799999999999,1.7966199999999999,-1.41954200745,0.84167534955,2.656332188825,-0.21723893675,-0.0426078477,-0.26885704615,0.25011,1.3224399999999998,1.31432,-0.94144,2.82432,367.63232000000005,40.565
1310,9001100,0,-9522,-15465,8955,-3602,22364,-684,490,12566,6130,-9678,-15063,13052,-3374,22306,-607,2146,7190,13214,400,384,12480,39.46,0.9681717246484086,0.0,41.67,0.9792844806316308,0.0,0.0,0.0,0.0,7.778452396392822,0,0.0,0.0,0.0,0.0,0.0,0.0,0.0,0.0,0.0,0.0,0.0,0.0,7,0.9737281026400197,-5.6961141993,-9.251250377249999,5.35693159575,-5.7894342807,-9.010771705949999,7.8077801438,-0.5500841126,3.4153473332,-0.1044579492,-0.5152647962,3.4064897878,-0.0926987941,0.0686,1.75924,0.8582,0.30044,1.0066,1.8499599999999998,-5.74277424,-9.131011041599999,6.582355869775,-0.5326744543999999,3.4109185605,-0.09857837165,0.18452,1.38292,1.35408,11.768,11.29728,367.1616,40.565
1311,9001346,0,-1891,-445,-3957,6484,19384,477,-1867,12212,7157,-1829,-525,-3193,6661,19433,419,874,6871,13876,80,192,12192,39.44,0.968013816925734,0.0,41.68,0.9791857883049592,0.0,0.0,0.0,0.0,7.767374515533447,0,0.0,0.0,0.0,0.0,0.0,0.0,0.0,0.0,0.0,0.0,0.0,0.0,7,0.9735998026153465,-1.13120688415,-0.26620151425,-2.36709975705,-1.09411813385,-0.31405796625,-1.9100706404499999,0.9902124892,2.9602527592,0.0728456751,1.0172432743,2.9677358579,0.0639881297,-0.26138,1.7096799999999999,1.0019799999999999,0.12235999999999998,0.9619399999999999,1.94264,-1.112662509,-0.29012974025,-2.13858519875,1.00372788175,2.9639943085500002,0.06841690240000001,-0.06951000000000002,1.33581,1.4723099999999998,2.3536,5.64864,358.68864,40.56
1312,9001594,0,-7574,358,-5008,9596,21241,-4722,-3758,11579,6489,-7875,521,-3378,9892,21266,-4842,-992,6301,13785,16,272,12160,39.44,0.9678164322723908,0.0,41.67,0.9789094497902788,0.0,0.0,0.0,0.0,7.762389183044434,0,0.0,0.0,0.0,0.0,0.0,0.0,0.0,0.0,0.0,0.0,0.0,0.0,7,0.9733629410313348,-4.5308095931,0.2141576227,-2.9958138952,-4.71086949375,0.31166514365,-2.0207386857,1.4654656148,3.2438469283,-0.7211263686,1.5106696396,3.2476648358,-0.7394523246,-0.5261199999999999,1.62106,0.9084599999999999,-0.13887999999999998,0.8821399999999999,1.9298999999999997,-4.620839543424999,0.26291138317499996,-2.50827629045,1.4880676272,3.24575588205,-0.7302893466,-0.33249999999999996,1.2515999999999998,1.4191799999999999,0.47072,8.00224,357.7472,40.555
1313,9001882,0,-12354,662,1073,1438,15893,-13838,-4855,10623,4768,-11695,525,-313,1945,15895,-13640,-2513,4347,10709,-16,320,12368,39.42,0.967638786084382,0.0,41.66,0.9788403651616088,0.0,0.0,0.0,0.0,7.771251678466797,0,0.0,0.0,0.0,0.0,0.0,0.0,0.0,0.0,0.0,0.0,0.0,0.0,7,0.9732395756229955,-7.3902326001,0.3960121403,0.64187466245,-6.99601507675,0.31405796625,-0.18723836845,0.2196060394,2.4271201559,-2.1132881594,0.2970332035,2.4274255885,-2.083050332,-0.6797,1.4872199999999998,0.6675199999999999,-0.35181999999999997,0.6085799999999999,1.4992599999999998,-7.1931238384250005,0.35503505327499996,0.22731814700000003,0.25831962145,2.4272728721999997,-2.0981692457000003,-0.51576,1.0478999999999998,1.0833899999999999,-0.47072,9.4144,363.86656000000005,40.54
1314,9002128,0,-9063,644,4104,4,1831,-5424,-3290,8731,2604,-9328,623,5911,-12,2213,-5527,-1457,3476,9895,0,272,12416,39.42,0.968872440167777,0.0,41.66,0.9801825808043424,0.0,0.0,0.0,0.0,7.750757217407227,0,0.0,0.0,0.0,0.0,0.0,0.0,0.0,0.0,0.0,0.0,0.0,0.0,7,0.9745275104860597,-5.42153780595,0.3852444386,2.4550359876,-5.5800623032,0.37268211995,3.53599359715,0.0006108652,0.2796235453,-0.8283332112,-0.0018325956,0.3379611719,-0.8440629901,-0.46059999999999995,1.22234,0.36456,-0.20398,0.48663999999999996,1.3853,-5.500800054575,0.378963279275,2.9955147923750003,-0.0006108652,0.3087923586,-0.83619810065,-0.33229,0.85449,0.87493,0.0,8.00224,365.27872,40.54
1315,9002416,0,-12078,267,1361,2817,-8492,7130,-3271,8748,2674,-12296,240,1765,2711,-8053,6907,-976,3191,9801,-16,304,12352,39.42,0.9691586479151246,0.0,41.61,0.9801825808043424,0.0,0.0,0.0,0.0,7.754080772399902,0,0.0,0.0,0.0,0.0,0.0,0.0,0.0,0.0,0.0,0.0,0.0,0.0,7,0.9746706143597335,-7.2251278407,0.15972090854999998,0.81415788965,-7.3555366723999995,0.143569356,1.05583297225,0.4302018171,-1.2968668196,1.088867219,0.4140138893,-1.2298243639,1.0548114841,-0.45793999999999996,1.2247199999999998,0.37435999999999997,-0.13663999999999998,0.44673999999999997,1.37214,-7.29033225655,0.15164513227499998,0.9349954309499999,0.4221078532,-1.2633455917499998,1.07183935155,-0.29728999999999994,0.8357299999999999,0.87325,-0.47072,8.94368,363.39584,40.515
1316,9002664,0,-11940,629,1286,-875,-6739,12973,-4135,9283,2951,-11765,734,1876,-1069,-6216,12869,-2481,4341,10427,-16,320,12368,39.43,0.9693955094991364,0.0,41.57,0.9791463113742906,0.0,0.0,0.0,0.0,7.767374515533447,0,0.0,0.0,0.0,0.0,0.0,0.0,0.0,0.0,0.0,0.0,0.0,0.0,7,0.9742709104367135,-7.142575461,0.37627135385,0.7692924659,-7.03788947225,0.4390829471,1.1222337994,-0.1336267625,-1.0291551457,1.9811885599,-0.1632537247,-0.9492845208,1.9653060647,-0.5789,1.2996199999999998,0.41313999999999995,-0.34734,0.60774,1.4597799999999999,-7.090232466625,0.40767715047499997,0.94576313265,-0.1484402436,-0.9892198332500001,1.9732473123,-0.46312,0.9536799999999999,0.9364599999999998,-0.47072,9.4144,363.86656000000005,40.5
1317,9002910,0,-10244,900,1008,-4462,-6069,11953,-4891,10404,3542,-10484,1124,8876,-5066,-5989,12044,-2923,5580,10996,96,240,12480,39.42,0.9699481865284976,0.0,41.54,0.9801036269430052,0.0,0.0,0.0,0.0,7.762943267822266,0,0.0,0.0,0.0,0.0,0.0,0.0,0.0,0.0,0.0,0.0,0.0,0.0,7,0.9750259067357514,-6.1280186786,0.538385085,0.6029912951999999,-6.2715880346,0.6723831506,5.3096733494,-0.6814201306,-0.9268352247,1.8254179339,-0.7736607758,-0.9146179207,1.8393151172,-0.6847399999999999,1.4565599999999999,0.49587999999999993,-0.40922,0.7811999999999999,1.53944,-6.1998033566,0.6053841178,2.9563323222999998,-0.7275404532,-0.9207265727,1.83236652555,-0.5469799999999999,1.1188799999999999,1.01766,2.82432,7.0608,367.1616,40.480000000000004
1318,9003198,0,-11387,-719,-1702,-5443,-3482,-2345,-4857,12425,4666,-11204,-772,-864,-5480,-3177,-2237,-2793,6699,11491,144,336,12320,39.42,0.9705206020231928,0.0,41.47,0.9809918578830495,0.0,0.0,0.0,0.0,7.781775951385498,0,0.0,0.0,0.0,0.0,0.0,0.0,0.0,0.0,0.0,0.0,0.0,0.0,7,0.9757562299531212,-6.81176773655,-0.43010986235,-1.0181460163,-6.7022961026,-0.4618147618,-0.5168496816,-0.8312348209,-0.5317581566,-0.3581197235,-0.836885324,-0.4851796851,-0.3416263631,-0.6799799999999999,1.7394999999999998,0.6532399999999999,-0.39102,0.9378599999999999,1.6087399999999998,-6.757031919575001,-0.445962312075,-0.76749784895,-0.83406007245,-0.50846892085,-0.3498730433,-0.5355,1.3386799999999999,1.13099,4.23648,9.88512,362.4544,40.445
1319,9003446,0,-17606,-3483,4144,-10823,11993,-3826,-4846,12360,4721,-20023,-3935,6892,-10732,12454,-3299,-2869,6624,11316,192,464,12320,39.39,0.9703725635331852,0.0,41.42,0.9811695040710584,0.0,0.0,0.0,0.0,7.7646050453186035,0,0.0,0.0,0.0,0.0,0.0,0.0,0.0,0.0,0.0,0.0,0.0,0.0,7,0.9757710338021218,-10.5320086739,-2.08355027895,2.4789642136,-11.97787172995,-2.35393923275,4.1228333398,-1.6528485149,1.8315265859,-0.5842925638,-1.6389513316,1.9019288002,-0.5038110737,-0.6784399999999999,1.7304,0.66094,-0.40165999999999996,0.92736,1.5842399999999999,-11.254940201924999,-2.21874475585,3.3008987766999995,-1.64589992325,1.86672769305,-0.5440518187500001,-0.5400499999999999,1.3288799999999998,1.12259,5.64864,13.65088,362.4544,40.405
1320,9003732,0,-8829,-1228,11186,-7836,-4446,8067,-4564,12337,2399,-9140,-1302,10693,-7809,-4083,8167,-2570,6609,9686,112,224,12544,39.38,0.9720305946212682,0.0,41.37,0.9828374043918086,0.0,0.0,0.0,0.0,7.774021148681641,0,0.0,0.0,0.0,0.0,0.0,0.0,0.0,0.0,0.0,0.0,0.0,0.0,7,0.9774339995065384,-5.28155768385,-0.7345965382,6.6915284009,-5.467599641,-0.7788637562999999,6.39661301545,-1.1966849268,-0.6789766698,1.2319623921,-1.1925615867,-0.6235406529,1.2472340221,-0.63896,1.72718,0.33586,-0.35979999999999995,0.92526,1.35604,-5.374578662425,-0.75673014725,6.544070708175,-1.19462325675,-0.65125866135,1.2395982071,-0.49937999999999994,1.32622,0.84595,3.29504,6.59008,369.04448,40.375
1321,9003978,0,-15757,-460,-629,-7713,-32666,2778,-4867,12669,3632,-15733,-453,-280,-8039,-32169,2641,-2536,6920,9771,64,384,12432,39.37,0.9716062176165804,0.0,41.33,0.9829064890204786,0.0,0.0,0.0,0.0,7.774021148681641,0,0.0,0.0,0.0,0.0,0.0,0.0,0.0,0.0,0.0,0.0,0.0,0.0,7,0.9772563533185294,-9.42592642705,-0.275174599,-0.37627135385,-9.411569491449999,-0.27098715945,-0.167497582,-1.1779008219,-4.9886306558,0.4242458814,-1.2276863357,-4.9127306547,0.4033237483,-0.68138,1.7736599999999998,0.5084799999999999,-0.35503999999999997,0.9687999999999999,1.36794,-9.418747959249998,-0.273080879225,-0.271884467925,-1.2027935788000002,-4.95068065525,0.41378481485,-0.51821,1.3712299999999997,0.93821,1.88288,11.29728,365.74944000000005,40.349999999999994
1322,9004226,0,-9065,110,-10009,-3294,-17644,-4672,-3942,12914,5957,-10075,-231,-11085,-3150,-17165,-4679,-1191,7305,13251,96,352,12064,39.37,0.9715470022205772,0.0,41.32,0.9828275351591412,0.0,0.0,0.0,0.0,7.773467540740967,0,0.0,0.0,0.0,0.0,0.0,0.0,0.0,0.0,0.0,0.0,0.0,0.0,7,0.9771872686898593,-5.4227342172499995,0.0658026215,-5.98744035085,-6.02692192375,-0.13818550515,-6.63110963025,-0.5030474922,-2.6945263972,-0.7134905536,-0.481056345,-2.6213752895,-0.7145595677,-0.5518799999999999,1.8079599999999998,0.8339799999999999,-0.16673999999999997,1.0227,1.8551399999999998,-5.724828070499999,-0.036191441825,-6.30927499055,-0.49205191859999997,-2.65795084335,-0.71402506065,-0.35930999999999996,1.41533,1.34456,2.82432,10.35584,354.92288,40.345
1323,9004514,0,-12148,-1239,-12120,-2752,15268,-4620,-2916,12924,6658,-14337,-1478,-14159,-2982,15612,-4268,-1008,7333,13443,176,288,12208,39.36,0.972691833209968,0.0,41.29,0.9835183814458426,0.0,0.0,0.0,0.0,7.766266822814941,0,0.0,0.0,0.0,0.0,0.0,0.0,0.0,0.0,0.0,0.0,0.0,0.0,7,0.9781051073279052,-7.2670022362,-0.74117680035,-7.250252478,-8.57647440405,-0.8841479507,-8.46999379835,-0.4202752576,2.3316724684,-0.705549306,-0.4554000066,2.3842068756,-0.6517931684,-0.40824,1.8093599999999999,0.93212,-0.14112,1.0266199999999999,1.8820199999999998,-7.921738320125,-0.812662375525,-7.860123138175,-0.43783763210000004,2.3579396719999997,-0.6786712372,-0.27468,1.4179899999999999,1.4070699999999998,5.17792,8.47296,359.15936,40.325
1324,9004760,0,-12623,-1410,-10316,179,-7760,6718,-4011,13127,5612,-12922,-1474,-10181,90,-7307,6637,-2027,7378,12621,80,352,12144,39.36,0.9730273871206514,0.0,41.28,0.9848605970885764,0.0,0.0,0.0,0.0,7.767928600311279,0,0.0,0.0,0.0,0.0,0.0,0.0,0.0,0.0,0.0,0.0,0.0,0.0,7,0.9789439921046139,-7.551149919949999,-0.8434699665,-6.1710894854,-7.7300134093,-0.8817551281,-6.09033172265,0.0273362177,-1.185078488,1.0259481034,0.013744467,-1.1158980041,1.0135780831,-0.5615399999999999,1.8377799999999997,0.7856799999999999,-0.28378,1.0329199999999998,1.76694,-7.6405816646249995,-0.8626125472999999,-6.1307106040249995,0.020540342349999997,-1.15048824605,1.01976309325,-0.4226599999999999,1.4353499999999997,1.27631,2.3536,10.35584,357.27648,40.32
1325,9005048,0,-13842,-1049,-3552,8076,32763,7199,-3439,13653,5686,-13667,-962,-1414,8189,32763,7345,-1551,8127,12177,48,336,12304,39.36,0.9755539106834444,0.0,41.27,0.986015297310634,0.0,0.0,0.0,0.0,7.771805763244629,0,0.0,0.0,0.0,0.0,0.0,0.0,0.0,0.0,0.0,0.0,0.0,0.0,7,0.9807846039970392,-8.280362607299999,-0.62751772685,-2.1248264688,-8.17567661855,-0.5754738353,-0.8458627891,1.2333368388,5.0034441369,1.0994046437,1.2505937807,5.0034441369,1.1217012235,-0.48145999999999994,1.91142,0.79604,-0.21713999999999997,1.1377799999999998,1.7047799999999997,-8.228019612925,-0.6014957810749999,-1.4853446289499999,1.2419653097499999,5.0034441369,1.1105529336,-0.34929999999999994,1.5246,1.2504099999999998,1.41216,9.88512,361.98368000000005,40.315
1326,9005296,0,-14602,-2851,-1249,10237,-915,-1865,-3931,13857,4373,-13715,-2778,713,10198,-406,-2118,-1894,8269,10934,80,336,12288,39.35,0.9757315568714532,0.0,41.28,0.9865975820379964,0.0,0.0,0.0,0.0,7.780668258666992,0,0.0,0.0,0.0,0.0,0.0,0.0,0.0,0.0,0.0,0.0,0.0,0.0,7,0.9811645694547249,-8.7349989013,-1.70548430815,-0.7471588568499999,-8.20439048975,-1.6618152956999999,0.42652062845,1.5633567631,-0.1397354145,-0.2848158995,1.5574008274,-0.0620028178,-0.3234531234,-0.5503399999999999,1.9399799999999998,0.61222,-0.26515999999999995,1.15766,1.53076,-8.469694695525,-1.683649801925,-0.16031911419999997,1.5603787952500001,-0.10086911615,-0.30413451145000003,-0.40774999999999995,1.5488199999999999,1.0714899999999998,2.3536,9.88512,361.51296,40.315
1327,9005990,0,-14799,-159,-317,-3813,-4072,-4637,-4412,12889,5281,-17233,-812,-6190,-2864,-3365,-4487,-2373,7227,12281,112,512,12208,39.31,0.9774981495188748,0.0,41.25,0.98613372810264,0.0,0.0,0.0,0.0,7.776790618896484,0,0.0,0.0,0.0,0.0,0.0,0.0,0.0,0.0,0.0,0.0,0.0,0.0,7,0.9818159388107575,-8.85284541435,-0.09511469835,-0.18963119105,-10.30887796645,-0.48574298779999997,-3.7028929735,-0.5823072519,-0.6218607736,-0.7081454831,-0.4373794832,-0.5138903495,-0.6852380381,-0.6176799999999999,1.80446,0.7393399999999999,-0.33221999999999996,1.01178,1.7193399999999999,-9.580861690399999,-0.290428843075,-1.946262082275,-0.50984336755,-0.56787556155,-0.6966917606,-0.47494999999999993,1.4081199999999998,1.2293399999999999,3.29504,15.06304,359.15936,40.28
1328,9006278,0,-17493,-1867,-6888,-3861,256,4180,-4265,12730,5588,-17707,-1930,-5111,-3903,711,4270,-2014,7267,12729,144,384,12032,39.32,0.9777942264988896,0.0,41.26,0.9888872440167776,0.0,0.0,0.0,0.0,7.774021148681641,0,0.0,0.0,0.0,0.0,0.0,0.0,0.0,0.0,0.0,0.0,0.0,0.0,7,0.9833407352578336,-10.46441143545,-1.11684994855,-4.1204405172,-10.59242744455,-1.1545369045,-3.05742907715,-0.5896376343,0.0390953728,0.638354134,-0.5960517189,0.1085812893,0.652098601,-0.5971,1.7821999999999998,0.7823199999999999,-0.28196,1.01738,1.7820599999999998,-10.52841944,-1.135693426525,-3.588934797175,-0.5928446766,0.07383833105,0.6452263675000001,-0.43953,1.3997899999999999,1.28219,4.23648,11.29728,353.98144,40.29
1329,9006526,0,-13105,-2033,-11415,-967,1540,2209,-3992,13490,5250,-12876,-2034,-11162,-989,1890,2242,-1932,7683,12345,128,432,12000,39.32,0.979156180606958,0.0,41.27,0.9900419442388354,0.0,0.0,0.0,0.0,7.765712738037109,0,0.0,0.0,0.0,0.0,0.0,0.0,0.0,0.0,0.0,0.0,0.0,0.0,7,0.9845990624228966,-7.83948504325,-1.21615208645,-6.82851749475,-7.7024959494,-1.2167502921,-6.6771714653,-0.1476766621,0.235183102,0.3373503067,-0.1510364207,0.288633807,0.3423899446,-0.5588799999999999,1.8885999999999998,0.735,-0.27048,1.0756199999999998,1.7283,-7.770990496325,-1.2164511892749998,-6.752844480025,-0.1493565414,0.2619084545,0.33987012564999997,-0.41467999999999994,1.4821099999999998,1.23165,3.76576,12.70944,353.04,40.295
1330,9006812,0,-22079,626,-2302,-3199,7713,-9485,-3711,13479,5350,-22405,755,16704,-4365,6632,-8968,-1631,8086,12171,64,528,12464,39.32,0.9799259807549964,0.0,41.26,0.9908216136195412,0.0,0.0,0.0,0.0,7.769589900970459,0,0.0,0.0,0.0,0.0,0.0,0.0,0.0,0.0,0.0,0.0,0.0,0.0,7,0.9853737971872688,-13.20778254635,0.3744767369,-1.3770694063,-13.40279758825,0.45164526574999997,9.9924271776,-0.4885394437,1.1779008219,-1.4485141055,-0.6666066495,1.0128145016,-1.3695597784,-0.51954,1.8870599999999997,0.7489999999999999,-0.22834,1.13204,1.7039399999999998,-13.3052900673,0.413061001325,4.30767888565,-0.5775730466,1.09535766175,-1.40903694195,-0.37394,1.50955,1.22647,1.88288,15.533760000000001,366.69088,40.29
1331,9007058,0,-30645,-1862,-6044,5036,27615,-22006,-4537,13247,4870,-30327,-1460,-5724,5331,27420,-21957,-2701,7263,11511,0,704,12304,39.29,0.9805477424130272,0.0,41.23,0.990081421169504,0.0,0.0,0.0,0.0,7.77623701095581,0,0.0,0.0,0.0,0.0,0.0,0.0,0.0,0.0,0.0,0.0,0.0,0.0,7,0.9853145817912656,-18.33201214425,-1.1138589203,-3.6155549486,-18.14178274755,-0.873380249,-3.4241291406,0.7690792868,4.2172606245,-3.3606748978,0.8141305953,4.187480946,-3.3531917991,-0.63518,1.85458,0.6818,-0.37814,1.0168199999999998,1.6115399999999998,-18.2368974459,-0.99361958465,-3.5198420446,0.79160494105,4.20237078525,-3.35693334845,-0.50666,1.4356999999999998,1.1466699999999999,0.0,20.71168,361.98368000000005,40.26
1332,9007306,0,-13941,4799,7372,5788,-27341,-13754,-4917,11479,2728,-14165,4864,7612,5944,-26930,-14074,-2314,5094,9274,0,400,12416,39.29,0.982116950407106,0.0,41.23,0.991374290648902,0.0,0.0,0.0,0.0,7.771805763244629,0,0.0,0.0,0.0,0.0,0.0,0.0,0.0,0.0,0.0,0.0,0.0,0.0,7,0.9867456205280041,-8.33958496665,2.87078891435,4.4099720518,-8.47358303225,2.9096722816,4.5535414078,0.8839219444,-4.1754163583,-2.1004599902,0.9077456872,-4.112649959,-2.1493292062,-0.68838,1.60706,0.38192,-0.32395999999999997,0.7131599999999999,1.29836,-8.40658399945,2.890230597975,4.4817567298,0.8958338158000001,-4.14403315865,-2.1248945982,-0.50617,1.16011,0.84014,0.0,11.768,365.27872,40.26
1333,9007594,0,-10050,8984,2950,3571,-7359,-2256,-4095,9276,4481,-9659,8969,3445,3660,-7185,-2355,-1831,3648,11673,-112,224,12352,39.29,0.983291389094498,0.0,41.24,0.992548729336294,0.0,0.0,0.0,0.0,7.772359371185303,0,0.0,0.0,0.0,0.0,0.0,0.0,0.0,0.0,0.0,0.0,0.0,0.0,7,0.987920059215396,-6.0119667825,5.3742795596,1.7647066675,-5.77806837335,5.36530647485,2.06081846425,0.5453499073,-1.1238392517,-0.3445279728,0.558941658,-1.0972666155,-0.3596468865,-0.5732999999999999,1.2986399999999998,0.6273399999999999,-0.25633999999999996,0.51072,1.6342199999999998,-5.895017577925,5.369793017225,1.912762565875,0.55214578265,-1.1105529336,-0.35208742965,-0.41481999999999997,0.9046799999999999,1.13078,-3.29504,6.59008,363.39584,40.265
1334,9007840,0,-3773,5366,-532,4400,8137,-8383,-3683,8990,4614,-3727,5330,-62,4672,8167,-8368,-1471,3284,11675,-48,160,12224,39.29,0.9844460893165556,0.0,41.2,0.9938514680483592,0.0,0.0,0.0,0.0,7.774021148681641,0,0.0,0.0,0.0,0.0,0.0,0.0,0.0,0.0,0.0,0.0,0.0,0.0,7,0.9891487786824574,-2.25702991745,3.2099715179,-0.3182454058,-2.22951245755,3.1884361145,-0.0370887503,0.67195172,1.2426525331,-1.2802207429,0.7134905536,1.2472340221,-1.2779299984,-0.51562,1.2586,0.64596,-0.20593999999999998,0.45975999999999995,1.6344999999999998,-2.2432711875,3.1992038162,-0.17766707804999998,0.6927211368,1.2449432776,-1.2790753706500002,-0.36078,0.8591799999999999,1.1402299999999999,-1.41216,4.7072,359.63008,40.245000000000005
1335,9008128,0,-1830,17325,6749,7793,-5615,-6407,-2250,8265,3738,-1803,17394,6553,7920,-5481,-6611,-789,2882,11059,-304,128,12496,39.27,0.9850974586725882,0.0,41.19,0.9942166296570442,0.0,0.0,0.0,0.0,7.775682926177978,0,0.0,0.0,0.0,0.0,0.0,0.0,0.0,0.0,0.0,0.0,0.0,0.0,7,0.9896570441648163,-1.0947163395,10.36391288625,4.03728993185,-1.07856478695,10.4051890761,3.92004162445,1.1901181259,-0.8575020245,-0.9784533341,1.209513096,-0.8370380403,-1.0096074593,-0.31499999999999995,1.1570999999999998,0.52332,-0.11045999999999999,0.40347999999999995,1.54826,-1.086640563225,10.384550981175,3.97866577815,1.19981561095,-0.8472700324,-0.9940303966999999,-0.21272999999999997,0.7802899999999999,1.03579,-8.94368,3.76576,367.63232000000005,40.230000000000004
1336,9008376,0,-10132,1734,5456,31806,10078,19829,-2554,8299,3405,-9844,2628,6152,31838,8524,18669,-625,3071,9836,-48,256,12304,39.26,0.9857685664939552,0.0,41.17,0.9952430298544288,0.0,0.0,0.0,0.0,7.780668258666992,0,0.0,0.0,0.0,0.0,0.0,0.0,0.0,0.0,0.0,0.0,0.0,0.0,7,0.990505798174192,-6.0610196458,1.0372885970999999,3.2638100264,-5.8887364186,1.5720844482,3.6801611588,4.8572946378,1.5390748714,3.0282115127,4.8621815594,1.3017537412,2.8510606047000002,-0.35756,1.16186,0.47669999999999996,-0.0875,0.42994,1.3770399999999998,-5.9748780321999995,1.30468652265,3.4719855926,4.859738098599999,1.4204143063,2.9396360587,-0.22253,0.7958999999999999,0.9268699999999999,-1.41216,7.53152,361.98368000000005,40.215
1337,9008622,0,-32764,-738,-10444,17472,6501,12758,-4873,10722,3015,-32764,-631,-11269,17361,5366,12613,-2981,5646,10713,48,800,12000,39.24,0.9847619047619048,0.0,41.16,0.9944238835430546,0.0,0.0,0.0,0.0,7.775682926177978,0,0.0,0.0,0.0,0.0,0.0,0.0,0.0,0.0,0.0,0.0,0.0,0.0,7,0.9895928941524796,-19.5996099166,-0.44147576969999996,-6.2476598086,-19.5996099166,-0.37746776514999997,-6.74117946985,2.6682591936,0.9928086663,1.9483545554,2.6513076843,0.8194756658,1.9262106919,-0.6822199999999999,1.50108,0.4221,-0.41734,0.7904399999999999,1.49982,-19.5996099166,-0.40947176742499997,-6.494419639225,2.65978343895,0.90614216605,1.9372826236499998,-0.5497799999999999,1.14576,0.9609599999999999,1.41216,23.536,353.04,40.2
1338,9008910,0,-22215,-1325,6151,12522,-24169,-20167,-4971,12097,2974,-21844,-834,6321,12744,-23825,-20618,-2797,6461,9813,48,480,12400,39.23,0.9847619047619048,0.0,41.14,0.9960424377004689,0.0,0.0,0.0,0.0,7.759066104888916,0,0.0,0.0,0.0,0.0,0.0,0.0,0.0,0.0,0.0,0.0,0.0,0.0,7,0.9904021712311868,-13.28913851475,-0.79262248625,3.67956295315,-13.0672042186,-0.4989035121,3.7812579136499997,1.9123135086,-3.6910002547,-3.0798296221,1.9462165272,-3.6384658475,-3.1487046734,-0.6959399999999999,1.6935799999999999,0.41635999999999995,-0.39158,0.9045399999999999,1.3738199999999998,-13.178171366675,-0.645762999175,3.7304104334,1.9292650179000002,-3.6647330511,-3.11426714775,-0.5437599999999999,1.2990599999999999,0.8950899999999999,1.41216,14.1216,364.808,40.185
1339,9009158,0,-12435,2852,9109,15125,-13883,-22718,-3964,9215,4785,-12374,3834,8364,15243,-13714,-23251,-1474,3397,11801,16,288,12416,39.22,0.9860449050086356,0.0,41.12,0.9975721687638788,0.0,0.0,0.0,0.0,7.765158653259277,0,0.0,0.0,0.0,0.0,0.0,0.0,0.0,0.0,0.0,0.0,0.0,0.0,7,0.9918085368862573,-7.43868725775,1.7060825138,5.44905526585,-7.4021967130999995,2.2935204621,5.0033920566,2.3098340375,-2.1201603929,-3.4694089034,2.3278545609,-2.0943513382,-3.5508066913,-0.5549599999999999,1.2900999999999998,0.6698999999999999,-0.20636,0.47557999999999995,1.65214,-7.420441985425,1.9998014879500001,5.226223661225,2.3188442992000002,-2.10725586555,-3.51010779735,-0.38065999999999994,0.8828399999999998,1.16102,0.47072,8.47296,365.27872,40.17
1340,9009444,0,-16351,6218,12873,17832,-32768,-13075,-1526,8201,3958,-15768,6751,11728,17758,-32768,-13932,982,2703,10803,-80,368,12544,39.2,0.9868541820873428,0.0,41.12,0.9981248457932396,0.0,0.0,0.0,0.0,7.781221866607666,0,0.0,0.0,0.0,0.0,0.0,0.0,0.0,0.0,0.0,0.0,0.0,0.0,7,0.9924895139402912,-9.781260583149999,3.7196427317,7.7007013324499995,-9.4325066892,4.03848634315,7.0157558632,2.7232370616,-5.0042077184,-1.9967656225,2.7119360554,-5.0042077184,-2.1276434916,-0.21363999999999997,1.14814,0.55412,0.13748,0.37842,1.5124199999999999,-9.606883636174999,3.879064537425,7.358228597825,2.7175865585,-5.0042077184,-2.0622045570500003,-0.03807999999999999,0.76328,1.03327,-2.3536,10.82656,369.04448,40.16
1341,9009690,0,-4367,11847,2421,-17865,32763,-16422,-2466,9116,1846,-3833,12236,3782,-17691,32763,-15483,-649,3563,9049,-224,160,12368,39.19,0.9881174438687392,0.0,41.11,0.999447322970639,0.0,0.0,0.0,0.0,7.760727882385254,0,0.0,0.0,0.0,0.0,0.0,0.0,0.0,0.0,0.0,0.0,0.0,0.0,7,0.993782383419689,-2.6123640735499998,7.08694233555,1.44825587865,-2.29292225645,7.319644333399999,2.2624137683,-2.7282766995,5.0034441369,-2.5079070786,-2.7017040633,5.0034441369,-2.3645064729,-0.34524,1.2762399999999998,0.25844,-0.09086,0.49881999999999993,1.2668599999999999,-2.4526431649999996,7.203293334474999,1.855334823475,-2.7149903814,5.0034441369,-2.43620677575,-0.21805,0.8875299999999999,0.7626499999999999,-6.59008,4.7072,363.86656000000005,40.15
1342,9009938,0,-8342,8689,6386,10182,32763,20537,-3200,8572,3955,-8280,9047,5615,10326,32763,21222,537,2699,10064,-128,288,12368,39.19,0.9885220824080928,0.0,41.1,0.9996545768566494,0.0,0.0,0.0,0.0,7.765712738037109,0,0.0,0.0,0.0,0.0,0.0,0.0,0.0,0.0,0.0,0.0,0.0,0.0,7,0.994088329632371,-4.9902315323,5.1978088928499995,3.8201412808999997,-4.953142782,5.41196651555,3.35892472475,1.5549573666,5.0034441369,3.1363346531,1.5769485138,5.0034441369,3.2409453186,-0.44799999999999995,1.2000799999999998,0.5537,0.07518,0.37786,1.4089599999999998,-4.97168715715,5.3048877041999996,3.589533002825,1.5659529401999999,5.0034441369,3.18863998585,-0.18640999999999996,0.78897,0.9813299999999998,-3.76576,8.47296,363.86656000000005,40.144999999999996
1343,9010226,0,-25278,3437,1079,6706,-32768,-4682,-1987,9635,1323,-27114,3301,384,6401,-32768,-5652,53,4089,8383,16,560,12320,39.16,0.9889267209474464,0.0,41.1,0.9999111769059956,0.0,0.0,0.0,0.0,7.767374515533447,0,0.0,0.0,0.0,0.0,0.0,0.0,0.0,0.0,0.0,0.0,0.0,0.0,7,0.994418948926721,-15.1214424207,2.05603281905,0.64546389635,-16.2197479941,1.9746768506499999,0.22971096959999998,1.0241155078,-5.0042077184,-0.7150177166,0.9775370363,-5.0042077184,-0.8631525276,-0.27818,1.3489,0.18522,0.0074199999999999995,0.57246,1.1736199999999999,-15.6705952074,2.01535483485,0.437587432975,1.0008262720499999,-5.0042077184,-0.7890851221,-0.13538,0.96068,0.6794199999999999,0.47072,16.4752,362.4544,40.129999999999995
1344,9010472,0,-15742,4317,-9468,11845,17126,-6475,-3289,9595,6060,-15640,4526,-8882,12148,17268,-6592,-866,3975,13159,16,304,12112,39.14,0.9894793979768072,0.0,41.11,1.0004835924006907,0.0,0.0,0.0,0.0,7.767928600311279,0,0.0,0.0,0.0,0.0,0.0,0.0,0.0,0.0,0.0,0.0,0.0,0.0,7,0.994981495188749,-9.4169533423,2.58245379105,-5.6638110942,-9.355936366,2.7074787719,-5.3132625833,1.8089245735,2.6154193538,-0.9888380425,1.8551976124,2.6371050684,-1.0067058496,-0.46046,1.3433,0.8483999999999999,-0.12123999999999999,0.5565,1.8422599999999998,-9.38644485415,2.644966281475,-5.48853683875,1.83206109295,2.6262622111000002,-0.9977719460500001,-0.29085,0.9499,1.34533,0.47072,8.94368,356.33504000000005,40.125
1345,9010760,0,-15137,7251,587,6948,-32768,3829,-3022,8561,4416,-14844,7623,1370,6476,-32768,3434,-744,2967,11562,-64,320,12208,39.11,0.9908018751542068,0.0,41.12,1.0016876387860845,0.0,0.0,0.0,0.0,7.762943267822266,0,0.0,0.0,0.0,0.0,0.0,0.0,0.0,0.0,0.0,0.0,0.0,0.0,7,0.9962447569701456,-9.05503892405,4.33758916815,0.35114671655,-8.8797646686,4.56012166995,0.8195417405,1.0610728524,-5.0042077184,0.5847507127,0.9889907588,-5.0042077184,0.5244277742,-0.42307999999999996,1.19854,0.6182399999999999,-0.10415999999999999,0.41537999999999997,1.61868,-8.967401796325,4.44885541905,0.585344228525,1.0250318055999998,-5.0042077184,0.5545892434499999,-0.26361999999999997,0.8069599999999999,1.1184599999999998,-1.88288,9.4144,359.15936,40.114999999999995
1346,9011008,0,-17988,7723,-6094,688,21841,926,-3005,8611,4826,-17369,7623,-2768,843,21439,1036,-771,3061,11921,-160,416,12128,39.09,0.9910880829015544,0.0,41.11,1.001914631137429,0.0,0.0,0.0,0.0,7.751311302185059,0,0.0,0.0,0.0,0.0,0.0,0.0,0.0,0.0,0.0,0.0,0.0,0.0,7,0.9965013570194916,-10.7605232322,4.61994223495,-3.6454652310999998,-10.39023393485,4.56012166995,-1.6558332392,0.1050688144,3.3354767083,0.1414152938,0.1287398409,3.2740847557,0.1582140868,-0.42069999999999996,1.2055399999999998,0.6756399999999999,-0.10794,0.42854,1.6689399999999999,-10.575378583525001,4.5900319524499995,-2.65064923515,0.11690432765,3.304780732,0.1498146903,-0.26432,0.8170399999999999,1.1722899999999998,-4.7072,12.23872,356.80576,40.1
1347,9011254,0,-16738,8409,-5883,1702,1479,-4259,-3297,8695,4637,-16601,8336,-5662,1774,1959,-4277,-1048,3159,11710,-160,352,12176,39.09,0.992292129286948,0.0,41.09,1.0028522082408091,0.0,0.0,0.0,0.0,7.743556499481201,0,0.0,0.0,0.0,0.0,0.0,0.0,0.0,0.0,0.0,0.0,0.0,0.0,7,0.9975721687638786,-10.012766169699999,5.03031131085,-3.51924383895,-9.93081199565,4.9866422984,-3.3870403903,0.2599231426,0.2258674077,-0.6504187217,0.2709187162,0.2991712317,-0.6531676151,-0.46157999999999993,1.2172999999999998,0.64918,-0.14672,0.44226,1.6393999999999997,-9.971789082674999,5.0084768046249994,-3.453142114625,0.2654209294,0.2625193197,-0.6517931684,-0.30415,0.82978,1.1442899999999998,-4.7072,10.35584,358.21792000000005,40.09
1348,9011542,0,-14435,10039,-8410,6523,-32768,9263,-2652,8420,4687,-14606,10238,-8075,6239,-32768,8613,-439,2866,11657,-96,336,12064,39.07,0.993091537132988,0.0,41.04,1.003770046878855,0.0,0.0,0.0,0.0,7.762943267822266,0,0.0,0.0,0.0,0.0,0.0,0.0,0.0,0.0,0.0,0.0,0.0,0.0,7,0.9984307920059216,-8.63509855775,6.00538652035,-5.0309095164999995,-8.7373917239,6.1244294447,-4.8305106237499995,0.9961684249,-5.0042077184,1.4146110869,0.9527969957,-5.0042077184,1.3153454919,-0.37127999999999994,1.1787999999999998,0.65618,-0.061459999999999994,0.40124,1.6319799999999998,-8.686245140825001,6.064907982525,-4.9307100701249995,0.9744827103,-5.0042077184,1.3649782894,-0.21636999999999998,0.79002,1.1440799999999998,-2.82432,9.88512,354.92288,40.055
1349,9011790,0,-17441,10394,-9512,14217,3536,5231,-2969,8530,4702,-17965,11081,-8419,14113,4887,4839,-817,3016,11692,-48,448,12000,39.06,0.9933580064150012,0.0,41.0,1.0047767086109054,0.0,0.0,0.0,0.0,7.766266822814941,0,0.0,0.0,0.0,0.0,0.0,0.0,0.0,0.0,0.0,0.0,0.0,0.0,7,0.9990673575129533,-10.43330474165,6.2177495260999995,-5.6901321428,-10.74676450225,6.62871680765,-5.03629336735,2.1711676371,0.5400048368,0.7988589653,2.1552851419,0.7463245581,0.7389941757,-0.41566,1.1942,0.65828,-0.11438,0.42223999999999995,1.63688,-10.59003462195,6.423233166875,-5.363212755075,2.1632263895,0.64316469745,0.7689265705,-0.26502,0.8082199999999999,1.14758,-1.41216,13.18016,353.04,40.03
1350,9012076,0,-19060,10492,-3274,10072,-10866,-291,-3492,8754,3657,-18763,10508,-3033,10117,-10608,-647,-1288,3173,10767,-144,416,12224,39.05,0.9942462373550456,0.0,40.99,1.0057735011102886,0.0,0.0,0.0,0.0,7.774021148681641,0,0.0,0.0,0.0,0.0,0.0,0.0,0.0,0.0,0.0,0.0,0.0,0.0,7,1.000009869232667,-11.401799689,6.2763736798,-1.9585252980999999,-11.224132610949999,6.2859449702,-1.8143577364499999,1.5381585736,-1.6594153158,-0.0444404433,1.5450308071,-1.6200145104,-0.0988074461,-0.48888,1.22556,0.51198,-0.18031999999999998,0.44421999999999995,1.50738,-11.312966149975,6.281159325,-1.8864415172749998,1.5415946903500002,-1.6397149131000002,-0.0716239447,-0.3346,0.8348899999999999,1.00968,-4.23648,12.23872,359.63008,40.019999999999996
1351,9012322,0,-14325,9049,-587,8048,-12284,6896,-3915,9114,4224,-14677,9124,-36,7960,-11994,6502,-1757,3543,11267,-144,384,12144,39.04,0.9953910683444362,0.0,40.97,1.0066123858869973,0.0,0.0,0.0,0.0,7.765158653259277,0,0.0,0.0,0.0,0.0,0.0,0.0,0.0,0.0,0.0,0.0,0.0,0.0,7,1.0010017271157168,-8.56929593625,5.41316292685,-0.35114671655,-8.77986432505,5.4580283506,-0.0215354034,1.2290607824,-1.8759670292,1.0531316048,1.215621748,-1.8316793022,0.9929613826,-0.5480999999999999,1.27596,0.59136,-0.24597999999999998,0.49601999999999996,1.5773799999999998,-8.67458013065,5.435595638725,-0.186341059975,1.2223412651999999,-1.8538231657,1.0230464937,-0.39703999999999995,0.8859899999999999,1.0843699999999998,-4.23648,11.29728,357.27648,40.004999999999995
1352,9012570,0,-18339,7095,-3805,8192,-9027,4715,-4543,9779,3970,-18107,7175,-5637,8119,-8628,4281,-2353,4170,11035,-96,384,12304,39.04,0.9956575376264496,0.0,40.96,1.007086109055021,0.0,0.0,0.0,0.0,7.765712738037109,0,0.0,0.0,0.0,0.0,0.0,0.0,0.0,0.0,0.0,0.0,0.0,0.0,7,1.0013718233407354,-10.970493415349999,4.24426908675,-2.27617249825,-10.83170970455,4.29212553875,-3.37208524905,1.2510519296,-1.3785700401,0.7200573545,1.2399036397,-1.3176362364,0.6537784803,-0.6360199999999999,1.36906,0.5558,-0.32942,0.5838,1.5449,-10.90110155995,4.26819731275,-2.82412887365,1.24547778465,-1.34810313825,0.6869179174,-0.4827199999999999,0.9764299999999999,1.05035,-2.82432,11.29728,361.98368000000005,40.0
1353,9012858,0,-13678,6782,1146,5609,-4839,-1294,-4676,10078,4429,-13704,6683,716,5657,-4478,-1472,-2487,4525,11479,-96,320,12272,39.05,0.9963977300764866,0.0,40.94,1.0081618554157414,0.0,0.0,0.0,0.0,7.777898788452148,0,0.0,0.0,0.0,0.0,0.0,0.0,0.0,0.0,0.0,0.0,0.0,0.0,7,1.002279792746114,-8.1822568807,4.0570307183,0.6855436749,-8.1978102276,3.99780835895,0.4283152454,0.8565857267,-0.7389941757,-0.1976148922,0.8639161091,-0.6838635914,-0.2247983936,-0.6546399999999999,1.41092,0.62006,-0.34818,0.6335,1.60706,-8.19003355415,4.027419538625,0.55692946015,0.8602509179,-0.71142888355,-0.21120664290000002,-0.5014099999999999,1.0222099999999998,1.1135599999999999,-2.82432,9.4144,361.04224,39.995
1354,9013104,0,-14587,6387,-3737,-904,-6770,5662,-4445,9861,4713,-14607,6353,-3239,-1039,-6528,5591,-1968,4334,12470,-80,384,12368,39.04,0.9973254379471996,0.0,40.93,1.0086750555144337,0.0,0.0,0.0,0.0,7.762389183044434,0,0.0,0.0,0.0,0.0,0.0,0.0,0.0,0.0,0.0,0.0,0.0,0.0,7,1.0030002467308168,-8.726025816549999,3.82073948655,-2.23549451405,-8.73798992955,3.80040049445,-1.93758810035,-0.1380555352,-1.033889351,0.8646796906,-0.1586722357,-0.9969320064,0.8538368333,-0.6223,1.3805399999999999,0.65982,-0.27552,0.60676,1.7457999999999998,-8.73200787305,3.8105699905,-2.0865413072,-0.14836388545,-1.0154106787,0.85925826195,-0.44891,0.9936499999999999,1.20281,-2.3536,11.29728,363.86656000000005,39.985
1355,9013392,0,-21598,8891,-8024,6313,-21967,9502,-4532,10361,5254,-21224,9199,-7348,6120,-22029,9109,-2377,4796,12137,-32,496,12112,39.03,0.9977399457192204,0.0,40.92,1.0087145324451023,0.0,0.0,0.0,0.0,7.768482208251953,0,0.0,0.0,0.0,0.0,0.0,0.0,0.0,0.0,0.0,0.0,0.0,0.0,7,1.0032272390821615,-12.9200456287,5.31864643415,-4.8000021356,-12.6963167156,5.5028937743499995,-4.3956151162,0.9640980019,-3.3547189621,1.4511102826,0.934623756,-3.3641873727,1.3910927767,-0.6344799999999999,1.45054,0.7355599999999999,-0.33277999999999996,0.6714399999999999,1.69918,-12.80818117215,5.41077010425,-4.5978086259,0.94936087895,-3.3594531674,1.42110152965,-0.48362999999999995,1.0609899999999999,1.2173699999999998,-0.94144,14.59232,356.33504000000005,39.975
1356,9013640,0,-22133,4024,-1418,18028,-14063,7089,-3804,10461,6268,-22445,4461,-1621,18017,-14029,6434,-1627,4881,13248,-16,496,12288,39.03,0.9981840611892424,0.0,40.91,1.008003947693067,0.0,0.0,0.0,0.0,7.774575233459473,0,0.0,0.0,0.0,0.0,0.0,0.0,0.0,0.0,0.0,0.0,0.0,0.0,7,1.0030940044411547,-13.24008565145,2.4071795356,-0.8482556117,-13.42672581425,2.66859540465,-0.96969135865,2.7531694564,-2.1476493269,1.0826058507,2.7514895771,-2.1424569727,0.9825766742,-0.5325599999999999,1.46454,0.87752,-0.22777999999999998,0.68334,1.85472,-13.33340573285,2.537887470125,-0.908973485175,2.75232951675,-2.1450531498,1.03259126245,-0.38016999999999995,1.07394,1.36612,-0.47072,14.59232,361.51296,39.97
1357,9013886,0,-32764,-29063,-32764,-23144,31045,32763,-3564,9888,6122,-32764,-32764,-5095,-24595,32458,32489,-1476,4370,13046,1904,30160,19328,38.98,1.0021712311867752,0.0,40.89,1.0087244016777694,0.0,0.0,0.0,0.0,7.765158653259277,0,0.0,0.0,0.0,0.0,0.0,0.0,0.0,0.0,0.0,0.0,0.0,0.0,7,1.0054478164322722,-19.5996099166,-17.38565080595,-19.5996099166,-19.5996099166,-19.5996099166,-3.04785778675,-3.5344660472,4.7410775335,5.0034441369,-3.7560573985,4.9568656654,4.9615998707,-0.49895999999999996,1.3843199999999998,0.85708,-0.20664,0.6117999999999999,1.8264399999999998,-19.5996099166,-18.492630361274998,-11.323733851675,-3.64526172285,4.84897159945,4.9825220038,-0.3528,0.9980599999999998,1.3417599999999998,56.01568,887.3072000000001,568.62976,39.935
1358,9014174,0,-13801,-3734,-19389,-9803,32763,-12635,-4899,9364,2931,-14282,-3461,-18939,-8644,32763,-11458,-3019,4442,11023,240,352,11856,39.01,0.9998914384406612,0.0,40.86,1.0095928941524797,0.0,0.0,0.0,0.0,7.765158653259277,0,0.0,0.0,0.0,0.0,0.0,0.0,0.0,0.0,0.0,0.0,0.0,0.0,7,1.0047421662965705,-8.25583617565,-2.2336998971,-11.59860934785,-8.5435730933,-2.07038975465,-11.32941680535,-1.4970778889,5.0034441369,-1.9295704505,-1.3200796972,5.0034441369,-1.7498233654,-0.6858599999999999,1.31096,0.41034,-0.42266,0.62188,1.5432199999999998,-8.399704634475,-2.152044825875,-11.4640130766,-1.40857879305,5.0034441369,-1.83969690795,-0.55426,0.96642,0.9767799999999999,7.0608,10.35584,348.80352000000005,39.935
1359,9014422,0,9955,16877,-27775,11748,32763,-4145,-2313,8740,6431,29,17465,-17519,13426,32763,-2218,1363,3602,12020,-224,-32,11792,39.0,0.999940784603997,0.0,40.85,1.0098889711324943,0.0,0.0,0.0,0.0,7.760727882385254,0,0.0,0.0,0.0,0.0,0.0,0.0,0.0,0.0,0.0,0.0,0.0,0.0,7,1.0049148778682457,5.95513724575,10.09591675505,-16.61516192875,0.01734796385,10.44766167725,-10.47996478235,1.7941110924,5.0034441369,-0.6330090635,2.0503690438,5.0034441369,-0.3387247534,-0.32382,1.2235999999999998,0.9003399999999999,0.19082,0.50428,1.6827999999999999,2.9862426047999997,10.271789216150001,-13.54756335555,1.9222400681,5.0034441369,-0.48586690845,-0.0665,0.8639399999999999,1.2915699999999999,-6.59008,-0.94144,346.92064000000005,39.925
1360,9014708,0,1743,-411,13499,-651,-16800,30,-2290,9346,890,1686,-365,13775,-784,-16371,-31,563,4222,7236,144,16,12544,39.01,1.0,0.0,40.87,1.0098297557364917,0.0,0.0,0.0,0.0,7.766820430755615,0,0.0,0.0,0.0,0.0,0.0,0.0,0.0,0.0,0.0,0.0,0.0,0.0,7,1.004914877868246,1.04267244795,-0.24586252214999998,8.07517806935,1.0085747259,-0.21834506225,8.240282828749999,-0.0994183113,-2.56563384,0.004581489,-0.1197295792,-2.5001185473,-0.0047342053,-0.3206,1.3084399999999998,0.12459999999999999,0.07881999999999999,0.5910799999999999,1.01304,1.025623586925,-0.2321037922,8.15773044905,-0.10957394525,-2.53287619365,-7.635814999999973e-05,-0.12089,0.9497599999999999,0.56882,4.23648,0.47072,369.04448,39.94
1361,9014954,0,257,6,15646,181,2793,-25,-2375,9593,980,298,-27,16037,203,2844,51,-427,4246,7275,32,80,12592,39.01,0.999950653836664,0.0,40.88,1.009849494201826,0.0,0.0,0.0,0.0,7.754634857177734,0,0.0,0.0,0.0,0.0,0.0,0.0,0.0,0.0,0.0,0.0,0.0,0.0,7,1.004900074019245,0.15373885204999999,0.0035892338999999997,9.3595255999,0.1782652837,-0.01615155255,9.59342400905,0.0276416503,0.4265366259,-0.0038179075,0.0310014089,0.4343251572,0.0077885313,-0.33249999999999996,1.3430199999999999,0.1372,-0.05977999999999999,0.59444,1.0185,0.166002067875,-0.006281159325000001,9.476474804475,0.0293215296,0.43043089155,0.0019853119,-0.19613999999999998,0.9687299999999999,0.57785,0.94144,2.3536,370.45664,39.945
1362,9015202,0,-770,23,15750,99,110,34,-2262,9601,928,-722,-48,16243,112,331,77,-324,4220,7277,-32,128,12656,39.02,0.999881569207994,0.0,40.92,1.0113594867999014,0.0,0.0,0.0,0.0,7.78011417388916,0,0.0,0.0,0.0,0.0,0.0,0.0,0.0,0.0,0.0,0.0,0.0,0.0,7,1.0056205280039476,-0.4606183505,0.01375872995,9.4217389875,-0.4319044793,-0.028713871199999998,9.71665437295,0.0151189137,0.016798793,0.0051923542,0.017104225600000002,0.0505490953,0.0117591551,-0.31667999999999996,1.34414,0.12991999999999998,-0.04536,0.5908,1.01878,-0.4462614149,-0.007477570624999999,9.569196680225,0.01611156965,0.033673944149999996,0.00847575465,-0.18102,0.9674699999999999,0.57435,-0.94144,3.76576,372.33952,39.97
1363,9015490,0,-811,29,15780,97,-5,14,-2306,9610,958,-803,-45,16206,105,221,64,-358,4248,7228,96,96,12688,39.05,0.9998322230446582,0.0,40.95,1.0114285714285711,0.0,0.0,0.0,0.0,7.779560565948486,0,0.0,0.0,0.0,0.0,0.0,0.0,0.0,0.0,0.0,0.0,0.0,0.0,7,1.0056303972366147,-0.48514478215,0.01734796385,9.439685157,-0.48035913695,-0.02691925425,9.6945207639,0.0148134811,-0.0007635815,0.0021380282000000002,0.0160352115,0.0337503023,0.0097738432,-0.32283999999999996,1.3454,0.13412,-0.05012,0.5947199999999999,1.01192,-0.48275195955,-0.004785645200000001,9.56710296045,0.015424346299999999,0.0164933604,0.0059559357,-0.18647999999999998,0.9700599999999999,0.57302,2.82432,2.82432,373.28096000000005,40.0
1364,9015736,0,-813,23,15783,129,14,38,-2328,9560,964,-784,-50,16246,92,237,75,-363,4247,7251,64,64,12624,39.05,0.999940784603997,0.0,40.99,1.011033802121885,0.0,0.0,0.0,0.0,7.758512020111084,0,0.0,0.0,0.0,0.0,0.0,0.0,0.0,0.0,0.0,0.0,0.0,0.0,7,1.005487293362941,-0.48634119345,0.01375872995,9.44147977395,-0.4689932296,-0.0299102825,9.7184489899,0.0197004027,0.0021380282000000002,0.0058032194,0.0140498996,0.0361937631,0.0114537225,-0.32592,1.3383999999999998,0.13496,-0.05082,0.59458,1.01514,-0.477667211525,-0.008075776275,9.579964381925,0.01687515115,0.01916589565,0.00862847095,-0.18836999999999998,0.9664899999999998,0.57505,1.88288,1.88288,371.39808000000005,40.019999999999996
1365,9016024,0,-834,31,15793,99,6,35,-2306,9562,968,-787,-48,16267,116,236,82,-305,4265,7337,80,-16,12608,39.07,0.9996545768566494,0.0,41.01,1.0108857636318775,0.0,0.0,0.0,0.0,7.75574254989624,0,0.0,0.0,0.0,0.0,0.0,0.0,0.0,0.0,0.0,0.0,0.0,0.0,7,1.0052701702442635,-0.4989035121,0.01854437515,9.447461830449999,-0.47078784655,-0.028713871199999998,9.73101130855,0.0151189137,0.0009162978,0.0053450705,0.0177150908,0.0360410468,0.0125227366,-0.32283999999999996,1.3386799999999999,0.13552,-0.042699999999999995,0.5971,1.02718,-0.484845679325,-0.005084748024999999,9.589236569499999,0.01641700225,0.0184786723,0.00893390355,-0.18277,0.9678899999999999,0.58135,2.3536,-0.47072,370.92736,40.04
1366,9016272,0,-826,30,15789,122,10,27,-2303,9598,941,-785,-53,16243,72,237,85,-324,4254,7285,64,64,12624,39.08,0.9997335307179868,0.0,41.04,1.010974586725882,0.0,0.0,0.0,0.0,7.771805763244629,0,0.0,0.0,0.0,0.0,0.0,0.0,0.0,0.0,0.0,0.0,0.0,0.0,7,1.0053540587219343,-0.4941178669,0.0179461695,9.44506900785,-0.46959143524999997,-0.03170489945,9.71665437295,0.0186313886,0.001527163,0.0041233401,0.0109955736,0.0361937631,0.0129808855,-0.32242,1.3437199999999998,0.13174,-0.04536,0.59556,1.0198999999999998,-0.481854651075,-0.006879364974999998,9.580861690399999,0.0148134811,0.018860463049999998,0.008552112800000001,-0.18389,0.9696399999999998,0.5758199999999999,1.88288,1.88288,371.39808000000005,40.06
1367,9016518,0,-822,14,15818,122,10,18,-2289,9612,924,-813,-39,16288,103,236,58,-340,4223,7286,48,32,12656,39.09,0.999694053787318,0.0,41.04,1.0107475943745374,0.0,0.0,0.0,0.0,7.770143985748291,0,0.0,0.0,0.0,0.0,0.0,0.0,0.0,0.0,0.0,0.0,0.0,0.0,7,1.0052208240809277,-0.49172504429999997,0.0083748791,9.4624169717,-0.48634119345,-0.02333002035,9.7435736272,0.0186313886,0.001527163,0.0027488934,0.0157297789,0.0360410468,0.0088575454,-0.32045999999999997,1.34568,0.12935999999999998,-0.047599999999999996,0.59122,1.0200399999999998,-0.489033118875,-0.007477570625000001,9.60299529945,0.01718058375,0.018784104899999998,0.0058032194,-0.18402999999999997,0.96845,0.5746999999999999,1.41216,0.94144,372.33952,40.065
1368,9016806,0,-829,12,15798,99,2,42,-2324,9588,934,-809,-58,16248,95,243,76,-331,4218,7264,80,48,12608,39.09,0.9997039230199852,0.0,41.06,1.010717986676536,0.0,0.0,0.0,0.0,7.760727882385254,0,0.0,0.0,0.0,0.0,0.0,0.0,0.0,0.0,0.0,0.0,0.0,0.0,7,1.0052109548482606,-0.49591248385,0.007178467799999999,9.4504528587,-0.48394837085,-0.0346959277,9.7196454012,0.0151189137,0.0003054326,0.0064140846,0.0145080485,0.0371100609,0.0116064388,-0.32536,1.34232,0.13076,-0.04634,0.5905199999999999,1.0169599999999999,-0.48993042735,-0.01375872995,9.58504912995,0.014813481100000001,0.01870774675,0.009010261700000001,-0.18585,0.96642,0.5738599999999999,2.3536,1.41216,370.92736,40.075
1369,9017054,0,-826,34,15794,114,-13,28,-2346,9611,973,-791,-50,16273,86,219,62,-328,4197,7294,48,144,12592,39.09,0.9998026153466568,0.0,41.08,1.01059955588453,0.0,0.0,0.0,0.0,7.781221866607666,0,0.0,0.0,0.0,0.0,0.0,0.0,0.0,0.0,0.0,0.0,0.0,0.0,7,1.0052010856155933,-0.4941178669,0.020338992099999998,9.4480600361,-0.47318066915,-0.0299102825,9.73460054245,0.0174096582,-0.0019853119,0.0042760564000000004,0.0131336018,0.0334448697,0.0094684106,-0.32843999999999995,1.34554,0.13621999999999998,-0.045919999999999996,0.58758,1.0211599999999998,-0.48364926802499997,-0.004785645200000001,9.591330289275,0.015271630000000001,0.015729778899999998,0.0068722335,-0.18717999999999999,0.96656,0.5786899999999999,1.41216,4.23648,370.45664,40.085
1370,9017340,0,-810,31,15826,105,-9,37,-2315,9589,916,-798,-52,16308,104,218,81,-335,4229,7228,48,80,12608,39.09,0.999694053787318,0.0,41.09,1.0106686405132002,0.0,0.0,0.0,0.0,7.785653114318848,0,0.0,0.0,0.0,0.0,0.0,0.0,0.0,0.0,0.0,0.0,0.0,0.0,7,1.005181347150259,-0.4845465765,0.01854437515,9.4672026169,-0.4773681087,-0.031106693799999998,9.7555377402,0.0160352115,-0.0013744467,0.0056505031,0.0158824952,0.0332921534,0.0123700203,-0.3241,1.34246,0.12824,-0.0469,0.5920599999999999,1.01192,-0.4809573426,-0.006281159324999999,9.61137017855,0.01595885335,0.015958853350000003,0.0090102617,-0.1855,0.96726,0.5700799999999999,1.41216,2.3536,370.92736,40.09
1371,9017586,0,-794,46,15813,82,-2,28,-2330,9598,873,-793,-55,16280,108,232,79,-360,4246,7262,-16,64,12656,39.09,0.999694053787318,0.0,41.1,1.01059955588453,0.0,0.0,0.0,0.0,7.766820430755615,0,0.0,0.0,0.0,0.0,0.0,0.0,0.0,0.0,0.0,0.0,0.0,0.0,7,1.005146804835924,-0.4749752861,0.0275174599,9.45942594345,-0.47437708045,-0.03290131075,9.738787982,0.0125227366,-0.0003054326,0.0042760564000000004,0.0164933604,0.0354301816,0.0120645877,-0.3262,1.3437199999999998,0.12222,-0.05039999999999999,0.59444,1.0166799999999998,-0.474676183275,-0.0026919254250000017,9.599106962725,0.0145080485,0.0175623745,0.008170322050000001,-0.1883,0.9690799999999999,0.5694499999999999,-0.47072,1.88288,372.33952,40.095
1372,9017834,0,-838,34,15835,116,6,32,-2333,9579,978,-800,-42,16299,107,230,66,-295,4252,7326,64,80,12576,39.09,0.999575622995312,0.0,41.1,1.0104909943251912,0.0,0.0,0.0,0.0,7.767374515533447,0,0.0,0.0,0.0,0.0,0.0,0.0,0.0,0.0,0.0,0.0,0.0,0.0,7,1.0050333086602516,-0.5012963347,0.020338992099999998,9.47258646775,-0.47856452,-0.0251246373,9.750153889349999,0.0177150908,0.0009162978,0.0048869216,0.0163406441,0.035124749,0.0100792758,-0.32661999999999997,1.34106,0.13692,-0.041299999999999996,0.5952799999999999,1.0256399999999999,-0.48993042735000003,-0.0023928226000000004,9.61137017855,0.017027867449999998,0.0180205234,0.0074830987,-0.18395999999999998,0.96817,0.5812799999999999,1.88288,2.3536,369.98592,40.095
1373,9018122,0,-813,28,15830,92,-26,34,-2283,9631,926,-790,-46,16279,111,221,83,-365,4226,7297,-32,96,12688,39.09,0.9996743153219836,0.0,41.1,1.0103824327658524,0.0,0.0,0.0,0.0,7.77623701095581,0,0.0,0.0,0.0,0.0,0.0,0.0,0.0,0.0,0.0,0.0,0.0,0.0,7,1.0050283740439179,-0.48634119345,0.0167497582,9.469595439499999,-0.4725824635,-0.0275174599,9.73818977635,0.0140498996,-0.0039706238,0.0051923542,0.0169515093,0.0337503023,0.0126754529,-0.31961999999999996,1.3483399999999999,0.12963999999999998,-0.05109999999999999,0.5916399999999999,1.02158,-0.47946182847499996,-0.00538385085,9.603892607925,0.01550070445,0.01488983925,0.00893390355,-0.18535999999999997,0.9699899999999999,0.57561,-0.94144,2.82432,373.28096000000005,40.095
1374,9018368,0,-809,28,15824,99,-2,31,-2285,9624,912,-796,-60,16280,131,268,60,-330,4221,7214,0,32,12704,39.09,0.9996743153219836,0.0,41.12,1.0103133481371824,0.0,0.0,0.0,0.0,7.78233003616333,0,0.0,0.0,0.0,0.0,0.0,0.0,0.0,0.0,0.0,0.0,0.0,0.0,7,1.004993831729583,-0.48394837085,0.0167497582,9.4660062056,-0.4761716974,-0.035892339,9.738787982,0.0151189137,-0.0003054326,0.0047342053,0.0200058353,0.0409279684,0.009162978,-0.31989999999999996,1.34736,0.12768,-0.0462,0.5909399999999999,1.00996,-0.480060034125,-0.009571290400000002,9.6023970938,0.0175623745,0.0203112679,0.0069485916500000005,-0.18305,0.96915,0.56882,0.0,0.94144,373.75168,40.105000000000004
1375,9018656,0,-816,25,15821,97,-16,28,-2306,9609,967,-782,-58,16254,109,246,67,-318,4216,7295,48,96,12608,39.09,0.9996348383913152,0.0,41.13,1.0102738712065138,0.0,0.0,0.0,0.0,7.762389183044434,0,0.0,0.0,0.0,0.0,0.0,0.0,0.0,0.0,0.0,0.0,0.0,0.0,7,1.0049543547989144,-0.4881358104,0.01495514125,9.46421158865,-0.4677968183,-0.0346959277,9.723234635099999,0.0148134811,-0.0024434608,0.0042760564000000004,0.0166460767,0.0375682098,0.0102319921,-0.32283999999999996,1.34526,0.13538,-0.04452,0.59024,1.0212999999999999,-0.47796631435,-0.009870393225,9.593723111875,0.0157297789,0.017562374500000002,0.00725402425,-0.18367999999999998,0.9677499999999999,0.57834,1.41216,2.82432,370.92736,40.11
1376,9018904,0,-818,29,15829,103,-40,30,-2301,9577,996,-786,-45,16248,89,218,70,-354,4247,7217,32,64,12736,39.09,0.9996348383913152,0.0,41.11,1.0103232173698495,0.0,0.0,0.0,0.0,7.777898788452148,0,0.0,0.0,0.0,0.0,0.0,0.0,0.0,0.0,0.0,0.0,0.0,0.0,7,1.0049790278805824,-0.4893322217,0.01734796385,9.46899723385,-0.4701896409,-0.02691925425,9.7196454012,0.0157297789,-0.006108652,0.004581489,0.0135917507,0.0332921534,0.010690141,-0.32214,1.3407799999999999,0.13943999999999998,-0.04955999999999999,0.59458,1.0103799999999998,-0.47976093129999997,-0.004785645200000001,9.594321317525,0.0146607648,0.013591750700000002,0.007635815000000001,-0.18585,0.9676799999999999,0.5749099999999999,0.94144,1.88288,374.69312,40.1
1377,9019150,0,-802,22,15842,80,0,25,-2309,9640,947,-776,-51,16252,100,237,74,-356,4225,7197,96,96,12624,39.09,0.999694053787318,0.0,41.14,1.0102047865778436,0.0,0.0,0.0,0.0,7.766266822814941,0,0.0,0.0,0.0,0.0,0.0,0.0,0.0,0.0,0.0,0.0,0.0,0.0,7,1.0049494201825808,-0.47976093129999997,0.0131605243,9.4767739073,-0.4642075844,-0.03050848815,9.7220382238,0.012217304,0.0,0.0038179075,0.01527163,0.0361937631,0.0113010062,-0.32326,1.3496,0.13257999999999998,-0.049839999999999995,0.5914999999999999,1.00758,-0.47198425785,-0.008673981925,9.59940606555,0.013744467,0.01809688155,0.00755945685,-0.18655,0.9705499999999999,0.5700799999999999,2.82432,2.82432,371.39808000000005,40.115
1378,9019438,0,-826,30,15819,106,-5,5,-2287,9627,919,-800,-57,16259,90,222,71,-388,4266,7314,32,144,12464,39.07,0.9997137922526524,0.0,41.13,1.0103232173698495,0.0,0.0,0.0,0.0,7.760727882385254,0,0.0,0.0,0.0,0.0,0.0,0.0,0.0,0.0,0.0,0.0,0.0,0.0,7,1.005018504811251,-0.4941178669,0.0179461695,9.46301517735,-0.47856452,-0.03409772205,9.72622566335,0.0161879278,-0.0007635815,0.0007635815,0.013744467,0.0339030186,0.0108428573,-0.32017999999999996,1.34778,0.12866,-0.05431999999999999,0.59724,1.02396,-0.48634119345,-0.008075776275,9.594620420350001,0.0149661974,0.01656971855,0.0058032194,-0.18724999999999997,0.97251,0.57631,0.94144,4.23648,366.69088,40.1
1379,9019686,0,-826,25,15842,95,-16,27,-2340,9592,947,-787,-51,16275,104,234,53,-325,4253,7307,80,48,12608,39.07,0.999694053787318,0.0,41.14,1.0101455711818406,0.0,0.0,0.0,0.0,7.773467540740967,0,0.0,0.0,0.0,0.0,0.0,0.0,0.0,0.0,0.0,0.0,0.0,0.0,7,1.0049198124845793,-0.4941178669,0.01495514125,9.4767739073,-0.47078784655,-0.03050848815,9.73579695375,0.0145080485,-0.0024434608,0.0041233401,0.0158824952,0.0357356142,0.0080939639,-0.32759999999999995,1.3428799999999999,0.13257999999999998,-0.0455,0.59542,1.02298,-0.482452856725,-0.0077766734499999995,9.606285430525,0.01519527185,0.0166460767,0.006108652000000001,-0.18654999999999997,0.96915,0.57778,2.3536,1.41216,370.92736,40.105000000000004
1380,9019972,0,-814,16,15826,84,-20,18,-2321,9661,907,-801,-47,16251,113,243,71,-343,4237,7241,96,144,12640,39.08,0.999624969158648,0.0,41.13,1.0103429558351835,0.0,0.0,0.0,0.0,7.755188465118408,0,0.0,0.0,0.0,0.0,0.0,0.0,0.0,0.0,0.0,0.0,0.0,0.0,7,1.0049839624969157,-0.4869393991,0.0095712904,9.4672026169,-0.47916272565,-0.02811566555,9.72144001815,0.0128281692,-0.003054326,0.0027488934,0.0172569419,0.0371100609,0.0108428573,-0.32493999999999995,1.3525399999999999,0.12697999999999998,-0.04801999999999999,0.5931799999999999,1.0137399999999999,-0.483051062375,-0.009272187575,9.594321317525,0.01504255555,0.017027867449999998,0.006795875349999999,-0.18647999999999998,0.9728599999999998,0.57036,2.82432,4.23648,371.8688,40.105000000000004
1381,9020218,0,-819,20,15840,114,-23,33,-2298,9643,989,-812,-48,16267,109,251,68,-378,4231,7326,64,112,12608,39.07,0.9998618307426598,0.0,41.14,1.0100271403898349,0.0,0.0,0.0,0.0,7.777898788452148,0,0.0,0.0,0.0,0.0,0.0,0.0,0.0,0.0,0.0,0.0,0.0,0.0,7,1.0049444855662473,-0.48993042735,0.011964113,9.475577496,-0.48574298779999997,-0.028713871199999998,9.73101130855,0.0174096582,-0.0035124749,0.0050396379,0.0166460767,0.0383317913,0.0103847084,-0.32171999999999995,1.3500199999999998,0.13846,-0.052919999999999995,0.59234,1.0256399999999999,-0.487836707575,-0.0083748791,9.603294402275,0.01702786745,0.0174096582,0.0077121731499999995,-0.18732,0.9711799999999999,0.58205,1.88288,3.29504,370.92736,40.105000000000004
1382,9020466,0,-823,36,15836,108,-36,42,-2337,9624,994,-783,-54,16266,103,242,60,-327,4204,7304,-32,32,12656,39.07,0.9996545768566494,0.0,41.13,1.0103824327658524,0.0,0.0,0.0,0.0,7.7646050453186035,0,0.0,0.0,0.0,0.0,0.0,0.0,0.0,0.0,0.0,0.0,0.0,0.0,7,1.0050185048112508,-0.49232324995,0.0215354034,9.4731846734,-0.46839502395,-0.0323031051,9.7304131029,0.0164933604,-0.0054977868,0.0064140846,0.0157297789,0.0369573446,0.009162978,-0.32717999999999997,1.34736,0.13915999999999998,-0.045779999999999994,0.58856,1.02256,-0.48035913695,-0.00538385085,9.60179888815,0.01611156965,0.015729778899999998,0.0077885313,-0.18647999999999998,0.9679599999999999,0.5808599999999999,-0.94144,0.94144,372.33952,40.1
1383,9020754,0,-834,21,15844,91,-20,29,-2278,9595,886,-792,-46,16258,122,216,74,-306,4237,7309,-16,0,12688,39.08,0.999624969158648,0.0,41.13,1.0102146558105107,0.0,0.0,0.0,0.0,7.766820430755615,0,0.0,0.0,0.0,0.0,0.0,0.0,0.0,0.0,0.0,0.0,0.0,0.0,7,1.0049198124845793,-0.4989035121,0.01256231865,9.4779703186,-0.47377887479999997,-0.0275174599,9.7256274577,0.0138971833,-0.003054326,0.0044287727,0.0186313886,0.0329867208,0.0113010062,-0.31892,1.3433,0.12403999999999998,-0.042839999999999996,0.5931799999999999,1.0232599999999998,-0.48634119345,-0.007477570625,9.60179888815,0.01626428595,0.0149661974,0.007864889449999999,-0.18087999999999999,0.96824,0.5736499999999999,-0.47072,0.0,373.28096000000005,40.105000000000004
1384,9021000,0,-812,28,15839,113,-20,16,-2326,9607,887,-802,-51,16253,98,257,65,-341,4216,7279,64,144,12592,39.08,0.9998322230446582,0.0,41.14,1.0100962250185048,0.0,0.0,0.0,0.0,7.781775951385498,0,0.0,0.0,0.0,0.0,0.0,0.0,0.0,0.0,0.0,0.0,0.0,0.0,7,1.0049642240315815,-0.48574298779999997,0.0167497582,9.47497929035,-0.47976093129999997,-0.03050848815,9.72263642945,0.0172569419,-0.003054326,0.0024434608,0.0149661974,0.0392480891,0.0099265595,-0.32564,1.3449799999999998,0.12417999999999998,-0.04774,0.59024,1.0190599999999999,-0.48275195954999994,-0.006879364975,9.598807859899999,0.01611156965,0.01809688155,0.00618501015,-0.18669,0.9676099999999999,0.5716199999999999,1.88288,4.23648,370.45664,40.11
1385,9021288,0,-825,32,15845,100,11,23,-2309,9604,972,-765,-64,16233,84,227,63,-334,4218,7325,48,80,12576,39.07,0.9999802615346656,0.0,41.13,1.010106094251172,0.0,0.0,0.0,0.0,7.766820430755615,0,0.0,0.0,0.0,0.0,0.0,0.0,0.0,0.0,0.0,0.0,0.0,0.0,7,1.0050431778929187,-0.49351966124999996,0.0191425808,9.478568524249999,-0.45762732224999997,-0.0382851616,9.71067231645,0.01527163,0.0016798793000000001,0.0035124749,0.0128281692,0.0346666001,0.0096211269,-0.32326,1.34456,0.13607999999999998,-0.046759999999999996,0.5905199999999999,1.0254999999999999,-0.47557349174999997,-0.0095712904,9.59462042035,0.014049899599999999,0.0181732397,0.0065668009,-0.18501,0.96754,0.5807899999999999,1.41216,2.3536,369.98592,40.1
1386,9021536,0,-814,28,15843,97,-8,20,-2276,9609,886,-785,-39,16213,88,218,67,-335,4214,7311,32,64,12592,39.08,0.9997335307179868,0.0,41.14,1.0102047865778436,0.0,0.0,0.0,0.0,7.767928600311279,0,0.0,0.0,0.0,0.0,0.0,0.0,0.0,0.0,0.0,0.0,0.0,0.0,7,1.0049691586479153,-0.4869393991,0.0167497582,9.47737211295,-0.46959143524999997,-0.02333002035,9.69870820345,0.0148134811,-0.0012217304,0.003054326,0.013439034400000001,0.0332921534,0.0102319921,-0.31864,1.34526,0.12403999999999998,-0.0469,0.5899599999999999,1.02354,-0.478265417175,-0.003290131075000001,9.5880401582,0.01412625775,0.0160352115,0.00664315905,-0.18277,0.9676099999999999,0.5737899999999999,0.94144,1.88288,370.45664,40.11
1387,9021782,0,-820,23,15847,98,-1,25,-2303,9588,1007,-785,-32,16233,102,232,68,-362,4271,7240,128,32,12576,39.08,0.9997335307179868,0.0,41.14,1.0102245250431778,0.0,0.0,0.0,0.0,7.767928600311279,0,0.0,0.0,0.0,0.0,0.0,0.0,0.0,0.0,0.0,0.0,0.0,0.0,7,1.0049790278805824,-0.490528633,0.01375872995,9.47976493555,-0.46959143524999997,-0.0191425808,9.71067231645,0.0149661974,-0.0001527163,0.0038179075,0.0155770626,0.0354301816,0.0103847084,-0.32242,1.34232,0.14098,-0.050679999999999996,0.5979399999999999,1.0135999999999998,-0.480060034125,-0.002691925425,9.595218626,0.015271630000000001,0.01763873265,0.00710130795,-0.18655,0.9701299999999999,0.5772899999999999,3.76576,0.94144,369.98592,40.11
1388,9022070,0,-824,14,15826,100,4,36,-2269,9623,941,-796,-51,16249,85,238,73,-369,4194,7300,-16,64,12592,39.06,0.999881569207994,0.0,41.14,1.0102541327411794,0.0,0.0,0.0,0.0,7.765158653259277,0,0.0,0.0,0.0,0.0,0.0,0.0,0.0,0.0,0.0,0.0,0.0,0.0,7,1.0050678509745867,-0.4929214556,0.0083748791,9.4672026169,-0.4761716974,-0.03050848815,9.72024360685,0.01527163,0.0006108652,0.0054977868,0.0129808855,0.0363464794,0.0111482899,-0.31766,1.3472199999999999,0.13174,-0.05166,0.5871599999999999,1.022,-0.4845465765,-0.011066804525,9.593723111875,0.01412625775,0.0184786723,0.008323038349999999,-0.18466,0.9671899999999999,0.57687,-0.47072,1.88288,370.45664,40.1
1389,9022318,0,-813,26,15831,103,-32,26,-2293,9632,979,-809,-60,16209,103,239,68,-372,4239,7282,0,80,12640,39.07,0.9998026153466568,0.0,41.13,1.0100567480878362,0.0,0.0,0.0,0.0,7.766266822814941,0,0.0,0.0,0.0,0.0,0.0,0.0,0.0,0.0,0.0,0.0,0.0,0.0,7,1.0049296817172464,-0.48634119345,0.015553346899999999,9.47019364515,-0.48394837085,-0.035892339,9.69631538085,0.0157297789,-0.0048869216,0.0039706238,0.0157297789,0.0364991957,0.0103847084,-0.32101999999999997,1.34848,0.13706,-0.052079999999999994,0.59346,1.01948,-0.48514478215,-0.01016949605,9.583254513,0.0157297789,0.015806137050000002,0.0071776661,-0.18655,0.9709699999999999,0.57827,0.0,2.3536,371.8688,40.1
1390,9022604,0,-823,18,15844,95,5,30,-2279,9630,953,-802,-44,16238,109,226,69,-370,4226,7277,0,80,12656,39.07,0.9998716999753268,0.0,41.14,1.010175178879842,0.0,0.0,0.0,0.0,7.765158653259277,0,0.0,0.0,0.0,0.0,0.0,0.0,0.0,0.0,0.0,0.0,0.0,0.0,7,1.0050234394275845,-0.49232324995,0.0107677017,9.4779703186,-0.47976093129999997,-0.0263210486,9.7136633447,0.0145080485,0.0007635815,0.004581489,0.0166460767,0.0345138838,0.0105374247,-0.31905999999999995,1.3481999999999998,0.13341999999999998,-0.0518,0.5916399999999999,1.01878,-0.486042090625,-0.00777667345,9.595816831650001,0.0155770626,0.01763873265,0.00755945685,-0.18542999999999998,0.9699199999999999,0.5761000000000001,0.0,2.3536,372.33952,40.105000000000004
1391,9022850,0,-835,37,15835,102,-26,43,-2293,9567,973,-785,-47,16233,111,232,62,-320,4228,7323,96,80,12576,39.06,0.9997828768813224,0.0,41.13,1.0102738712065138,0.0,0.0,0.0,0.0,7.762943267822266,0,0.0,0.0,0.0,0.0,0.0,0.0,0.0,0.0,0.0,0.0,0.0,0.0,7,1.005028374043918,-0.49950171774999996,0.02213360905,9.47258646775,-0.46959143524999997,-0.02811566555,9.71067231645,0.0155770626,-0.0039706238,0.0065668009,0.0169515093,0.0354301816,0.0094684106,-0.32101999999999997,1.3393799999999998,0.13621999999999998,-0.04479999999999999,0.59192,1.02522,-0.4845465765,-0.0029910282499999996,9.5916293921,0.01626428595,0.015729778899999998,0.00801760575,-0.18291,0.9656499999999999,0.58072,2.82432,2.3536,369.98592,40.095
1392,9023098,0,-835,28,15827,107,-16,33,-2322,9627,991,-800,-47,16260,97,250,61,-346,4213,7342,96,80,12576,39.07,0.9998026153466568,0.0,41.13,1.010165309647175,0.0,0.0,0.0,0.0,7.776790618896484,0,0.0,0.0,0.0,0.0,0.0,0.0,0.0,0.0,0.0,0.0,0.0,0.0,7,1.004983962496916,-0.49950171774999996,0.0167497582,9.46780082255,-0.47856452,-0.02811566555,9.726823869,0.0163406441,-0.0024434608,0.0050396379,0.0148134811,0.038179075,0.0093156943,-0.32508,1.34778,0.13873999999999997,-0.04844,0.5898199999999999,1.02788,-0.489033118875,-0.005682953675,9.597312345775,0.0155770626,0.0178678071,0.0071776661000000005,-0.18675999999999998,0.9687999999999999,0.58331,2.82432,2.3536,369.98592,40.1
1393,9023386,0,-844,44,15834,114,-20,34,-2324,9578,905,-788,-54,16216,107,211,67,-343,4229,7260,-32,112,12576,39.06,0.9997236614853195,0.0,41.14,1.0102541327411794,0.0,0.0,0.0,0.0,7.775682926177978,0,0.0,0.0,0.0,0.0,0.0,0.0,0.0,0.0,0.0,0.0,0.0,0.0,7,1.0049888971132495,-0.5048855686,0.0263210486,9.4719882621,-0.4713860522,-0.0323031051,9.7005028204,0.0174096582,-0.003054326,0.0051923542,0.0163406441,0.0322231393,0.0102319921,-0.32536,1.34092,0.12669999999999998,-0.04801999999999999,0.5920599999999999,1.0164,-0.4881358104,-0.0029910282499999996,9.586245541250001,0.01687515115,0.014584406650000001,0.0077121731499999995,-0.18669,0.9664899999999998,0.57155,-0.94144,3.29504,369.98592,40.1
1394,9023632,0,-816,34,15822,99,-29,29,-2285,9602,947,-799,-25,16229,116,242,66,-343,4215,7354,48,96,12592,39.07,0.9998716999753268,0.0,41.14,1.010293609671848,0.0,0.0,0.0,0.0,7.7640509605407715,0,0.0,0.0,0.0,0.0,0.0,0.0,0.0,0.0,0.0,0.0,0.0,0.0,7,1.0050826548235874,-0.4881358104,0.020338992099999998,9.464809794299999,-0.47796631435,-0.01495514125,9.70827949385,0.0151189137,-0.0044287727,0.0044287727,0.0177150908,0.0369573446,0.0100792758,-0.31989999999999996,1.34428,0.13257999999999998,-0.04801999999999999,0.5901,1.0295599999999998,-0.48305106237499995,0.002691925424999999,9.586544644075,0.01641700225,0.01626428595,0.00725402425,-0.18395999999999998,0.96719,0.5810699999999999,1.41216,2.82432,370.45664,40.105000000000004
