	packetType	timestamp_ms	imu1_accel_x	imu1_accel_y	imu1_accel_z	imu1_gyro_x	imu1_gyro_y	imu1_gyro_z	imu1_mag_x	imu1_mag_y	imu1_mag_z	imu2_accel_x	imu2_accel_y	imu2_accel_z	imu2_gyro_x	imu2_gyro_y	imu2_gyro_z	imu2_mag_x	imu2_mag_y	imu2_mag_z	high_g_accel_x	high_g_accel_y	high_g_accel_z	baro1_temp	baro1_pres	baro2_temp	baro2_pres	gps_lat	gps_long	gps_alt	gps_fix_quality	gps_sats_tracked	gps_hdop	battery_voltage	pyro_cont	trigger_status	heading	vtg	pos_x	pos_y	pos_z	vel_x	vel_y	vel_z	acc_x	acc_y	acc_z	q_x	q_y	q_z	q_w	state	gps_lat_mod	gps_long_mod	imu1_accel_x_real	imu1_accel_y_real	imu1_accel_z_real	imu2_accel_x_real	imu2_accel_y_real	imu2_accel_z_real	imu1_gyro_x_real	imu1_gyro_y_real	imu1_gyro_z_real	imu2_gyro_x_real	imu2_gyro_y_real	imu2_gyro_z_real	imu1_mag_x_real	imu1_mag_y_real	imu1_mag_z_real	imu2_mag_x_real	imu2_mag_y_real	imu2_mag_z_real	imu_accel_x_avg	imu_accel_y_avg	imu_accel_z_avg	imu_gyro_x_avg	imu_gyro_y_avg	imu_gyro_z_avg	imu_mag_x_avg	imu_mag_y_avg	imu_mag_z_avg	high_g_accel_x_real	high_g_accel_y_real	high_g_accel_z_real	baro_pres_avg	baro_temp_avg
9739	0	1031733	-66	1340	-64	23	-6	43	75	-38	190	-61	1330	-17	42	36	20	-171	370	1170	-288	144	16	51.12	0.9942955835183814	53.84	0.9936639526276831	4449.50732421875	-7309.7919921875	34.900001525878906	2	12	0.6100000143051147	8.082611083984375	3	0	0.0	0.0	0.0	0.0	-0.116020194611679	0.0	0.0	-0.3079154619605826	0.2907279458999999	0.4558327053	9.583254513	0.3418734669685364	-0.6075725555419922	0.3251770138740539	0.6389350891113281	6	44.8251220703125	-73.16319986979167	-0.4737788748	9.619146852	-0.4594219392	-0.43788653580000003	9.547362174	-0.12203395260000001	0.028099800855999998	-0.007330382832	0.052534410296	0.051312679824	0.043982296992	0.024434609439999998	0.0435	-0.02204	0.1102	-0.09918	0.2146	0.6786	-0.45583270530000003	9.583254513	-0.2907279459	0.03970624034	0.01832595708	0.038484509868	-0.027840000000000004	0.09628	0.3944	-8.47296	4.23648	0.47072	0.9939797680730322	52.480000000000004
9740	0	1031839	-69	1343	-69	27	-8	40	75	-38	190	-69	1337	-25	41	38	18	-171	370	1170	-304	80	-48	51.12	0.9942462373550456	53.84	0.9935455218356772	4449.50732421875	-7309.7919921875	34.900001525878906	2	12	0.6100000143051147	8.1051025390625	3	0	0.0	0.0	0.0	0.0	-0.0359429734354344	0.0	0.0	-0.2134189987743354	0.3373879865999999	0.4953142781999999	9.619146852	0.3416863083839416	-0.6076555848121643	0.3251528739929199	0.6389685869216919	6	44.8251220703125	-73.16319986979167	-0.4953142782	9.6406822554	-0.4953142782	-0.4953142782	9.5976114486	-0.179461695	0.032986722744	-0.009773843776	0.048869218879999995	0.050090949351999994	0.046425757936	0.021991148496	0.0435	-0.02204	0.1102	-0.09918	0.2146	0.6786	-0.4953142782	9.619146852	-0.3373879866	0.041538836047999995	0.01832595708	0.035430183687999994	-0.027840000000000004	0.09628	0.3944	-8.94368	2.3536	-1.41216	0.9938958795953614	52.480000000000004
9741	0	1031944	-65	1340	-62	29	-5	43	85	-50	216	-58	1338	-20	41	34	23	-167	377	1156	-336	80	16	51.11	0.9940488527017024	53.84	0.993713298791019	4449.50732421875	-7309.7919921875	34.900001525878906	2	12	0.6100000143051147	8.090789794921875	3	0	0.0	0.0	0.0	0.0	-0.0998980696625028	0.0	0.0	-0.2770962305555315	0.2943171797999999	0.4414757696999999	9.6119683842	0.3415153622627258	-0.6077978014945984	0.3251350820064544	0.6389337778091431	6	44.8251220703125	-73.16319986979167	-0.466600407	9.619146852	-0.4450650036	-0.4163511324	9.6047899164	-0.143569356	0.035430183688	-0.0061086523599999994	0.052534410296	0.050090949351999994	0.041538836047999995	0.028099800855999998	0.049300000000000004	-0.029	0.12528	-0.09686	0.21866	0.67048	-0.4414757697	9.6119683842	-0.2943171798	0.04276056652	0.017715091843999997	0.040317105576	-0.02378	0.09483	0.39788	-9.88512	2.3536	0.47072	0.9938810757463608	52.475
9742	0	1032050	-59	1344	-64	30	-4	44	85	-50	216	-52	1336	-14	42	38	21	-167	377	1156	-256	112	-128	51.12	0.9941179373303726	53.86	0.9936442141623488	4449.50732421875	-7309.7919921875	34.900001525878906	2	12	0.6100000143051147	8.0887451171875	3	0	0.0	0.0	0.0	0.0	-0.1019854172791492	0.0	0.0	-0.267082551182265	0.2799602442	0.3984049628999999	9.619146852	0.3414307534694671	-0.6079801321029663	0.3251085877418518	0.6388189792633057	6	44.8251220703125	-73.16319986979167	-0.4235296002	9.6478607232	-0.4594219392	-0.3732803256	9.590432980800001	-0.10049854920000001	0.03665191416	-0.004886921888	0.053756140768	0.051312679824	0.046425757936	0.025656339912	0.049300000000000004	-0.029	0.12528	-0.09686	0.21866	0.67048	-0.39840496290000005	9.619146852	-0.2799602442	0.043982296992	0.020769418023999998	0.03970624034	-0.02378	0.09483	0.39788	-7.53152	3.29504	-3.76576	0.9938810757463608	52.489999999999995
9743	0	1032155	-57	1343	-62	28	-2	44	62	-54	225	-54	1337	-19	43	40	22	-145	386	1162	-176	128	16	51.11	0.9939995065383668	53.84	0.9935948679990132	4449.50732421875	-7309.7919921875	34.900001525878906	2	12	0.6100000143051147	8.097946166992188	3	0	0.0	0.0	0.0	0.0	-0.1436762341170792	0.0	0.0	-0.3008602151273387	0.2907279458999999	0.3984049628999999	9.619146852	0.3415175080299377	-0.6080397367477417	0.325171560049057	0.6386839151382446	6	44.8251220703125	-73.16319986979167	-0.4091726646	9.6406822554	-0.4450650036	-0.3876372612	9.5976114486	-0.1363908882	0.034208453215999995	-0.002443460944	0.053756140768	0.052534410296	0.048869218879999995	0.026878070384	0.03596	-0.03132	0.1305	-0.0841	0.22388	0.67396	-0.39840496290000005	9.619146852	-0.2907279459	0.043371431756	0.023212878968	0.040317105576	-0.024069999999999998	0.09628	0.40223	-5.17792	3.76576	0.47072	0.9937971872686899	52.475
9744	0	1032261	-61	1347	-66	29	-7	47	62	-54	225	-58	1332	-18	41	42	24	-145	386	1162	-208	160	16	51.11	0.9939304219096964	53.85	0.9936738218603504	4449.50732421875	-7309.7919921875	34.900001525878906	2	12	0.6100000143051147	8.0887451171875	3	0	0.0	0.0	0.0	0.0	-0.1642581419161886	0.0	0.0	-0.3066291263140662	0.3014956475999999	0.4271188340999999	9.6155576181	0.3417332768440246	-0.6080352663993835	0.3251282870769501	0.6385947465896606	6	44.8251220703125	-73.16319986979167	-0.43788653580000003	9.6693961266	-0.4737788748	-0.4163511324	9.5617191096	-0.1292124204	0.035430183688	-0.008552113303999999	0.057421332183999994	0.050090949351999994	0.051312679824	0.029321531328	0.03596	-0.03132	0.1305	-0.0841	0.22388	0.67396	-0.4271188341	9.6155576181	-0.3014956476	0.04276056652	0.02138028326	0.043371431756	-0.024069999999999998	0.09628	0.40223	-6.11936	4.7072	0.47072	0.9938021218850234	52.480000000000004
9745	0	1032366	-61	1338	-64	32	0	46	72	-46	243	-63	1334	-16	42	40	27	-171	378	1183	-304	80	0	51.1	0.9940389834690352	53.84	0.993772514187022	4449.50732421875	-7309.7919921875	34.900001525878906	2	12	0.6100000143051147	8.090278625488281	3	0	0.0	0.0	0.0	0.0	-0.1664922931102507	0.0	0.0	-0.2969403372528117	0.2871387119999999	0.4450650036	9.5904329808	0.3419798016548157	-0.6079697012901306	0.3251053988933563	0.638536810874939	6	44.8251220703125	-73.16319986979167	-0.43788653580000003	9.6047899164	-0.4594219392	-0.45224347140000004	9.5760760452	-0.1148554848	0.039095375104	0.0	0.056199601711999995	0.051312679824	0.048869218879999995	0.032986722744	0.04176	-0.02668	0.14094	-0.09918	0.21924	0.68614	-0.4450650036	9.5904329808	-0.287138712	0.045204027464	0.024434609439999998	0.044593162228	-0.028710000000000003	0.09627999999999999	0.41354	-8.94368	2.3536	0.0	0.9939057488280285	52.47
9746	0	1032472	-73	1337	-70	26	-4	45	72	-46	243	-66	1337	-18	39	40	23	-171	378	1183	-240	128	16	51.11	0.9941574142610412	53.85	0.9936244756970144	4449.50732421875	-7309.7919921875	34.900001525878906	2	12	0.6100000143051147	8.090789794921875	3	0	0.0	0.0	0.0	0.0	-0.1390497419495267	0.0	0.0	-0.258559396191322	0.3158525832	0.4989035120999999	9.5976114486	0.3421032726764679	-0.6079842448234558	0.3250594735145569	0.6384801268577576	6	44.8251220703125	-73.16319986979167	-0.5240281494	9.5976114486	-0.502492746	-0.4737788748	9.5976114486	-0.1292124204	0.031764992272	-0.004886921888	0.05497787124	0.047647488408	0.048869218879999995	0.028099800855999998	0.04176	-0.02668	0.14094	-0.09918	0.21924	0.68614	-0.4989035121	9.5976114486	-0.31585258320000004	0.03970624034	0.021991148495999997	0.041538836047999995	-0.028710000000000003	0.09627999999999999	0.41354	-7.0608	3.76576	0.47072	0.9938909449790279	52.480000000000004
9747	0	1032577	-73	1341	-68	28	-9	42	66	-53	245	-67	1343	-14	40	36	22	-153	393	1195	-304	48	-48	51.11	0.9941574142610412	53.84	0.9938119911176906	4449.50732421875	-7309.7919921875	34.900001525878906	2	12	0.6100000143051147	8.0887451171875	3	0	0.0	0.0	0.0	0.0	-0.1602410799320372	0.0	0.0	-0.275445441083253	0.2943171798	0.5024927459999999	9.6335037876	0.3473710715770721	-0.6022642254829407	0.3269260823726654	0.6401020288467407	6	44.8251220703125	-73.16319986979167	-0.5240281494	9.626325319800001	-0.48813581040000004	-0.4809573426	9.6406822554	-0.10049854920000001	0.034208453215999995	-0.010995574248	0.051312679824	0.048869218879999995	0.043982296992	0.026878070384	0.03828	-0.03074	0.1421	-0.08874	0.22794	0.6931	-0.5024927459999999	9.6335037876	-0.29431717980000005	0.041538836047999995	0.016493361372	0.039095375104	-0.02523	0.09860000000000001	0.4176	-8.94368	1.41216	-1.41216	0.9939847026893659	52.475
9748	0	1032682	-60	1345	-60	25	-9	42	66	-53	245	-60	1331	-17	43	32	19	-137	386	1169	-256	192	0	51.12	0.9941179373303726	53.84	0.9936639526276831	4449.50732421875	-7309.7919921875	34.900001525878906	2	12	0.6100000143051147	8.082099914550781	3	0	0.0	0.0	0.0	0.0	-0.1558595954999271	0.0	0.0	-0.2600134648797317	0.2763710103	0.4307080679999999	9.604789916399998	0.3471327424049377	-0.6024076342582703	0.3269113302230835	0.6401038765907288	6	44.8251220703125	-73.16319986979167	-0.430708068	9.655039191	-0.430708068	-0.430708068	9.554540641800001	-0.12203395260000001	0.0305432618	-0.010995574248	0.051312679824	0.052534410296	0.039095375104	0.023212878968	0.03828	-0.03074	0.1421	-0.07946	0.22388	0.67802	-0.430708068	9.604789916400001	-0.2763710103	0.041538836048	0.014049900427999999	0.037262779396	-0.02059	0.09657	0.41006	-7.53152	5.64864	0.0	0.9938909449790279	52.480000000000004
9749	0	1032788	-54	1348	-64	28	-7	43	42	-45	214	-58	1336	-17	39	38	20	-137	386	1169	-208	-16	80	51.1	0.9942067604243772	53.84	0.9936639526276831	4449.50732421875	-7309.7919921875	34.900001525878906	2	12	0.6100000143051147	8.09283447265625	3	0	0.0	0.0	0.0	0.0	-0.2418680923327665	0.0	0.0	-0.3406905283871182	0.2907279458999999	0.4019941968	9.6335037876	0.3468785285949707	-0.6024969816207886	0.3269546627998352	0.6401354074478149	6	44.8251220703125	-73.16319986979167	-0.3876372612	9.6765745944	-0.4594219392	-0.4163511324	9.590432980800001	-0.12203395260000001	0.034208453215999995	-0.008552113303999999	0.052534410296	0.047647488408	0.046425757936	0.024434609439999998	0.02436	-0.0261	0.12412	-0.07946	0.22388	0.67802	-0.40199419680000004	9.6335037876	-0.2907279459	0.040927970811999996	0.018936822316	0.038484509868	-0.02755	0.09888999999999999	0.40107	-6.11936	-0.47072	2.3536	0.9939353565260302	52.47
9750	0	1032893	-57	1345	-64	27	-4	46	42	-45	214	-55	1338	-17	41	39	23	-158	413	1207	-224	176	16	51.12	0.9939008142116952	53.85	0.9936738218603504	4449.50732421875	-7309.7919921875	34.900001525878906	2	12	0.6100000143051147	8.089767456054688	3	0	0.0	0.0	0.0	0.0	-0.1711944746568345	0.0	0.0	-0.2512536574285713	0.2907279458999999	0.4019941967999999	9.6299145537	0.3468436300754547	-0.602531373500824	0.326976478099823	0.6401109099388123	6	44.8251220703125	-73.16319986979167	-0.4091726646	9.655039191	-0.4594219392	-0.394815729	9.6047899164	-0.12203395260000001	0.032986722744	-0.004886921888	0.056199601711999995	0.050090949351999994	0.047647488408	0.028099800855999998	0.02436	-0.0261	0.12412	-0.09164	0.23954	0.70006	-0.40199419680000004	9.6299145537	-0.2907279459	0.041538836047999995	0.021380283259999997	0.042149701283999995	-0.03364	0.10672	0.41209	-6.59008	5.17792	0.47072	0.9937873180360228	52.485
9751	0	1032999	-69	1342	-67	29	-4	46	69	-43	254	-61	1338	-17	39	38	23	-158	413	1207	-304	160	0	51.12	0.9939501603750308	53.84	0.993703429558352	4449.50732421875	-7309.7919921875	34.900001525878906	2	12	0.6100000143051147	8.089767456054688	3	0	0.0	0.0	0.0	0.0	-0.1623140588608383	0.0	0.0	-0.2332026009929762	0.3014956475999999	0.4666004069999999	9.619146852	0.3469263613224029	-0.6025344133377075	0.3269438147544861	0.6400798559188843	6	44.8251220703125	-73.16319986979167	-0.4953142782	9.6335037876	-0.4809573426	-0.43788653580000003	9.6047899164	-0.12203395260000001	0.035430183688	-0.004886921888	0.056199601711999995	0.047647488408	0.046425757936	0.028099800855999998	0.04002	-0.02494	0.14732	-0.09164	0.23954	0.70006	-0.46660040700000005	9.619146852	-0.3014956476	0.041538836048	0.020769418023999998	0.042149701283999995	-0.02581	0.1073	0.42369	-8.94368	4.7072	0.0	0.9938267949666915	52.480000000000004
9752	0	1033104	-63	1343	-63	29	-1	49	52	-50	210	-58	1339	-21	39	38	26	-139	384	1171	-256	160	16	51.12	0.9941870219590428	53.85	0.9935652603010116	4449.50732421875	-7309.7919921875	34.900001525878906	2	12	0.6100000143051147	8.090789794921875	3	0	0.0	0.0	0.0	0.0	-0.2052712891206598	0.0	0.0	-0.2726039560815319	0.3014956475999999	0.4342973019	9.6263253198	0.3470928072929382	-0.6024264693260193	0.3268749713897705	0.6401263475418091	6	44.8251220703125	-73.16319986979167	-0.45224347140000004	9.6406822554	-0.45224347140000004	-0.4163511324	9.6119683842	-0.1507478238	0.035430183688	-0.001221730472	0.059864793128	0.047647488408	0.046425757936	0.031764992272	0.03016	-0.029	0.1218	-0.08062	0.22272	0.67918	-0.43429730190000004	9.6263253198	-0.3014956476	0.041538836048	0.022602013732	0.0458148927	-0.02523	0.09686	0.40049	-7.53152	4.7072	0.47072	0.9938761411300272	52.485
9753	0	1033210	-72	1339	-63	28	0	45	52	-50	210	-70	1333	-15	41	41	24	-139	384	1171	-176	160	48	51.12	0.9941771527263756	53.84	0.9935455218356772	4449.50732421875	-7309.7919921875	34.900001525878906	2	12	0.6100000143051147	8.10919189453125	3	0	0.0	0.0	0.0	0.0	-0.1868132494781301	0.0	0.0	-0.2470834511478499	0.2799602442	0.5096712137999999	9.5904329808	0.3472136557102203	-0.6023975610733032	0.3268429338932037	0.6401044130325317	6	44.8251220703125	-73.16319986979167	-0.5168496816	9.6119683842	-0.45224347140000004	-0.502492746	9.5688975774	-0.107677017	0.034208453215999995	0.0	0.05497787124	0.050090949351999994	0.050090949351999994	0.029321531328	0.03016	-0.029	0.1218	-0.08062	0.22272	0.67918	-0.5096712138	9.5904329808	-0.27996024420000004	0.042149701283999995	0.025045474675999997	0.042149701284	-0.02523	0.09686	0.40049	-5.17792	4.7072	1.41216	0.9938613372810264	52.480000000000004
9754	0	1033315	-66	1340	-60	28	-6	43	62	-33	225	-66	1330	-16	40	39	17	-142	372	1156	-160	128	0	51.11	0.9940981988650384	53.85	0.9937231680236862	4449.50732421875	-7309.7919921875	34.900001525878906	2	12	0.6100000143051147	8.09283447265625	3	0	0.0	0.0	0.0	0.0	-0.2493219671498414	0.0	0.0	-0.3047718616562794	0.2727817763999999	0.4737788747999999	9.583254513	0.3471386134624481	-0.6024932265281677	0.3269131481647491	0.6400191187858582	6	44.8251220703125	-73.16319986979167	-0.4737788748	9.619146852	-0.430708068	-0.4737788748	9.547362174	-0.1148554848	0.034208453215999995	-0.007330382832	0.052534410296	0.048869218879999995	0.047647488408	0.020769418023999998	0.03596	-0.01914	0.1305	-0.08236	0.21576	0.67048	-0.4737788748	9.583254513	-0.2727817764	0.041538836047999995	0.020158552788	0.03665191416	-0.023200000000000002	0.09831000000000001	0.40049	-4.7072	3.76576	0.0	0.9939106834443623	52.480000000000004
9755	0	1033421	-64	1343	-71	29	-6	43	62	-33	225	-57	1328	-18	40	35	21	-142	372	1156	-272	64	-112	51.11	0.9940389834690352	53.85	0.9937823834196892	4449.50732421875	-7309.7919921875	34.900001525878906	2	12	0.6100000143051147	8.11328125	3	0	0.0	0.0	0.0	0.0	-0.3056629731241668	0.0	0.0	-0.3531620262162074	0.3194418170999999	0.4342973018999999	9.5868437469	0.3469878435134887	-0.6025956869125366	0.3268641531467438	0.6400294303894043	6	44.8251220703125	-73.16319986979167	-0.4594219392	9.6406822554	-0.5096712138	-0.4091726646	9.533005238400001	-0.1292124204	0.035430183688	-0.007330382832	0.052534410296	0.048869218879999995	0.042760566519999994	0.025656339912	0.03596	-0.01914	0.1305	-0.08236	0.21576	0.67048	-0.43429730190000004	9.586843746900001	-0.3194418171	0.042149701284	0.017715091843999997	0.039095375104	-0.023200000000000002	0.09831000000000001	0.40049	-8.00224	1.88288	-3.29504	0.9939106834443622	52.480000000000004
9756	0	1033526	-65	1340	-61	26	-6	40	49	-39	209	-58	1330	-21	38	36	20	-153	371	1171	-272	128	48	51.12	0.9944633604737232	53.85	0.9936146064643474	4449.50732421875	-7309.7919921875	34.900001525878906	2	12	0.6100000143051147	8.106124877929688	3	0	0.0	0.0	0.0	0.0	-0.3713831542508251	0.0	0.0	-0.4042294100383768	0.2943171798	0.4414757696999999	9.583254513	0.3467726111412048	-0.6026608347892761	0.3269306123256683	0.6400509476661682	6	44.8251220703125	-73.16319986979167	-0.466600407	9.619146852	-0.43788653580000003	-0.4163511324	9.547362174	-0.1507478238	0.031764992272	-0.007330382832	0.048869218879999995	0.046425757936	0.043982296992	0.024434609439999998	0.02842	-0.02262	0.12122	-0.08874	0.21518	0.67918	-0.4414757697	9.583254513	-0.29431717980000005	0.039095375104	0.01832595708	0.03665191415999999	-0.03016	0.09628	0.4002	-8.00224	3.76576	1.41216	0.9940389834690353	52.485
9757	0	1033631	-63	1342	-65	26	-3	44	49	-39	209	-54	1335	-25	41	38	22	-153	371	1171	-304	96	-32	51.11	0.9941672834937084	53.84	0.993713298791019	4449.50732421875	-7309.7919921875	34.900001525878906	2	12	0.6100000143051147	8.09283447265625	3	0	0.0	0.0	0.0	0.0	-0.2815398574283307	0.0	0.0	-0.2898272855006513	0.3230310509999999	0.4199403663	9.6083791503	0.3425695896148681	-0.6060435771942139	0.3243077993392944	0.6404542922973633	6	44.8251220703125	-73.16319986979167	-0.45224347140000004	9.6335037876	-0.466600407	-0.3876372612	9.583254513	-0.179461695	0.031764992272	-0.003665191416	0.053756140768	0.050090949351999994	0.046425757936	0.026878070384	0.02842	-0.02262	0.12122	-0.08874	0.21518	0.67918	-0.41994036630000003	9.6083791503	-0.323031051	0.040927970811999996	0.02138028326	0.040317105576	-0.03016	0.09628	0.4002	-8.94368	2.82432	-0.94144	0.9939402911423637	52.475
9758	0	1033737	-61	1342	-62	28	-1	43	63	-29	231	-60	1332	-18	41	36	21	-158	388	1168	-272	128	48	51.12	0.9940587219343696	53.85	0.9935652603010116	4449.50732421875	-7309.7919921875	34.900001525878906	2	12	0.6100000143051147	8.09283447265625	3	0	0.0	0.0	0.0	0.0	-0.1890620678020095	0.0	0.0	-0.183400955818185	0.2871387119999999	0.4342973018999999	9.5976114486	0.3425314128398895	-0.6060991883277893	0.3242212533950805	0.6404659748077393	6	44.8251220703125	-73.16319986979167	-0.43788653580000003	9.6335037876	-0.4450650036	-0.430708068	9.5617191096	-0.1292124204	0.034208453215999995	-0.001221730472	0.052534410296	0.050090949351999994	0.043982296992	0.025656339912	0.03654	-0.01682	0.13398	-0.09164	0.22504	0.67744	-0.43429730190000004	9.5976114486	-0.287138712	0.042149701283999995	0.02138028326	0.039095375104	-0.027549999999999998	0.10411	0.40571	-8.00224	3.76576	1.41216	0.9938119911176906	52.485
9759	0	1033842	-61	1344	-68	25	3	45	63	-29	231	-56	1338	-21	40	40	22	-158	388	1168	-304	144	-64	51.12	0.9940587219343696	53.84	0.9936047372316802	4449.50732421875	-7309.7919921875	34.900001525878906	2	12	0.6100000143051147	8.091812133789062	3	0	0.0	0.0	0.0	0.0	-0.0292470563125817	0.0	0.0	-0.0203171415680561	0.3194418170999999	0.4199403663	9.6263253198	0.3426373302936554	-0.6060153841972351	0.3241938352584839	0.6405024528503418	6	44.8251220703125	-73.16319986979167	-0.43788653580000003	9.6478607232	-0.48813581040000004	-0.40199419680000004	9.6047899164	-0.1507478238	0.0305432618	0.003665191416	0.05497787124	0.048869218879999995	0.048869218879999995	0.026878070384	0.03654	-0.01682	0.13398	-0.09164	0.22504	0.67744	-0.41994036630000003	9.6263253198	-0.3194418171	0.03970624034	0.026267205147999996	0.040927970811999996	-0.027549999999999998	0.10411	0.40571	-8.94368	4.23648	-1.88288	0.9938317295830249	52.480000000000004
9760	0	1033948	-59	1338	-63	31	-2	48	56	-47	227	-63	1338	-19	44	39	24	-160	386	1192	-272	96	48	51.11	0.9942758450530472	53.85	0.9936836910930176	4449.50732421875	-7309.7919921875	34.900001525878906	2	12	0.6100000143051147	8.085678100585938	3	0	0.0	0.0	0.0	0.0	-0.0551088902111773	0.0	0.0	-0.0675746374378606	0.2943171798	0.4378865358	9.6047899164	0.342766523361206	-0.605983316898346	0.3241655826568603	0.6404780745506287	6	44.8251220703125	-73.16319986979167	-0.4235296002	9.6047899164	-0.45224347140000004	-0.45224347140000004	9.6047899164	-0.1363908882	0.037873644632	-0.002443460944	0.058643062656	0.053756140768	0.047647488408	0.029321531328	0.03248	-0.02726	0.13166	-0.0928	0.22388	0.69136	-0.43788653580000003	9.6047899164	-0.29431717980000005	0.0458148927	0.022602013732	0.043982296992	-0.030159999999999996	0.09831	0.41151	-8.00224	2.82432	1.41216	0.9939797680730325	52.480000000000004
9761	0	1034053	-66	1348	-63	26	-1	46	56	-47	227	-66	1338	-15	38	35	20	-160	386	1192	-304	32	-112	51.12	0.9940093757710338	53.85	0.9936738218603504	4449.50732421875	-7309.7919921875	34.900001525878906	2	12	0.6100000143051147	8.083633422851562	3	0	0.0	0.0	0.0	0.0	0.0127878789183656	0.0	0.0	-0.0110534728816241	0.2799602442	0.4737788747999999	9.6406822554	0.3428523242473602	-0.6060208678245544	0.3241829872131347	0.6403877139091492	6	44.8251220703125	-73.16319986979167	-0.4737788748	9.6765745944	-0.45224347140000004	-0.4737788748	9.6047899164	-0.107677017	0.031764992272	-0.001221730472	0.056199601711999995	0.046425757936	0.042760566519999994	0.024434609439999998	0.03248	-0.02726	0.13166	-0.0928	0.22388	0.69136	-0.4737788748	9.6406822554	-0.27996024420000004	0.039095375104	0.020769418023999998	0.040317105576	-0.030159999999999996	0.09831	0.41151	-8.94368	0.94144	-3.29504	0.9938415988156921	52.485
9762	0	1034159	-73	1341	-62	27	-4	43	71	-31	221	-65	1334	-12	42	38	20	-162	404	1196	-304	80	-64	51.11	0.9941080680977054	53.84	0.9936047372316802	4449.50732421875	-7309.7919921875	34.900001525878906	2	12	0.6100000143051147	8.10101318359375	3	0	0.0	0.0	0.0	0.0	0.0045227996605644	0.0	0.0	-0.0370556693031594	0.2656033086	0.4953142781999999	9.6012006825	0.3428185284137726	-0.606100857257843	0.3242328464984894	0.6403049230575562	6	44.8251220703125	-73.16319986979167	-0.5240281494	9.626325319800001	-0.4450650036	-0.466600407	9.5760760452	-0.0861416136	0.032986722744	-0.004886921888	0.052534410296	0.051312679824	0.046425757936	0.024434609439999998	0.04118	-0.01798	0.12818	-0.09396	0.23432	0.69368	-0.49531427819999996	9.6012006825	-0.26560330860000003	0.042149701284	0.020769418023999998	0.038484509868	-0.02639	0.10817	0.41092999999999996	-8.94368	2.3536	-1.88288	0.9938564026646928	52.475
9763	0	1034264	-60	1345	-66	26	-3	45	71	-31	221	-60	1334	-16	41	34	22	-153	431	1148	-304	128	-16	51.12	0.9941278065630396	53.84	0.9935553910683445	4449.50732421875	-7309.7919921875	34.900001525878906	2	12	0.6100000143051147	8.087722778320312	3	0	0.0	0.0	0.0	0.0	0.0677303106817324	0.0	0.0	0.0130879740606499	0.2943171798	0.4307080679999999	9.6155576181	0.342688500881195	-0.6062228679656982	0.3242198526859283	0.6402655839920044	6	44.8251220703125	-73.16319986979167	-0.430708068	9.655039191	-0.4737788748	-0.430708068	9.5760760452	-0.1148554848	0.031764992272	-0.003665191416	0.05497787124	0.050090949351999994	0.041538836047999995	0.026878070384	0.04118	-0.01798	0.12818	-0.08874	0.24998	0.66584	-0.430708068	9.6155576181	-0.2943171798	0.040927970811999996	0.018936822315999996	0.040927970811999996	-0.02378	0.116	0.39701	-8.94368	3.76576	-0.47072	0.993841598815692	52.480000000000004
9764	0	1034370	-51	1346	-59	21	-3	41	90	-51	262	-56	1336	-9	39	35	21	-153	431	1148	-256	64	-48	51.11	0.9938810757463608	53.84	0.993703429558352	4449.50732421875	-7309.7919921875	34.900001525878906	2	12	0.6100000143051147	8.08056640625	3	0	0.0	0.0	0.0	0.0	0.1338626428832916	0.0	0.0	0.0605821775268601	0.2440679052	0.3840480273	9.6263253198	0.342562198638916	-0.6062873005867004	0.32424396276474	0.6402599215507507	6	44.8251220703125	-73.16319986979167	-0.36610185780000004	9.6622176588	-0.4235296002	-0.40199419680000004	9.590432980800001	-0.0646062102	0.025656339912	-0.003665191416	0.050090949351999994	0.047647488408	0.042760566519999994	0.025656339912	0.0522	-0.02958	0.15196	-0.08874	0.24998	0.66584	-0.38404802730000004	9.6263253198	-0.24406790520000002	0.03665191416	0.019547687551999995	0.037873644632	-0.018269999999999998	0.1102	0.4089	-7.53152	1.88288	-1.41216	0.9937922526523564	52.475
9765	0	1034475	-58	1335	-61	28	-5	43	90	-51	262	-59	1340	-17	42	38	24	-149	389	1174	-224	128	-64	51.11	0.9940389834690352	53.84	0.9935948679990132	4449.50732421875	-7309.7919921875	34.900001525878906	2	12	0.6100000143051147	8.0723876953125	3	0	0.0	0.0	0.0	0.0	0.0252192937659335	0.0	0.0	-0.0756837202404922	0.2799602442	0.4199403663	9.6012006825	0.342531681060791	-0.6063504815101624	0.3241668939590454	0.6402555108070374	6	44.8251220703125	-73.16319986979167	-0.4163511324	9.583254513	-0.43788653580000003	-0.4235296002	9.619146852	-0.12203395260000001	0.034208453215999995	-0.0061086523599999994	0.052534410296	0.051312679824	0.046425757936	0.029321531328	0.0522	-0.02958	0.15196	-0.08642	0.22562000000000001	0.68092	-0.4199403663	9.6012006825	-0.27996024420000004	0.04276056652	0.020158552788	0.040927970812	-0.017109999999999997	0.09802000000000001	0.41644	-6.59008	3.76576	-1.88288	0.9938169257340241	52.475
9766	0	1034580	-61	1344	-68	23	-5	45	73	-55	217	-65	1335	-18	38	40	24	-149	389	1174	-192	176	80	51.12	0.9940685911670368	53.85	0.9935159141376758	4449.50732421875	-7309.7919921875	34.900001525878906	2	12	0.6100000143051147	8.0887451171875	3	0	0.0	0.0	0.0	0.0	-0.0244776989666425	0.0	0.0	-0.1393351588530652	0.3086741154	0.4522434714	9.6155576181	0.3157531321048736	-0.6195346117019653	0.2994448840618133	0.6533067226409912	6	44.8251220703125	-73.16319986979167	-0.43788653580000003	9.6478607232	-0.48813581040000004	-0.466600407	9.583254513	-0.1292124204	0.028099800855999998	-0.0061086523599999994	0.05497787124	0.046425757936	0.048869218879999995	0.029321531328	0.04234	-0.0319	0.12586	-0.08642	0.22562000000000001	0.68092	-0.4522434714	9.6155576181	-0.3086741154	0.037262779396	0.021380283259999997	0.042149701284	-0.022039999999999997	0.09686	0.40338999999999997	-5.64864	5.17792	2.3536	0.9937922526523564	52.485
9767	0	1034686	-65	1348	-69	28	-1	46	73	-55	217	-65	1332	-22	42	38	25	-144	406	1161	-320	160	0	51.12	0.9941278065630396	53.85	0.9935060449050086	4449.50732421875	-7309.7919921875	34.900001525878906	2	12	0.6100000143051147	8.1051025390625	3	0	0.0	0.0	0.0	0.0	0.0006181597374417	0.0	0.0	-0.1177493887589072	0.3266202848999999	0.4666004069999999	9.619146852	0.3158629536628723	-0.6195502877235413	0.2993698120117187	0.6532732248306274	6	44.8251220703125	-73.16319986979167	-0.466600407	9.6765745944	-0.4953142782	-0.466600407	9.5617191096	-0.15792629160000002	0.034208453215999995	-0.001221730472	0.056199601711999995	0.051312679824	0.046425757936	0.0305432618	0.04234	-0.0319	0.12586	-0.08352	0.23548	0.67338	-0.466600407	9.619146852	-0.3266202849	0.04276056652	0.022602013732	0.043371431756	-0.020589999999999997	0.10178999999999999	0.39962	-9.4144	4.7072	0.0	0.9938169257340241	52.485
9768	0	1034791	-68	1342	-68	28	-1	44	76	-21	195	-63	1336	-20	41	39	21	-144	406	1161	-240	80	-16	51.11	0.9942067604243772	53.84	0.993654083395016	4449.50732421875	-7309.7919921875	34.900001525878906	2	12	0.6100000143051147	8.089767456054688	3	0	0.0	0.0	0.0	0.0	-0.0742691271470584	0.0	0.0	-0.2021914150282106	0.3158525832	0.4701896409	9.6119683842	0.3159320652484894	-0.6196281909942627	0.2993735671043396	0.6531641483306885	6	44.8251220703125	-73.16319986979167	-0.48813581040000004	9.6335037876	-0.48813581040000004	-0.45224347140000004	9.590432980800001	-0.143569356	0.034208453215999995	-0.001221730472	0.053756140768	0.050090949351999994	0.047647488408	0.025656339912	0.04408	-0.01218	0.1131	-0.08352	0.23548	0.67338	-0.47018964090000004	9.6119683842	-0.31585258320000004	0.042149701283999995	0.023212878968	0.03970624034	-0.019719999999999998	0.11165	0.39324	-7.0608	2.3536	-0.47072	0.9939304219096966	52.475
9769	0	1034897	-66	1340	-63	29	-3	43	82	-60	232	-57	1333	-20	40	39	21	-170	406	1210	-240	128	0	51.1	0.994147545028374	53.84	0.9936047372316802	4449.50732421875	-7309.7919921875	34.900001525878906	2	12	0.6100000143051147	8.0887451171875	3	0	0.0	0.0	0.0	0.0	-0.0703911014418232	0.0	0.0	-0.1960474678990866	0.2979064137	0.4414757696999999	9.5940222147	0.31590136885643	-0.6197513341903687	0.2994105517864227	0.653045117855072	6	44.8251220703125	-73.16319986979167	-0.4737788748	9.619146852	-0.45224347140000004	-0.4091726646	9.5688975774	-0.143569356	0.035430183688	-0.003665191416	0.052534410296	0.048869218879999995	0.047647488408	0.025656339912	0.04756	-0.0348	0.13456	-0.09860000000000001	0.23548	0.7018	-0.4414757697	9.5940222147	-0.29790641370000004	0.042149701284	0.021991148496	0.039095375104	-0.025520000000000004	0.10034	0.41818	-7.0608	3.76576	0.0	0.9938761411300271	52.47
9770	0	1035002	-62	1337	-66	26	-6	40	82	-60	232	-59	1332	-12	45	37	21	-170	406	1210	-208	144	32	51.11	0.9938810757463608	53.85	0.9936146064643474	4449.50732421875	-7309.7919921875	34.900001525878906	2	12	0.6100000143051147	8.073410034179688	3	0	0.0	0.0	0.0	0.0	-0.0803066529494411	0.0	0.0	-0.2063775524165518	0.2799602442	0.4342973018999999	9.5796652791	0.3158182501792907	-0.6199073791503906	0.2994548380374908	0.6529169082641602	6	44.8251220703125	-73.16319986979167	-0.4450650036	9.5976114486	-0.4737788748	-0.4235296002	9.5617191096	-0.0861416136	0.031764992272	-0.007330382832	0.048869218879999995	0.05497787124	0.045204027464	0.025656339912	0.04756	-0.0348	0.13456	-0.09860000000000001	0.23548	0.7018	-0.43429730190000004	9.5796652791	-0.2799602442	0.043371431756	0.018936822316	0.037262779396	-0.025520000000000004	0.10034	0.41818	-6.11936	4.23648	0.94144	0.9937478411053541	52.480000000000004
9771	0	1035108	-69	1344	-68	27	-5	43	80	-60	270	-57	1336	-13	44	39	21	-124	409	1147	-272	96	-32	51.12	0.9940685911670368	53.84	0.9934468295090056	4449.50732421875	-7309.7919921875	34.900001525878906	2	12	0.6100000143051147	8.099479675292969	3	0	0.0	0.0	0.0	0.0	-0.0681654665100937	0.0	0.0	-0.1896491705622369	0.2907279459	0.4522434714	9.619146852	0.3156826198101043	-0.6200214624404907	0.2994645535945892	0.6528697609901428	6	44.8251220703125	-73.16319986979167	-0.4953142782	9.6478607232	-0.48813581040000004	-0.4091726646	9.590432980800001	-0.0933200814	0.032986722744	-0.0061086523599999994	0.052534410296	0.053756140768	0.047647488408	0.025656339912	0.0464	-0.0348	0.1566	-0.07192	0.23722000000000001	0.66526	-0.4522434714	9.619146852	-0.2907279459	0.043371431756	0.020769418023999998	0.039095375104	-0.01276	0.10121000000000001	0.41092999999999996	-8.00224	2.82432	-0.94144	0.9937577103380213	52.480000000000004
9772	0	1035213	-58	1339	-61	27	-4	44	80	-60	270	-59	1340	-13	44	37	23	-124	409	1147	-256	176	64	51.12	0.9941771527263756	53.85	0.9936244756970144	4449.50732421875	-7309.7919921875	34.900001525878906	2	12	0.6100000143051147	8.096923828125	3	0	0.0	0.0	0.0	0.0	-0.0891074508015679	0.0	0.0	-0.2123900594816415	0.2656033086	0.4199403663	9.6155576181	0.3156618773937225	-0.6200783252716064	0.2994072139263153	0.6528521180152893	6	44.8251220703125	-73.16319986979167	-0.4163511324	9.6119683842	-0.43788653580000003	-0.4235296002	9.619146852	-0.0933200814	0.032986722744	-0.004886921888	0.053756140768	0.053756140768	0.045204027464	0.028099800855999998	0.0464	-0.0348	0.1566	-0.07192	0.23722000000000001	0.66526	-0.4199403663	9.6155576181	-0.26560330860000003	0.043371431756	0.020158552788	0.040927970811999996	-0.01276	0.10121000000000001	0.41092999999999996	-7.53152	5.17792	1.88288	0.993900814211695	52.485
9773	0	1035319	-61	1344	-65	30	-3	47	77	-59	259	-58	1331	-20	41	38	27	-167	411	1157	-256	112	32	51.11	0.9940981988650384	53.84	0.9938317295830248	4449.50732421875	-7309.7919921875	34.900001525878906	2	12	0.6100000143051147	8.096923828125	3	0	0.0	0.0	0.0	0.0	-0.0823968220546255	0.0	0.0	-0.2048574613822342	0.3050848814999999	0.4271188340999999	9.6012006825	0.3156736493110657	-0.6200750470161438	0.2993396520614624	0.6528804898262024	6	44.8251220703125	-73.16319986979167	-0.43788653580000003	9.6478607232	-0.466600407	-0.4163511324	9.554540641800001	-0.143569356	0.03665191416	-0.003665191416	0.057421332183999994	0.050090949351999994	0.046425757936	0.032986722744	0.04466	-0.03422	0.15022	-0.09686	0.23838	0.67106	-0.4271188341	9.6012006825	-0.3050848815	0.043371431756	0.02138028326	0.045204027464	-0.0261	0.10208	0.41064	-7.53152	3.29504	0.94144	0.9939649642240316	52.475
9774	0	1035424	-70	1348	-68	24	-2	48	77	-59	259	-67	1339	-15	41	37	23	-167	411	1157	-304	64	-64	51.11	0.9940488527017024	53.84	0.993654083395016	4449.50732421875	-7309.7919921875	34.900001525878906	2	12	0.6100000143051147	8.089256286621094	3	0	0.0	0.0	0.0	0.0	-0.1047596898061197	0.0	0.0	-0.225747015031785	0.2979064137	0.4917250442999999	9.6442714893	0.3157228231430053	-0.6200457215309143	0.2992506027221679	0.6529253721237183	6	44.8251220703125	-73.16319986979167	-0.502492746	9.6765745944	-0.48813581040000004	-0.4809573426	9.6119683842	-0.107677017	0.029321531328	-0.002443460944	0.058643062656	0.050090949351999994	0.045204027464	0.028099800855999998	0.04466	-0.03422	0.15022	-0.09686	0.23838	0.67106	-0.4917250443	9.6442714893	-0.29790641370000004	0.03970624034	0.02138028326	0.043371431756	-0.0261	0.10208	0.41064	-8.94368	1.88288	-1.88288	0.9938514680483592	52.475
9775	0	1035530	-70	1340	-65	25	-3	44	68	-28	227	-65	1333	-20	39	36	23	-177	389	1187	-240	80	-48	51.09	0.9941870219590428	53.84	0.993654083395016	4449.50732421875	-7309.7919921875	34.900001525878906	2	12	0.6100000143051147	8.09283447265625	3	0	0.0	0.0	0.0	0.0	-0.1527946632487821	0.0	0.0	-0.2721585319850291	0.3050848814999999	0.4845465764999999	9.5940222147	0.3157645463943481	-0.6200436949729919	0.2992233335971832	0.652919590473175	6	44.8251220703125	-73.16319986979167	-0.502492746	9.619146852	-0.466600407	-0.466600407	9.5688975774	-0.143569356	0.0305432618	-0.003665191416	0.053756140768	0.047647488408	0.043982296992	0.028099800855999998	0.03944	-0.01624	0.13166	-0.10266	0.22562000000000001	0.68846	-0.4845465765	9.5940222147	-0.3050848815	0.039095375104	0.020158552788000002	0.040927970811999996	-0.03161	0.10469	0.41006	-7.0608	2.3536	-1.41216	0.9939205526770294	52.465
9776	0	1035635	-67	1335	-65	28	-3	42	68	-28	227	-72	1335	-18	41	35	19	-177	389	1187	-256	48	-32	51.1	0.9943646681470516	53.85	0.9936146064643474	4449.50732421875	-7309.7919921875	34.900001525878906	2	12	0.6100000143051147	8.10101318359375	3	0	0.0	0.0	0.0	0.0	-0.1924152321139823	0.0	0.0	-0.3074475417041887	0.2979064137	0.4989035120999999	9.583254513	0.350642442703247	-0.6010539531707764	0.3304508030414581	0.6376412510871887	6	44.8251220703125	-73.16319986979167	-0.4809573426	9.583254513	-0.466600407	-0.5168496816	9.583254513	-0.1292124204	0.034208453215999995	-0.003665191416	0.051312679824	0.050090949351999994	0.042760566519999994	0.023212878968	0.03944	-0.01624	0.13166	-0.10266	0.22562000000000001	0.68846	-0.4989035121	9.583254513	-0.2979064137	0.042149701283999995	0.019547687551999995	0.037262779396	-0.03161	0.10469	0.41006	-7.53152	1.41216	-0.94144	0.9939896373056996	52.475
9777	0	1035740	-61	1342	-66	29	-3	41	65	-49	217	-64	1333	-20	41	37	20	-150	420	1178	-208	160	128	51.11	0.9939995065383668	53.84	0.99353565260301	4449.50732421875	-7309.7919921875	34.900001525878906	2	12	0.6100000143051147	8.1051025390625	3	0	0.0	0.0	0.0	0.0	-0.1103317034181844	0.0	0.0	-0.2095039804823359	0.3086741154	0.4486542375	9.6012006825	0.3505800068378448	-0.6011645197868347	0.3304665982723236	0.637563169002533	6	44.8251220703125	-73.16319986979167	-0.43788653580000003	9.6335037876	-0.4737788748	-0.4594219392	9.5688975774	-0.143569356	0.035430183688	-0.003665191416	0.050090949351999994	0.050090949351999994	0.045204027464	0.024434609439999998	0.0377	-0.02842	0.12586	-0.087	0.2436	0.68324	-0.4486542375	9.6012006825	-0.3086741154	0.04276056652	0.020769418024	0.03726277939599999	-0.02465	0.10759	0.40454999999999997	-6.11936	4.7072	3.76576	0.9937675795706884	52.475
9778	0	1035846	-61	1345	-62	27	-6	42	65	-49	217	-53	1334	-19	38	36	22	-173	417	1178	-224	160	-16	51.1	0.9942067604243772	53.83	0.9938021218850236	4449.50732421875	-7309.7919921875	34.900001525878906	2	12	0.6100000143051147	8.08056640625	3	0	0.0	0.0	0.0	0.0	-0.1409330720325932	0.0	0.0	-0.2420340985173331	0.2907279458999999	0.4091726646	9.6155576181	0.3505312502384186	-0.601315975189209	0.3304504454135895	0.6374555230140686	6	44.8251220703125	-73.16319986979167	-0.43788653580000003	9.655039191	-0.4450650036	-0.3804587934	9.5760760452	-0.1363908882	0.032986722744	-0.007330382832	0.051312679824	0.046425757936	0.043982296992	0.026878070384	0.0377	-0.02842	0.12586	-0.10034	0.24186	0.68324	-0.4091726646	9.6155576181	-0.2907279459	0.03970624034	0.01832595708	0.039095375104	-0.03132	0.10672	0.40454999999999997	-6.59008	4.7072	-0.47072	0.9940044411547004	52.465
9779	0	1035951	-54	1339	-60	26	-8	44	64	-72	224	-54	1332	-19	43	40	25	-173	417	1178	-224	176	16	51.12	0.9941179373303726	53.84	0.9937231680236862	4449.50732421875	-7309.7919921875	34.900001525878906	2	12	0.6100000143051147	8.086700439453125	3	0	0.0	0.0	0.0	0.0	-0.1725544938795582	0.0	0.0	-0.2682734485455255	0.2835494781	0.3876372611999999	9.586843746899998	0.3505207896232605	-0.6013832688331604	0.3303643763065338	0.637442409992218	6	44.8251220703125	-73.16319986979167	-0.3876372612	9.6119683842	-0.430708068	-0.3876372612	9.5617191096	-0.1363908882	0.031764992272	-0.009773843776	0.053756140768	0.052534410296	0.048869218879999995	0.0305432618	0.03712	-0.04176	0.12992	-0.10034	0.24186	0.68324	-0.3876372612	9.586843746900001	-0.2835494781	0.042149701284	0.019547687552	0.042149701284	-0.03161	0.10005	0.40658	-6.59008	5.17792	0.47072	0.9939205526770294	52.480000000000004
9780	0	1036057	-65	1343	-66	25	-4	48	64	-72	224	-64	1330	-17	41	36	24	-148	390	1195	-160	192	0	51.11	0.9941080680977054	53.84	0.993713298791019	4449.50732421875	-7309.7919921875	34.900001525878906	2	12	0.6100000143051147	8.098457336425781	3	0	0.0	0.0	0.0	0.0	-0.2294794732946674	0.0	0.0	-0.3194596826334569	0.2979064137	0.4630111730999999	9.5940222147	0.3506543040275574	-0.6013559103012085	0.3302662372589111	0.6374456286430359	6	44.8251220703125	-73.16319986979167	-0.466600407	9.6406822554	-0.4737788748	-0.4594219392	9.547362174	-0.12203395260000001	0.0305432618	-0.004886921888	0.058643062656	0.050090949351999994	0.043982296992	0.029321531328	0.03712	-0.04176	0.12992	-0.08584	0.2262	0.6931	-0.4630111731	9.5940222147	-0.29790641370000004	0.040317105576	0.019547687552	0.043982296992	-0.02436	0.09222000000000001	0.41151000000000004	-4.7072	5.64864	0.0	0.9939106834443622	52.475
9781	0	1036162	-62	1342	-68	23	-6	46	56	-50	232	-63	1336	-19	39	37	24	-148	390	1195	-272	96	-32	51.11	0.9940981988650384	53.85	0.9936146064643474	4449.50732421875	-7309.7919921875	34.900001525878906	2	12	0.6100000143051147	8.06829833984375	3	0	0.0	0.0	0.0	0.0	-0.2284728139161466	0.0	0.0	-0.3009738508019394	0.3122633493	0.4486542375	9.6119683842	0.3507606089115143	-0.6013269424438477	0.3301324546337127	0.6374837160110474	6	44.8251220703125	-73.16319986979167	-0.4450650036	9.6335037876	-0.48813581040000004	-0.45224347140000004	9.590432980800001	-0.1363908882	0.028099800855999998	-0.007330382832	0.056199601711999995	0.047647488408	0.045204027464	0.029321531328	0.03248	-0.029	0.13456	-0.08584	0.2262	0.6931	-0.4486542375	9.6119683842	-0.3122633493	0.037873644632	0.018936822316	0.04276056652	-0.02668	0.09860000000000001	0.41383000000000003	-8.00224	2.82432	-0.94144	0.9938564026646929	52.480000000000004
9782	0	1036268	-72	1344	-69	30	-3	45	56	-50	232	-67	1337	-18	39	39	21	-185	402	1185	-224	112	16	51.11	0.9941574142610412	53.85	0.9935060449050086	4449.50732421875	-7309.7919921875	34.900001525878906	2	12	0.6100000143051147	8.0887451171875	3	0	0.0	0.0	0.0	0.0	-0.1419256838966297	0.0	0.0	-0.2002484535954538	0.3122633493	0.4989035120999999	9.622736085899998	0.3507948815822601	-0.6013104319572449	0.3300985097885132	0.6374980211257935	6	44.8251220703125	-73.16319986979167	-0.5168496816	9.6478607232	-0.4953142782	-0.4809573426	9.5976114486	-0.1292124204	0.03665191416	-0.003665191416	0.05497787124	0.047647488408	0.047647488408	0.025656339912	0.03248	-0.029	0.13456	-0.1073	0.23316	0.6873	-0.4989035121	9.622736085900002	-0.3122633493	0.042149701284	0.021991148496	0.040317105576	-0.03741	0.10208	0.41093	-6.59008	3.29504	0.47072	0.9938317295830249	52.480000000000004
9783	0	1036373	-63	1339	-65	28	-7	45	73	-37	225	-64	1341	-21	40	32	22	-185	402	1185	-304	0	-48	51.11	0.9940981988650384	53.84	0.9935553910683445	4449.50732421875	-7309.7919921875	34.900001525878906	2	12	0.6100000143051147	8.075454711914062	3	0	0.0	0.0	0.0	0.0	-0.1767200928070451	0.0	0.0	-0.2346346030615942	0.3086741153999999	0.4558327053	9.619146852	0.350779116153717	-0.6013861894607544	0.3300707042217254	0.6374496221542358	6	44.8251220703125	-73.16319986979167	-0.45224347140000004	9.6119683842	-0.466600407	-0.4594219392	9.626325319800001	-0.1507478238	0.034208453215999995	-0.008552113303999999	0.05497787124	0.048869218879999995	0.039095375104	0.026878070384	0.04234	-0.02146	0.1305	-0.1073	0.23316	0.6873	-0.45583270530000003	9.619146852	-0.3086741154	0.041538836047999995	0.0152716309	0.040927970811999996	-0.03248	0.10585	0.40890000000000004	-8.94368	0.0	-1.41216	0.9938267949666915	52.475
9784	0	1036479	-66	1345	-62	28	-3	40	73	-37	225	-63	1331	-17	42	36	20	-142	381	1191	-304	0	-16	51.11	0.9940488527017024	53.84	0.9934863064396744	4449.50732421875	-7309.7919921875	35.0	2	12	0.6100000143051147	8.09283447265625	3	0	0.0	0.0	0.0	0.0	-0.1382927823368475	0.0	0.0	-0.1865534674061918	0.2835494781	0.4630111730999999	9.604789916399998	0.3507219851016998	-0.6015152931213379	0.3300457596778869	0.6373721361160278	6	44.8251220703125	-73.16319986979167	-0.4737788748	9.655039191	-0.4450650036	-0.45224347140000004	9.554540641800001	-0.12203395260000001	0.034208453215999995	-0.003665191416	0.048869218879999995	0.051312679824	0.043982296992	0.024434609439999998	0.04234	-0.02146	0.1305	-0.08236	0.22098	0.69078	-0.46301117310000006	9.604789916400001	-0.28354947810000003	0.04276056652	0.020158552788000002	0.03665191415999999	-0.02001	0.09976	0.41064	-8.94368	0.0	-0.47072	0.9937675795706884	52.475
9785	0	1036584	-60	1347	-64	29	-2	42	89	-32	240	-60	1337	-16	41	40	23	-142	381	1191	-320	80	-32	51.11	0.9939995065383668	53.84	0.9936047372316802	4449.50732421875	-7309.7919921875	35.0	2	12	0.6100000143051147	8.096923828125	3	0	0.0	0.0	0.0	0.0	-0.0099898512566959	0.0	0.0	-0.0549339132447103	0.2871387119999999	0.4307080679999999	9.6335037876	0.3548258543014526	-0.6002724170684814	0.3365028500556946	0.6328803300857544	6	44.8251220703125	-73.16319986979167	-0.430708068	9.6693961266	-0.4594219392	-0.430708068	9.5976114486	-0.1148554848	0.035430183688	-0.002443460944	0.051312679824	0.050090949351999994	0.048869218879999995	0.028099800855999998	0.05162	-0.01856	0.1392	-0.08236	0.22098	0.69078	-0.430708068	9.6335037876	-0.287138712	0.04276056652	0.023212878968	0.03970624034	-0.015370000000000002	0.10121000000000001	0.41498999999999997	-9.4144	2.3536	-0.94144	0.9938021218850235	52.475
9786	0	1036689	-59	1343	-63	29	-5	44	89	-32	240	-60	1339	-15	41	39	22	-167	401	1189	-160	160	48	51.12	0.9940093757710338	53.84	0.9935948679990132	4449.50732421875	-7309.7919921875	35.0	2	12	0.6100000143051147	8.090789794921875	3	0	0.0	0.0	0.0	0.0	0.1015098765836064	0.0	0.0	0.0446575009522053	0.2799602442	0.4271188340999999	9.6263253198	0.3548134267330169	-0.600352942943573	0.336479902267456	0.63282310962677	6	44.8251220703125	-73.16319986979167	-0.4235296002	9.6406822554	-0.45224347140000004	-0.430708068	9.6119683842	-0.107677017	0.035430183688	-0.0061086523599999994	0.053756140768	0.050090949351999994	0.047647488408	0.026878070384	0.05162	-0.01856	0.1392	-0.09686	0.23258	0.68962	-0.4271188341	9.6263253198	-0.27996024420000004	0.04276056652	0.020769418023999998	0.040317105576	-0.02262	0.10701000000000001	0.41441	-4.7072	4.7072	1.41216	0.9938021218850235	52.480000000000004
9787	0	1036795	-65	1346	-62	26	-7	45	71	-50	225	-55	1334	-16	42	36	23	-167	401	1189	-304	80	0	51.12	0.993890944979028	53.84	0.993772514187022	4449.50732421875	-7309.7919921875	35.0	2	12	0.6100000143051147	8.086189270019531	3	0	0.0	0.0	0.0	0.0	0.1828681387830672	0.0	0.0	0.1053928466091525	0.2799602442	0.4307080679999999	9.619146852	0.3548461198806762	-0.600334644317627	0.3364152014255523	0.6328566074371338	6	44.8251220703125	-73.16319986979167	-0.466600407	9.6622176588	-0.4450650036	-0.394815729	9.5760760452	-0.1148554848	0.031764992272	-0.008552113303999999	0.05497787124	0.051312679824	0.043982296992	0.028099800855999998	0.04118	-0.029	0.1305	-0.09686	0.23258	0.68962	-0.430708068	9.619146852	-0.2799602442	0.041538836048	0.017715091844	0.041538836047999995	-0.02784	0.10179	0.41006	-8.94368	2.3536	0.0	0.993831729583025	52.480000000000004
9788	0	1036900	-68	1339	-66	27	-5	45	58	-52	241	-63	1334	-15	41	40	26	-153	414	1195	-256	288	0	51.11	0.9941080680977054	53.84	0.9937231680236862	4449.50732421875	-7309.7919921875	35.0	2	12	0.6100000143051147	8.0887451171875	3	0	0.0	0.0	0.0	0.0	0.1117940619467069	0.0	0.0	-0.0011383175358115	0.2907279458999999	0.4701896409	9.5940222147	0.3549491763114929	-0.600305438041687	0.3362878859043121	0.6328940391540527	6	44.8251220703125	-73.16319986979167	-0.48813581040000004	9.6119683842	-0.4737788748	-0.45224347140000004	9.5760760452	-0.107677017	0.032986722744	-0.0061086523599999994	0.05497787124	0.050090949351999994	0.048869218879999995	0.031764992272	0.03364	-0.03016	0.13978	-0.08874	0.24012	0.6931	-0.47018964090000004	9.5940222147	-0.2907279459	0.041538836047999995	0.021380283259999997	0.043371431756	-0.027549999999999998	0.10498	0.41644000000000003	-7.53152	8.47296	0.0	0.9939156180606958	52.475
9789	0	1037006	-67	1342	-67	27	-13	46	58	-52	241	-70	1339	-14	43	35	23	-153	414	1195	-256	96	32	51.12	0.9941179373303726	53.85	0.9936244756970144	4449.50732421875	-7309.7919921875	35.0	2	12	0.6100000143051147	8.1051025390625	3	0	0.0	0.0	0.0	0.0	0.0932347074179477	0.0	0.0	-0.0390551732106415	0.2907279458999999	0.4917250442999999	9.622736085899998	0.3549911677837372	-0.6002868413925171	0.3361321687698364	0.6329709887504578	6	44.8251220703125	-73.16319986979167	-0.4809573426	9.6335037876	-0.4809573426	-0.502492746	9.6119683842	-0.10049854920000001	0.032986722744	-0.015882496136	0.056199601711999995	0.052534410296	0.042760566519999994	0.028099800855999998	0.03364	-0.03016	0.13978	-0.08874	0.24012	0.6931	-0.4917250443	9.622736085900002	-0.2907279459	0.04276056652	0.013439035191999998	0.042149701283999995	-0.027549999999999998	0.10498	0.41644000000000003	-7.53152	2.82432	0.94144	0.9938712065136934	52.485
9790	0	1037111	-69	1335	-63	30	-6	44	81	-34	207	-60	1332	-20	38	33	24	-170	407	1186	-336	80	16	51.11	0.9940389834690352	53.85	0.9936738218603504	4449.50732421875	-7309.7919921875	35.0	2	12	0.6100000143051147	8.09283447265625	3	0	0.0	0.0	0.0	0.0	0.0700124846029093	0.0	0.0	-0.0771339072033975	0.2979064137	0.4630111730999999	9.5724868113	0.3549857437610626	-0.6003080010414124	0.3360379040241241	0.6330040097236633	6	44.8251220703125	-73.16319986979167	-0.4953142782	9.583254513	-0.45224347140000004	-0.430708068	9.5617191096	-0.143569356	0.03665191416	-0.007330382832	0.053756140768	0.046425757936	0.040317105576	0.029321531328	0.04698	-0.01972	0.12006	-0.09860000000000001	0.23606	0.68788	-0.4630111731	9.5724868113	-0.29790641370000004	0.041538836048	0.016493361372	0.041538836048	-0.025810000000000003	0.10816999999999999	0.40397000000000005	-9.88512	2.3536	0.47072	0.9938564026646928	52.480000000000004
9791	0	1037217	-68	1341	-70	29	-5	43	81	-34	207	-65	1337	-23	40	36	19	-170	407	1186	-224	144	-16	51.1	0.9939797680730325	53.85	0.9936738218603504	4449.50732421875	-7309.7919921875	35.0	2	12	0.6100000143051147	8.08056640625	3	0	0.0	0.0	0.0	0.0	0.0776227847524071	0.0	0.0	-0.0819050987114999	0.3337987527	0.4773681086999999	9.6119683842	0.35491544008255	-0.6004266738891602	0.3359538912773132	0.6329753994941711	6	44.8251220703125	-73.16319986979167	-0.48813581040000004	9.626325319800001	-0.502492746	-0.466600407	9.5976114486	-0.1651047594	0.035430183688	-0.0061086523599999994	0.052534410296	0.048869218879999995	0.043982296992	0.023212878968	0.04698	-0.01972	0.12006	-0.09860000000000001	0.23606	0.68788	-0.4773681087	9.6119683842	-0.33379875270000003	0.042149701284	0.018936822316	0.037873644632	-0.025810000000000003	0.10816999999999999	0.40397000000000005	-6.59008	4.23648	-0.47072	0.9938267949666915	52.475
9792	0	1037322	-61	1338	-63	33	-5	43	78	-51	216	-55	1334	-23	41	41	22	-146	361	1176	-272	80	16	51.12	0.9940685911670368	53.85	0.9936146064643474	4449.50732421875	-7309.7919921875	35.0	2	12	0.6100000143051147	8.096923828125	3	0	0.0	0.0	0.0	0.0	0.0828814379150125	0.0	0.0	-0.0879175208884162	0.3086741154	0.4163511324	9.5904329808	0.3548078238964081	-0.6005760431289673	0.3359440565109253	0.6328992247581482	6	44.8251220703125	-73.16319986979167	-0.43788653580000003	9.6047899164	-0.45224347140000004	-0.394815729	9.5760760452	-0.1651047594	0.040317105576	-0.0061086523599999994	0.052534410296	0.050090949351999994	0.050090949351999994	0.026878070384	0.04524	-0.02958	0.12528	-0.08468	0.20938	0.68208	-0.4163511324	9.5904329808	-0.3086741154	0.045204027464	0.021991148495999997	0.03970624034	-0.01972	0.08990000000000001	0.40368000000000004	-8.00224	2.3536	0.47072	0.9938415988156921	52.485
9793	0	1037428	-61	1343	-64	29	-4	45	78	-51	216	-56	1341	-18	40	37	22	-178	374	1156	-160	96	0	51.11	0.9941080680977054	53.84	0.993654083395016	4449.50732421875	-7309.7919921875	35.0	2	12	0.6100000143051147	8.096923828125	3	0	0.0	0.0	0.0	0.0	0.0959939322172599	0.0	0.0	-0.0856801277074918	0.2943171798	0.4199403663	9.6335037876	0.354703426361084	-0.6006577014923096	0.3358960747718811	0.6329057812690735	6	44.8251220703125	-73.16319986979167	-0.43788653580000003	9.6406822554	-0.4594219392	-0.40199419680000004	9.626325319800001	-0.1292124204	0.035430183688	-0.004886921888	0.05497787124	0.048869218879999995	0.045204027464	0.026878070384	0.04524	-0.02958	0.12528	-0.10324	0.21692	0.67048	-0.41994036630000003	9.6335037876	-0.2943171798	0.042149701284	0.020158552788	0.040927970811999996	-0.028999999999999998	0.09367	0.39788	-4.7072	2.82432	0.0	0.9938810757463608	52.475
9794	0	1037533	-61	1341	-62	27	-3	44	52	-57	211	-57	1340	-19	43	38	24	-178	374	1156	-256	96	16	51.12	0.9941278065630396	53.84	0.9936047372316802	4449.50732421875	-7309.7919921875	35.0	2	12	0.6100000143051147	8.086700439453125	3	0	0.0	0.0	0.0	0.0	0.0649892494439869	0.0	0.0	-0.1288866006463272	0.2907279458999999	0.4235296001999999	9.6227360859	0.3547011613845825	-0.6006991863250732	0.335775226354599	0.6329317092895508	6	44.8251220703125	-73.16319986979167	-0.43788653580000003	9.626325319800001	-0.4450650036	-0.4091726646	9.619146852	-0.1363908882	0.032986722744	-0.003665191416	0.053756140768	0.052534410296	0.046425757936	0.029321531328	0.03016	-0.03306	0.12238	-0.10324	0.21692	0.67048	-0.4235296002	9.622736085900002	-0.2907279459	0.04276056652	0.02138028326	0.041538836048	-0.03654	0.09193	0.39643	-7.53152	2.82432	0.47072	0.9938662718973599	52.480000000000004
9795	0	1037638	-60	1341	-64	29	-2	45	52	-57	211	-58	1331	-23	39	39	25	-157	383	1165	-288	128	-32	51.11	0.9941672834937084	53.83	0.9936343449296816	4449.50732421875	-7309.7919921875	35.0	2	12	0.6100000143051147	8.082611083984375	3	0	0.0	0.0	0.0	0.0	0.0451757778139158	0.0	0.0	-0.1548798631496505	0.3122633493	0.4235296001999999	9.5904329808	0.3419167101383209	-0.6076644062995911	0.3251988887786865	0.6388134956359863	6	44.8251220703125	-73.16319986979167	-0.430708068	9.626325319800001	-0.4594219392	-0.4163511324	9.554540641800001	-0.1651047594	0.035430183688	-0.002443460944	0.05497787124	0.047647488408	0.047647488408	0.0305432618	0.03016	-0.03306	0.12238	-0.09106	0.22214	0.6757	-0.42352960019999997	9.590432980800001	-0.3122633493	0.041538836048	0.022602013732	0.04276056652	-0.03045	0.09454	0.39904	-8.47296	3.76576	-0.94144	0.993900814211695	52.47
9796	0	1037744	-69	1341	-69	25	-7	45	51	-57	212	-67	1335	-16	43	34	24	-157	383	1165	-176	144	80	51.1	0.9939797680730325	53.84	0.9936047372316802	4449.50732421875	-7309.7919921875	35.0	2	12	0.6100000143051147	8.094879150390625	3	0	0.0	0.0	0.0	0.0	0.0544106142287026	0.0	0.0	-0.1464961142583702	0.3050848814999999	0.4881358104	9.6047899164	0.3419824242591858	-0.6076391339302063	0.3251169919967651	0.6388441324234009	6	44.8251220703125	-73.16319986979167	-0.4953142782	9.626325319800001	-0.4953142782	-0.4809573426	9.583254513	-0.1148554848	0.0305432618	-0.008552113303999999	0.05497787124	0.052534410296	0.041538836047999995	0.029321531328	0.02958	-0.03306	0.12296	-0.09106	0.22214	0.6757	-0.4881358104	9.604789916400001	-0.3050848815	0.041538836048	0.016493361372	0.042149701284	-0.030740000000000003	0.09454	0.39932999999999996	-5.17792	4.23648	2.3536	0.9937922526523564	52.47
9797	0	1037849	-73	1341	-68	24	-8	44	51	-57	212	-66	1338	-21	42	33	22	-153	381	1168	-192	144	96	51.12	0.9941771527263756	53.84	0.993713298791019	4449.50732421875	-7309.7919921875	35.0	2	12	0.6100000143051147	8.092323303222656	3	0	0.0	0.0	0.0	0.0	0.0220467852951169	0.0	0.0	-0.1876743309743268	0.3194418170999999	0.4989035120999999	9.6155576181	0.3418891131877899	-0.6076800227165222	0.3250380754470825	0.6388952732086182	6	44.8251220703125	-73.16319986979167	-0.5240281494	9.626325319800001	-0.48813581040000004	-0.4737788748	9.6047899164	-0.1507478238	0.029321531328	-0.009773843776	0.053756140768	0.051312679824	0.040317105576	0.026878070384	0.02958	-0.03306	0.12296	-0.08874	0.22098	0.67744	-0.4989035121	9.6155576181	-0.3194418171	0.040317105576000004	0.0152716309	0.040317105576	-0.029580000000000002	0.09396	0.4002	-5.64864	4.23648	2.82432	0.9939452257586974	52.480000000000004
9798	0	1037955	-67	1340	-66	29	-3	42	53	-23	209	-63	1338	-16	43	37	20	-153	381	1168	-160	96	32	51.11	0.9939995065383668	53.83	0.9936935603256848	4449.50732421875	-7309.7919921875	35.0	2	12	0.6100000143051147	8.099990844726562	3	0	0.0	0.0	0.0	0.0	-0.0120932233048068	0.0	0.0	-0.2225033873001622	0.2943171798	0.4666004069999999	9.6119683842	0.3418020606040954	-0.6078143119812012	0.3250522017478943	0.638806939125061	6	44.8251220703125	-73.16319986979167	-0.4809573426	9.619146852	-0.4737788748	-0.45224347140000004	9.6047899164	-0.1148554848	0.035430183688	-0.003665191416	0.051312679824	0.052534410296	0.045204027464	0.024434609439999998	0.03074	-0.01334	0.12122	-0.08874	0.22098	0.67744	-0.46660040700000005	9.6119683842	-0.2943171798	0.043982296992	0.020769418024	0.037873644632	-0.028999999999999998	0.10382000000000001	0.39933	-4.7072	2.82432	0.94144	0.9938465334320258	52.47
9799	0	1038060	-65	1341	-63	29	-4	43	53	-23	209	-54	1332	-21	41	33	21	-179	363	1176	-208	160	64	51.1	0.9942067604243772	53.84	0.993703429558352	4449.50732421875	-7309.7919921875	35.0	2	12	0.6100000143051147	8.09283447265625	3	0	0.0	0.0	0.0	0.0	0.0488117659555127	0.0	0.0	-0.1561159453552423	0.3014956475999999	0.4271188340999999	9.5940222147	0.341669887304306	-0.6079900860786438	0.3250140845775604	0.6387297511100769	6	44.8251220703125	-73.16319986979167	-0.466600407	9.626325319800001	-0.45224347140000004	-0.3876372612	9.5617191096	-0.1507478238	0.035430183688	-0.004886921888	0.052534410296	0.050090949351999994	0.040317105576	0.025656339912	0.03074	-0.01334	0.12122	-0.10382	0.21054	0.68208	-0.4271188341	9.5940222147	-0.3014956476	0.04276056652	0.017715091843999997	0.039095375104	-0.036539999999999996	0.09860000000000001	0.40165	-6.11936	4.7072	1.88288	0.9939550949913646	52.47
9800	0	1038166	-61	1345	-62	29	-2	44	68	-43	247	-52	1334	-19	43	35	24	-179	363	1176	-288	112	0	51.11	0.99426597582038	53.84	0.99353565260301	4449.50732421875	-7309.7919921875	35.0	2	12	0.6100000143051147	8.083633422851562	3	0	0.0	0.0	0.0	0.0	0.0895498223515605	0.0	0.0	-0.119325315280826	0.2907279458999999	0.4055834306999999	9.6155576181	0.3416289985179901	-0.6081293225288391	0.3250147998332977	0.6386186480522156	6	44.8251220703125	-73.16319986979167	-0.43788653580000003	9.655039191	-0.4450650036	-0.3732803256	9.5760760452	-0.1363908882	0.035430183688	-0.002443460944	0.053756140768	0.052534410296	0.042760566519999994	0.029321531328	0.03944	-0.02494	0.14326	-0.10382	0.21054	0.68208	-0.4055834307	9.6155576181	-0.2907279459	0.043982296992	0.020158552788	0.041538836048	-0.032189999999999996	0.09280000000000001	0.41267	-8.47296	3.29504	0.0	0.993900814211695	52.475
9801	0	1038271	-62	1343	-63	26	-1	47	68	-43	247	-51	1338	-19	40	35	23	-164	385	1172	-208	112	32	51.12	0.9941179373303726	53.84	0.9936047372316802	4449.50732421875	-7309.7919921875	35.0	2	12	0.6100000143051147	8.095901489257812	3	0	0.0	0.0	0.0	0.0	0.1339739239723601	0.0	0.0	-0.0818859337526502	0.2943171798	0.4055834306999999	9.6227360859	0.3417235314846039	-0.6081598997116089	0.3249202668666839	0.6385870575904846	6	44.8251220703125	-73.16319986979167	-0.4450650036	9.6406822554	-0.45224347140000004	-0.36610185780000004	9.6047899164	-0.1363908882	0.031764992272	-0.001221730472	0.057421332183999994	0.048869218879999995	0.042760566519999994	0.028099800855999998	0.03944	-0.02494	0.14326	-0.09512	0.2233	0.67976	-0.4055834307	9.6227360859	-0.29431717980000005	0.040317105576	0.020769418023999998	0.042760566519999994	-0.027839999999999997	0.09918	0.41151000000000004	-6.11936	3.29504	0.94144	0.9938613372810263	52.480000000000004
9802	0	1038377	-64	1336	-59	26	-6	47	75	-59	191	-62	1331	-17	39	37	27	-164	385	1172	-224	96	48	51.12	0.9941278065630396	53.84	0.9936047372316802	4449.50732421875	-7309.7919921875	34.900001525878906	2	12	0.6100000143051147	8.089767456054688	3	0	0.0	0.0	0.0	0.0	0.0298850065576268	0.0	0.0	-0.2005262049868471	0.2727817764	0.4522434714	9.5724868113	0.3417512476444244	-0.6081101298332214	0.3248490691184997	0.6386559009552002	6	44.8251220703125	-73.16319986979167	-0.4594219392	9.590432980800001	-0.4235296002	-0.4450650036	9.554540641800001	-0.12203395260000001	0.031764992272	-0.007330382832	0.057421332183999994	0.047647488408	0.045204027464	0.032986722744	0.0435	-0.03422	0.11078	-0.09512	0.2233	0.67976	-0.4522434714	9.572486811300001	-0.2727817764	0.03970624034	0.018936822316	0.045204027464	-0.02581	0.09454	0.39527	-6.59008	2.82432	1.41216	0.9938662718973599	52.480000000000004
9803	0	1038482	-70	1339	-61	26	-4	46	75	-59	191	-62	1329	-22	38	39	25	-147	380	1218	-208	144	48	51.11	0.9940488527017024	53.84	0.9934961756723416	4449.50732421875	-7309.7919921875	34.900001525878906	2	12	0.6100000143051147	8.1051025390625	3	0	0.0	0.0	0.0	0.0	0.0252653917393726	0.0	0.0	-0.2023829824420625	0.2979064137	0.4737788747999999	9.5760760452	0.3417861759662628	-0.6080946922302246	0.324799507856369	0.6386771202087402	6	44.8251220703125	-73.16319986979167	-0.502492746	9.6119683842	-0.43788653580000003	-0.4450650036	9.5401837062	-0.15792629160000002	0.031764992272	-0.004886921888	0.056199601711999995	0.046425757936	0.047647488408	0.0305432618	0.0435	-0.03422	0.11078	-0.08526	0.2204	0.70644	-0.4737788748	9.5760760452	-0.29790641370000004	0.039095375104	0.021380283259999997	0.043371431756	-0.020880000000000003	0.09309	0.40861	-6.11936	4.23648	1.41216	0.993772514187022	52.475
9804	0	1038587	-74	1344	-61	29	-7	42	69	-50	237	-67	1336	-11	45	37	23	-147	380	1218	-272	80	0	51.11	0.9941574142610412	53.84	0.9936442141623488	4449.50732421875	-7309.7919921875	34.900001525878906	2	12	0.6100000143051147	8.086700439453125	3	0	0.0	0.0	0.0	0.0	0.0302932957868516	0.0	0.0	-0.1969641584349973	0.2584248408	0.5060819798999999	9.619146852	0.3488219976425171	-0.602534294128418	0.3295353055000305	0.6377163529396057	6	44.8251220703125	-73.16319986979167	-0.5312066172000001	9.6478607232	-0.43788653580000003	-0.4809573426	9.590432980800001	-0.07896314580000001	0.035430183688	-0.008552113303999999	0.051312679824	0.05497787124	0.045204027464	0.028099800855999998	0.04002	-0.029	0.13746	-0.08526	0.2204	0.70644	-0.5060819799	9.619146852	-0.2584248408	0.045204027464	0.01832595708	0.03970624034	-0.02262	0.09570000000000001	0.42195	-8.00224	2.3536	0.0	0.993900814211695	52.475
9805	0	1038693	-67	1340	-69	29	-3	39	55	-43	240	-59	1334	-17	39	33	23	-174	382	1215	-144	192	112	51.12	0.9941278065630396	53.85	0.9935652603010116	4449.50732421875	-7309.7919921875	34.900001525878906	2	12	0.6100000143051147	8.107147216796875	3	0	0.0	0.0	0.0	0.0	0.0639914212677082	0.0	0.0	-0.1636602905663778	0.3086741154	0.4522434714	9.5976114486	0.3487739562988281	-0.6026273369789124	0.32947838306427	0.637684166431427	6	44.8251220703125	-73.16319986979167	-0.4809573426	9.619146852	-0.4953142782	-0.4235296002	9.5760760452	-0.12203395260000001	0.035430183688	-0.003665191416	0.047647488408	0.047647488408	0.040317105576	0.028099800855999998	0.0319	-0.02494	0.1392	-0.10092	0.22156	0.7047	-0.4522434714	9.5976114486	-0.3086741154	0.041538836048	0.018325957079999997	0.037873644632	-0.03451	0.09831000000000001	0.42195	-4.23648	5.64864	3.29504	0.9938465334320256	52.485
9806	0	1038798	-61	1344	-65	27	-5	43	55	-43	240	-62	1333	-16	39	35	23	-174	382	1215	-288	160	-112	51.1	0.994088329632371	53.84	0.993654083395016	4449.50732421875	-7309.79150390625	34.900001525878906	2	12	0.6100000143051147	8.0887451171875	3	0	0.0	0.0	0.0	0.0	-0.0554429745137569	0.0	0.0	-0.2882857934669512	0.2907279458999999	0.4414757696999999	9.6083791503	0.3486808836460113	-0.6027237176895142	0.3294689953327179	0.6376487612724304	6	44.8251220703125	-73.16319173177084	-0.43788653580000003	9.6478607232	-0.466600407	-0.4450650036	9.5688975774	-0.1148554848	0.032986722744	-0.0061086523599999994	0.052534410296	0.047647488408	0.042760566519999994	0.028099800855999998	0.0319	-0.02494	0.1392	-0.10092	0.22156	0.7047	-0.4414757697	9.6083791503	-0.2907279459	0.040317105576	0.018325957079999997	0.040317105576	-0.03451	0.09831000000000001	0.42195	-8.47296	4.7072	-3.29504	0.9938712065136935	52.47
9807	0	1038904	-62	1345	-66	28	-7	40	63	-42	251	-55	1338	-20	39	37	19	-169	382	1190	-304	48	-64	51.11	0.9940488527017024	53.83	0.9936935603256848	4449.50732421875	-7309.79150390625	34.900001525878906	2	12	0.6100000143051147	8.107147216796875	3	0	0.0	0.0	0.0	0.0	-0.103102245598471	0.0	0.0	-0.3266167390263501	0.3086741154	0.4199403663	9.6299145537	0.3485910892486572	-0.6027988791465759	0.3294445872306824	0.6376394033432007	6	44.8251220703125	-73.16319173177084	-0.4450650036	9.655039191	-0.4737788748	-0.394815729	9.6047899164	-0.143569356	0.034208453215999995	-0.008552113303999999	0.048869218879999995	0.047647488408	0.045204027464	0.023212878968	0.03654	-0.02436	0.14558	-0.09802	0.22156	0.6902	-0.4199403663	9.6299145537	-0.3086741154	0.040927970811999996	0.01832595708	0.036041048923999994	-0.030739999999999996	0.09860000000000001	0.41789	-8.94368	1.41216	-1.88288	0.9938712065136937	52.47
9808	0	1039009	-63	1350	-65	24	-2	45	63	-42	251	-53	1338	-17	39	41	22	-147	401	1150	-368	80	16	51.11	0.9939304219096964	53.84	0.99353565260301	4449.50732421875	-7309.79150390625	34.900001525878906	2	12	0.6100000143051147	8.08056640625	3	0	0.0	0.0	0.0	0.0	-0.0533311527544359	0.0	0.0	-0.2555059234494099	0.2943171797999999	0.4163511324	9.6478607232	0.3486328125	-0.6027560830116272	0.3293981552124023	0.6376810669898987	6	44.8251220703125	-73.16319173177084	-0.45224347140000004	9.69093153	-0.466600407	-0.3804587934	9.6047899164	-0.12203395260000001	0.029321531328	-0.002443460944	0.05497787124	0.047647488408	0.050090949351999994	0.026878070384	0.03654	-0.02436	0.14558	-0.08526	0.23258	0.667	-0.4163511324	9.6478607232	-0.2943171798	0.038484509868	0.023823744204	0.040927970811999996	-0.02436	0.10411000000000001	0.40629000000000004	-10.82656	2.3536	0.47072	0.9937330372563532	52.475
9809	0	1039115	-66	1340	-62	24	-2	47	63	-39	234	-66	1335	-18	40	40	25	-147	401	1150	-240	256	0	51.12	0.994078460399704	53.84	0.9936047372316802	4449.50732421875	-7309.79150390625	34.900001525878906	2	12	0.6100000143051147	8.101524353027344	3	0	0.0	0.0	0.0	0.0	-0.0909233314126373	0.0	0.0	-0.2840188395091261	0.2871387119999999	0.4737788747999999	9.6012006825	0.3487459719181061	-0.6026965975761414	0.3293347358703613	0.6377082467079163	6	44.8251220703125	-73.16319173177084	-0.4737788748	9.619146852	-0.4450650036	-0.4737788748	9.583254513	-0.1292124204	0.029321531328	-0.002443460944	0.057421332183999994	0.048869218879999995	0.048869218879999995	0.0305432618	0.03654	-0.02262	0.13572	-0.08526	0.23258	0.667	-0.4737788748	9.6012006825	-0.287138712	0.039095375104	0.023212878968	0.043982296992	-0.02436	0.10498	0.40136000000000005	-7.0608	7.53152	0.0	0.9938415988156921	52.480000000000004
9810	0	1039220	-69	1344	-73	26	-3	47	63	-39	234	-64	1329	-23	41	40	23	-165	386	1178	-304	80	-48	51.12	0.9940685911670368	53.83	0.9935257833703428	4449.50732421875	-7309.79150390625	34.900001525878906	2	12	0.6100000143051147	8.107147216796875	3	0	0.0	0.0	0.0	0.0	0.0527378362891883	0.0	0.0	-0.1252458380755529	0.3445664544	0.4773681086999999	9.5940222147	0.3488368391990661	-0.6026643514633179	0.3292713463306427	0.6377217173576355	6	44.8251220703125	-73.16319173177084	-0.4953142782	9.6478607232	-0.5240281494	-0.4594219392	9.5401837062	-0.1651047594	0.031764992272	-0.003665191416	0.057421332183999994	0.050090949351999994	0.048869218879999995	0.028099800855999998	0.03654	-0.02262	0.13572	-0.09570000000000001	0.22388	0.68324	-0.4773681087	9.5940222147	-0.3445664544	0.040927970811999996	0.022602013732	0.042760566519999994	-0.029580000000000002	0.10063	0.40947999999999996	-8.94368	2.3536	-1.41216	0.9937971872686898	52.474999999999994
9811	0	1039326	-72	1342	-65	26	-1	43	52	-57	236	-68	1335	-16	42	36	20	-165	386	1178	-336	80	-48	51.11	0.9940389834690352	53.84	0.9936047372316802	4449.50732421875	-7309.79150390625	34.900001525878906	2	12	0.6100000143051147	8.1051025390625	3	0	0.0	0.0	0.0	0.0	0.0549732288426686	0.0	0.0	-0.1276919109474132	0.2907279458999999	0.5024927459999999	9.6083791503	0.3489436507225036	-0.6026617884635925	0.3292204141616821	0.6376920342445374	6	44.8251220703125	-73.16319173177084	-0.5168496816	9.6335037876	-0.466600407	-0.48813581040000004	9.583254513	-0.1148554848	0.031764992272	-0.001221730472	0.052534410296	0.051312679824	0.043982296992	0.024434609439999998	0.03016	-0.03306	0.13688	-0.09570000000000001	0.22388	0.68324	-0.502492746	9.6083791503	-0.2907279459	0.041538836048	0.02138028326	0.038484509868	-0.03277000000000001	0.09541	0.41006	-9.88512	2.3536	-1.41216	0.9938218603503577	52.475
9812	0	1039431	-69	1346	-64	27	-3	40	52	-57	236	-63	1338	-15	41	40	23	-152	372	1231	-320	96	64	51.11	0.9941574142610412	53.84	0.9937527757216876	4449.50732421875	-7309.79150390625	34.900001525878906	2	12	0.6100000143051147	8.0887451171875	3	0	0.0	0.0	0.0	0.0	0.0649368659174416	0.0	0.0	-0.1273884332988968	0.2835494781	0.4737788747999999	9.6335037876	0.3489634692668915	-0.6027569770812988	0.3292028903961181	0.6376002430915833	6	44.8251220703125	-73.16319173177084	-0.4953142782	9.6622176588	-0.4594219392	-0.45224347140000004	9.6047899164	-0.107677017	0.032986722744	-0.003665191416	0.048869218879999995	0.050090949351999994	0.048869218879999995	0.028099800855999998	0.03016	-0.03306	0.13688	-0.08816	0.21576	0.7139800000000001	-0.4737788748	9.633503787599999	-0.28354947810000003	0.041538836047999995	0.022602013732	0.038484509868	-0.029	0.09135	0.42543000000000003	-9.4144	2.82432	1.88288	0.9939550949913645	52.475
9813	0	1039537	-68	1342	-64	29	-4	44	41	-52	199	-60	1335	-15	44	41	21	-152	372	1231	-192	192	0	51.11	0.9940389834690352	53.85	0.9936738218603504	4449.50732421875	-7309.79150390625	34.900001525878906	2	12	0.6100000143051147	8.096923828125	3	0	0.0	0.0	0.0	0.0	0.1006799899790229	0.0	0.0	-0.0962185960310918	0.2835494781	0.4594219391999999	9.6083791503	0.348957896232605	-0.6028735637664795	0.3291829526424408	0.6375033259391785	6	44.8251220703125	-73.16319173177084	-0.48813581040000004	9.6335037876	-0.4594219392	-0.430708068	9.583254513	-0.107677017	0.035430183688	-0.004886921888	0.053756140768	0.053756140768	0.050090949351999994	0.025656339912	0.02378	-0.03016	0.11542	-0.08816	0.21576	0.7139800000000001	-0.4594219392	9.6083791503	-0.28354947810000003	0.044593162228	0.022602013731999996	0.03970624034	-0.03219	0.09280000000000001	0.4147	-5.64864	5.64864	0.0	0.9938564026646928	52.480000000000004
9814	0	1039642	-59	1344	-63	29	-4	45	41	-52	199	-59	1337	-16	44	38	24	-163	364	1157	-240	32	-16	51.11	0.9941574142610412	53.84	0.9937231680236862	4449.50732421875	-7309.79150390625	34.900001525878906	2	12	0.6100000143051147	8.0887451171875	3	0	0.0	0.0	0.0	0.0	0.1079136077296616	0.0	0.0	-0.1000441149156814	0.2835494781	0.4235296001999999	9.622736085899998	0.3570976257324219	-0.5986851453781128	0.3379908502101898	0.6323129534721375	6	44.8251220703125	-73.16319173177084	-0.4235296002	9.6478607232	-0.45224347140000004	-0.4235296002	9.5976114486	-0.1148554848	0.035430183688	-0.004886921888	0.05497787124	0.053756140768	0.046425757936	0.029321531328	0.02378	-0.03016	0.11542	-0.09454	0.21112	0.67106	-0.4235296002	9.622736085900002	-0.28354947810000003	0.044593162228	0.020769418023999998	0.042149701284	-0.03538	0.09048	0.39324	-7.0608	0.94144	-0.47072	0.9939402911423637	52.475
9815	0	1039747	-62	1350	-62	29	-8	43	57	-49	204	-56	1334	-7	42	38	23	-163	364	1157	-240	128	16	51.11	0.9940389834690352	53.85	0.9936738218603504	4449.50732421875	-7309.79150390625	34.900001525878906	2	12	0.6100000143051147	8.11328125	3	0	0.0	0.0	0.0	0.0	0.0507502728545145	0.0	0.0	-0.169405090497306	0.2476571390999999	0.4235296001999999	9.6335037876	0.3570808470249176	-0.5987447500228882	0.3379440605640411	0.6322909593582153	6	44.8251220703125	-73.16319173177084	-0.4450650036	9.69093153	-0.4450650036	-0.40199419680000004	9.5760760452	-0.050249274600000005	0.035430183688	-0.009773843776	0.052534410296	0.051312679824	0.046425757936	0.028099800855999998	0.03306	-0.02842	0.11832	-0.09454	0.21112	0.67106	-0.4235296002	9.6335037876	-0.2476571391	0.043371431756	0.01832595708	0.040317105576	-0.03074	0.09135	0.39469	-7.0608	3.76576	0.47072	0.9938564026646928	52.480000000000004
9816	0	1039853	-65	1336	-62	23	-4	46	57	-49	204	-60	1337	-17	43	38	21	-171	353	1195	-208	160	64	51.12	0.9940587219343696	53.84	0.9936047372316802	4449.50732421875	-7309.79150390625	34.900001525878906	2	12	0.6100000143051147	8.107147216796875	3	0	0.0	0.0	0.0	0.0	-0.0065820297478067	0.0	0.0	-0.228051261957013	0.2835494781	0.4486542374999999	9.5940222147	0.3571575880050659	-0.5987200140953064	0.3378623127937317	0.6323146820068359	6	44.8251220703125	-73.16319173177084	-0.466600407	9.590432980800001	-0.4450650036	-0.430708068	9.5976114486	-0.12203395260000001	0.028099800855999998	-0.004886921888	0.056199601711999995	0.052534410296	0.046425757936	0.025656339912	0.03306	-0.02842	0.11832	-0.09918	0.20474	0.6931	-0.4486542375	9.5940222147	-0.28354947810000003	0.040317105576	0.020769418023999998	0.040927970811999996	-0.033060000000000006	0.08816	0.40571	-6.11936	4.7072	1.88288	0.9938317295830249	52.480000000000004
9817	0	1039958	-64	1337	-63	23	-6	43	61	-60	200	-64	1337	-22	41	40	21	-171	353	1195	-208	96	64	51.1	0.994088329632371	53.84	0.9937231680236862	4449.50732421875	-7309.79150390625	34.900001525878906	2	12	0.6100000143051147	8.106124877929688	3	0	0.0	0.0	0.0	0.0	0.0273282486718236	0.0	0.0	-0.1912856154098993	0.3050848815	0.4594219391999999	9.5976114486	0.3572474718093872	-0.59864342212677	0.3378247618675232	0.632356584072113	6	44.8251220703125	-73.16319173177084	-0.4594219392	9.5976114486	-0.45224347140000004	-0.4594219392	9.5976114486	-0.15792629160000002	0.028099800855999998	-0.007330382832	0.052534410296	0.050090949351999994	0.048869218879999995	0.025656339912	0.03538	-0.0348	0.116	-0.09918	0.20474	0.6931	-0.4594219392	9.5976114486	-0.3050848815	0.039095375104	0.020769418023999998	0.039095375104	-0.0319	0.08497	0.40455	-6.11936	2.82432	1.88288	0.9939057488280286	52.47
9818	0	1040064	-68	1342	-76	26	-6	45	61	-60	200	-63	1334	-19	42	37	22	-177	382	1168	-288	128	64	51.1	0.9939106834443622	53.84	0.9936047372316802	4449.50732421875	-7309.79150390625	34.900001525878906	2	12	0.6100000143051147	8.0887451171875	3	0	0.0	0.0	0.0	0.0	0.0536960971824684	0.0	0.0	-0.1617645074561968	0.3409772204999999	0.4701896409	9.604789916399998	0.3573440015316009	-0.5986074805259705	0.33774533867836	0.6323784589767456	6	44.8251220703125	-73.16319173177084	-0.48813581040000004	9.6335037876	-0.5455635528	-0.45224347140000004	9.5760760452	-0.1363908882	0.031764992272	-0.007330382832	0.05497787124	0.051312679824	0.045204027464	0.026878070384	0.03538	-0.0348	0.116	-0.10266	0.22156	0.67744	-0.47018964090000004	9.604789916400001	-0.3409772205	0.041538836048	0.018936822316	0.040927970811999996	-0.03364	0.09338	0.39672	-8.47296	3.76576	1.88288	0.9937577103380212	52.47
9819	0	1040169	-64	1337	-72	27	-5	41	48	-60	198	-64	1339	-17	43	37	22	-177	382	1168	-352	192	-64	51.11	0.9942067604243772	53.84	0.9937231680236862	4449.50732421875	-7309.79150390625	34.900001525878906	2	12	0.6100000143051147	8.095390319824219	3	0	0.0	0.0	0.0	0.0	0.0690942850624755	0.0	0.0	-0.1505226909903089	0.3194418170999999	0.4594219391999999	9.604789916399998	0.3573671281337738	-0.5986666679382324	0.3376737833023071	0.6323475241661072	6	44.8251220703125	-73.16319173177084	-0.4594219392	9.5976114486	-0.5168496816	-0.4594219392	9.6119683842	-0.12203395260000001	0.032986722744	-0.0061086523599999994	0.050090949351999994	0.052534410296	0.045204027464	0.026878070384	0.02784	-0.0348	0.11484	-0.10266	0.22156	0.67744	-0.4594219392	9.604789916400001	-0.3194418171	0.04276056652	0.019547687552	0.038484509868	-0.03741	0.09338	0.39614000000000005	-10.35584	5.64864	-1.88288	0.9939649642240317	52.475
9820	0	1040275	-66	1339	-64	32	-3	42	48	-60	198	-63	1335	-22	40	39	20	-182	405	1205	-304	80	0	51.09	0.9940685911670368	53.83	0.9936343449296816	4449.50732421875	-7309.79150390625	34.900001525878906	2	12	0.6100000143051147	8.089767456054688	3	0	0.0	0.0	0.0	0.0	0.0463299990052163	0.0	0.0	-0.1776334934833431	0.3086741154	0.4630111730999999	9.5976114486	0.3574103713035583	-0.598725438117981	0.3377029597759247	0.6322519183158875	6	44.8251220703125	-73.16319173177084	-0.4737788748	9.6119683842	-0.4594219392	-0.45224347140000004	9.583254513	-0.15792629160000002	0.039095375104	-0.003665191416	0.051312679824	0.048869218879999995	0.047647488408	0.024434609439999998	0.02784	-0.0348	0.11484	-0.10556	0.2349	0.6989	-0.46301117310000006	9.5976114486	-0.3086741154	0.043982296992	0.021991148496	0.037873644632	-0.03886	0.10005	0.40686999999999995	-8.94368	2.3536	0.0	0.9938514680483592	52.46
9821	0	1040380	-61	1337	-67	28	-6	43	47	-34	219	-58	1333	-18	43	41	20	-182	405	1205	-272	112	0	51.11	0.9939995065383668	53.83	0.9936935603256848	4449.50732421875	-7309.79150390625	34.900001525878906	2	12	0.6100000143051147	8.089256286621094	3	0	0.0	0.0	0.0	0.0	0.0259629352777678	0.0	0.0	-0.1973202350428167	0.3050848814999999	0.4271188340999999	9.583254513	0.357462614774704	-0.5987817049026489	0.3376935422420501	0.6321740746498108	6	44.8251220703125	-73.16319173177084	-0.43788653580000003	9.5976114486	-0.4809573426	-0.4163511324	9.5688975774	-0.1292124204	0.034208453215999995	-0.007330382832	0.052534410296	0.052534410296	0.050090949351999994	0.024434609439999998	0.02726	-0.01972	0.12702	-0.10556	0.2349	0.6989	-0.4271188341	9.583254513	-0.3050848815	0.043371431756	0.021380283259999997	0.038484509868	-0.039150000000000004	0.10758999999999999	0.41296	-8.00224	3.29504	0.0	0.9938465334320258	52.47
9822	0	1040486	-60	1340	-62	30	-3	43	47	-34	219	-51	1336	-16	41	37	22	-168	386	1155	-352	64	-64	51.11	0.9939995065383668	53.84	0.993703429558352	4449.50732421875	-7309.79150390625	34.900001525878906	2	12	0.6100000143051147	8.09283447265625	3	0	0.0	0.0	0.0	0.0	-0.003463125047441	0.0	0.0	-0.2258611259236631	0.2799602442	0.3984049628999999	9.6047899164	0.3575702905654907	-0.5988521575927734	0.3376719057559967	0.6320579648017883	6	44.8251220703125	-73.16319173177084	-0.430708068	9.619146852	-0.4450650036	-0.36610185780000004	9.590432980800001	-0.1148554848	0.03665191416	-0.003665191416	0.052534410296	0.050090949351999994	0.045204027464	0.026878070384	0.02726	-0.01972	0.12702	-0.09744	0.22388	0.6699	-0.39840496290000005	9.604789916400001	-0.2799602442	0.043371431756	0.020769418024	0.03970624034	-0.035089999999999996	0.10208	0.39846000000000004	-10.35584	1.88288	-1.88288	0.9938514680483594	52.475
9823	0	1040591	-65	1348	-63	30	-6	46	60	-74	227	-57	1335	-10	39	39	25	-182	398	1171	-304	80	-16	51.11	0.9942067604243772	53.84	0.993703429558352	4449.50732421875	-7309.79150390625	34.900001525878906	2	12	0.6100000143051147	8.0887451171875	3	0	0.0	0.0	0.0	0.0	-0.0025592037428758	0.0	0.0	-0.2219025430574999	0.2620140747	0.4378865357999999	9.6299145537	0.3576658368110657	-0.5988694429397583	0.3375645279884338	0.6320450305938721	6	44.8251220703125	-73.16319173177084	-0.466600407	9.6765745944	-0.45224347140000004	-0.4091726646	9.583254513	-0.071784678	0.03665191416	-0.007330382832	0.056199601711999995	0.047647488408	0.047647488408	0.0305432618	0.0348	-0.04292	0.13166	-0.10556	0.23084	0.67918	-0.43788653580000003	9.6299145537	-0.26201407470000004	0.042149701284	0.020158552788	0.043371431756	-0.03538	0.09395999999999999	0.40542	-8.94368	2.3536	-0.47072	0.9939550949913646	52.475
9824	0	1040696	-64	1342	-66	30	-5	47	47	-55	207	-63	1337	-17	42	37	23	-182	398	1171	-208	176	48	51.1	0.9942067604243772	53.84	0.9936047372316802	4449.50732421875	-7309.79150390625	34.900001525878906	2	12	0.6100000143051147	8.0887451171875	3	0	0.0	0.0	0.0	0.0	-0.0289783323271536	0.0	0.0	-0.2437223349706314	0.2979064137	0.4558327053	9.6155576181	0.3580093085765838	-0.5985961556434631	0.3393098413944244	0.6311742067337036	6	44.8251220703125	-73.16319173177084	-0.4594219392	9.6335037876	-0.4737788748	-0.45224347140000004	9.5976114486	-0.12203395260000001	0.03665191416	-0.0061086523599999994	0.057421332183999994	0.051312679824	0.045204027464	0.028099800855999998	0.02726	-0.0319	0.12006	-0.10556	0.23084	0.67918	-0.45583270530000003	9.6155576181	-0.29790641370000004	0.043982296992	0.019547687552	0.042760566519999994	-0.039150000000000004	0.09947	0.39962	-6.11936	5.17792	1.41216	0.9939057488280287	52.47
9825	0	1040802	-71	1342	-61	29	-4	45	47	-55	207	-63	1333	-21	40	39	24	-174	376	1168	-256	176	32	51.1	0.9939797680730325	53.84	0.9935455218356772	4449.50732421875	-7309.79150390625	34.900001525878906	2	12	0.6100000143051147	8.090789794921875	3	0	0.0	0.0	0.0	0.0	-0.0288466993162465	0.0	0.0	-0.2322761525115977	0.2943171798	0.4809573425999999	9.6012006825	0.3581094741821289	-0.5985844135284424	0.3392053544521332	0.6311847567558289	6	44.8251220703125	-73.16319173177084	-0.5096712138	9.6335037876	-0.43788653580000003	-0.45224347140000004	9.5688975774	-0.1507478238	0.035430183688	-0.004886921888	0.05497787124	0.048869218879999995	0.047647488408	0.029321531328	0.02726	-0.0319	0.12006	-0.10092	0.21808	0.67744	-0.4809573426	9.6012006825	-0.29431717980000005	0.042149701284	0.021380283259999997	0.042149701284	-0.03683	0.09309	0.39875000000000005	-7.53152	5.17792	0.94144	0.9937626449543548	52.47
9826	0	1040907	-70	1347	-65	27	-3	44	63	-39	206	-66	1333	-16	41	38	24	-174	376	1168	-208	176	-80	51.11	0.9941080680977054	53.84	0.9936639526276831	4449.50732421875	-7309.79150390625	34.900001525878906	2	12	0.6100000143051147	8.1051025390625	3	0	0.0	0.0	0.0	0.0	-0.0896665125589677	0.0	0.0	-0.2893555225087548	0.2907279458999999	0.4881358104	9.619146852	0.3580587804317474	-0.5985574722290039	0.3391846120357513	0.6312501430511475	6	44.8251220703125	-73.16319173177084	-0.502492746	9.6693961266	-0.466600407	-0.4737788748	9.5688975774	-0.1148554848	0.032986722744	-0.003665191416	0.053756140768	0.050090949351999994	0.046425757936	0.029321531328	0.03654	-0.02262	0.11948	-0.10092	0.21808	0.67744	-0.48813581040000004	9.619146852	-0.2907279459	0.041538836047999995	0.02138028326	0.041538836048	-0.032189999999999996	0.09773	0.39846000000000004	-6.11936	5.17792	-2.3536	0.9938860103626943	52.475
9827	0	1041013	-72	1346	-61	28	-1	39	63	-39	206	-61	1333	-16	42	40	20	-151	398	1172	-288	96	64	51.11	0.9941080680977054	53.84	0.9935455218356772	4449.50732421875	-7309.79150390625	34.900001525878906	2	12	0.6100000143051147	8.107147216796875	3	0	0.0	0.0	0.0	0.0	-0.0679131142238385	0.0	0.0	-0.2554514492966375	0.2763710103	0.4773681087	9.6155576181	0.3580999076366424	-0.5985753536224365	0.3392060995101928	0.6311984062194824	6	44.8251220703125	-73.16319173177084	-0.5168496816	9.6622176588	-0.43788653580000003	-0.43788653580000003	9.5688975774	-0.1148554848	0.034208453215999995	-0.001221730472	0.047647488408	0.051312679824	0.048869218879999995	0.024434609439999998	0.03654	-0.02262	0.11948	-0.08758	0.23084	0.67976	-0.4773681087	9.615557618099999	-0.2763710103	0.04276056652	0.023823744204	0.036041048923999994	-0.02552	0.10411	0.39962000000000003	-8.47296	2.82432	1.88288	0.9938267949666912	52.475
9828	0	1041118	-60	1344	-67	27	-6	43	80	-27	194	-56	1338	-19	42	36	19	-151	398	1172	-224	160	32	51.11	0.9939995065383668	53.84	0.993654083395016	4449.50732421875	-7309.79150390625	34.900001525878906	2	12	0.6100000143051147	8.08056640625	3	0	0.0	0.0	0.0	0.0	-0.0378211994807722	0.0	0.0	-0.2142125744010462	0.3086741153999999	0.4163511324	9.6263253198	0.3580480813980102	-0.5986964702606201	0.3391342759132385	0.6311514377593994	6	44.8251220703125	-73.16319173177084	-0.430708068	9.6478607232	-0.4809573426	-0.40199419680000004	9.6047899164	-0.1363908882	0.032986722744	-0.007330382832	0.052534410296	0.051312679824	0.043982296992	0.023212878968	0.0464	-0.01566	0.11252	-0.08758	0.23084	0.67976	-0.4163511324	9.6263253198	-0.3086741154	0.042149701284	0.01832595708	0.037873644632	-0.020590000000000004	0.10758999999999999	0.39614	-6.59008	4.7072	0.94144	0.9938267949666915	52.475
9829	0	1041224	-61	1340	-64	28	-3	44	80	-27	194	-52	1333	-15	41	38	19	-169	374	1168	-304	144	-80	51.12	0.9940587219343696	53.84	0.993654083395016	4449.50732421875	-7309.79150390625	34.900001525878906	2	12	0.6100000143051147	8.074432373046875	3	0	0.0	0.0	0.0	0.0	-0.0390014542389187	0.0	0.0	-0.2093272044493082	0.2835494781	0.4055834306999999	9.5940222147	0.3581050038337707	-0.5987308621406555	0.3391159474849701	0.631096363067627	6	44.8251220703125	-73.16319173177084	-0.43788653580000003	9.619146852	-0.4594219392	-0.3732803256	9.5688975774	-0.107677017	0.034208453215999995	-0.003665191416	0.053756140768	0.050090949351999994	0.046425757936	0.023212878968	0.0464	-0.01566	0.11252	-0.09802	0.21692	0.67744	-0.4055834307	9.5940222147	-0.28354947810000003	0.042149701283999995	0.02138028326	0.038484509868	-0.02581	0.10063	0.39498	-8.94368	4.23648	-2.3536	0.9938564026646928	52.480000000000004
9830	0	1041329	-60	1344	-68	25	-3	44	74	-47	241	-64	1334	-15	42	42	24	-169	374	1168	-192	176	0	51.11	0.9942067604243772	53.84	0.9936442141623488	4449.50732421875	-7309.79150390625	34.900001525878906	2	12	0.6100000143051147	8.0887451171875	3	0	0.0	0.0	0.0	0.0	-0.1303029789481702	0.0	0.0	-0.3022549256084981	0.2979064137	0.4450650035999999	9.6119683842	0.3582199811935425	-0.5987435579299927	0.3390884697437286	0.6310338377952576	6	44.8251220703125	-73.16319173177084	-0.430708068	9.6478607232	-0.48813581040000004	-0.4594219392	9.5760760452	-0.107677017	0.0305432618	-0.003665191416	0.053756140768	0.051312679824	0.051312679824	0.029321531328	0.04292	-0.02726	0.13978	-0.09802	0.21692	0.67744	-0.4450650036	9.6119683842	-0.29790641370000004	0.040927970812	0.023823744204	0.041538836048	-0.027549999999999998	0.09483	0.40861000000000003	-5.64864	5.17792	0.0	0.9939254872933629	52.475
9831	0	1041435	-66	1339	-66	30	-3	46	74	-47	241	-66	1336	-17	41	35	25	-154	374	1170	-208	256	64	51.12	0.994078460399704	53.84	0.9937231680236862	4449.50732421875	-7309.79150390625	34.900001525878906	2	12	0.6100000143051147	8.08056640625	3	0	0.0	0.0	0.0	0.0	-0.1349707305915179	0.0	0.0	-0.2929484569819443	0.2979064137	0.4737788747999999	9.6012006825	0.3583547472953796	-0.5987594127655029	0.3390343487262726	0.6309713125228882	6	44.8251220703125	-73.16319173177084	-0.4737788748	9.6119683842	-0.4737788748	-0.4737788748	9.590432980800001	-0.12203395260000001	0.03665191416	-0.003665191416	0.056199601711999995	0.050090949351999994	0.042760566519999994	0.0305432618	0.04292	-0.02726	0.13978	-0.08932	0.21692	0.6786	-0.4737788748	9.6012006825	-0.29790641370000004	0.043371431756	0.019547687551999995	0.043371431756	-0.0232	0.09483	0.40919	-6.11936	7.53152	1.88288	0.9939008142116952	52.480000000000004
9832	0	1041540	-64	1336	-66	30	-2	42	92	-50	217	-69	1337	-16	43	38	24	-154	374	1170	-320	64	32	51.11	0.9941672834937084	53.85	0.9935060449050086	4449.50732421875	-7309.79150390625	34.900001525878906	2	12	0.6100000143051147	8.086189270019531	3	0	0.0	0.0	0.0	0.0	-0.1234942439677061	0.0	0.0	-0.2698645628729523	0.2943171798	0.4773681086999999	9.5940222147	0.3585094213485718	-0.5987643003463745	0.3389880955219269	0.6309036612510681	6	44.8251220703125	-73.16319173177084	-0.4594219392	9.590432980800001	-0.4737788748	-0.4953142782	9.5976114486	-0.1148554848	0.03665191416	-0.002443460944	0.051312679824	0.052534410296	0.046425757936	0.029321531328	0.05336	-0.029	0.12586	-0.08932	0.21692	0.6786	-0.4773681087	9.5940222147	-0.2943171798	0.044593162228	0.021991148496	0.040317105576000004	-0.01798	0.09396	0.40223	-9.4144	1.88288	0.94144	0.9938366641993586	52.480000000000004
9833	0	1041645	-65	1341	-63	23	-2	46	92	-50	217	-71	1339	-14	43	38	22	-142	389	1166	-240	160	0	51.11	0.9939402911423636	53.84	0.9936442141623488	4449.50732421875	-7309.79150390625	34.900001525878906	2	12	0.6100000143051147	8.083633422851562	3	0	0.0	0.0	0.0	0.0	0.002638809544958	0.0	0.0	-0.1324867004376841	0.2763710103	0.4881358103999999	9.619146852	0.3556869328022003	-0.5981747508049011	0.3348711729049682	0.6352441906929016	6	44.8251220703125	-73.16319173177084	-0.466600407	9.626325319800001	-0.45224347140000004	-0.5096712138	9.6119683842	-0.10049854920000001	0.028099800855999998	-0.002443460944	0.056199601711999995	0.052534410296	0.046425757936	0.026878070384	0.05336	-0.029	0.12586	-0.08236	0.22562000000000001	0.67628	-0.4881358104	9.619146852	-0.2763710103	0.040317105576	0.021991148496	0.041538836047999995	-0.014500000000000002	0.09831000000000001	0.40107	-7.0608	4.7072	0.0	0.9937922526523562	52.475
9834	0	1041751	-71	1342	-66	31	-4	44	84	-56	225	-61	1333	-14	42	35	23	-142	389	1166	-208	96	16	51.09	0.9937922526523564	53.84	0.9935948679990132	4449.50732421875	-7309.79150390625	34.900001525878906	2	12	0.6100000143051147	8.09283447265625	3	0	0.0	0.0	0.0	0.0	0.0484941114994489	0.0	0.0	-0.0879275471579191	0.2871387119999999	0.4737788747999999	9.6012006825	0.3556627035140991	-0.598250687122345	0.3347831666469574	0.6352325081825256	6	44.8251220703125	-73.16319173177084	-0.5096712138	9.6335037876	-0.4737788748	-0.43788653580000003	9.5688975774	-0.10049854920000001	0.037873644632	-0.004886921888	0.053756140768	0.051312679824	0.042760566519999994	0.028099800855999998	0.04872	-0.03248	0.1305	-0.08236	0.22562000000000001	0.67628	-0.4737788748	9.6012006825	-0.287138712	0.044593162228	0.018936822315999996	0.040927970811999996	-0.01682	0.09657	0.40339	-6.11936	2.82432	0.47072	0.9936935603256848	52.465
9835	0	1041856	-63	1345	-70	23	-4	44	84	-56	225	-59	1334	-21	43	37	23	-151	393	1177	-272	160	0	51.11	0.9939304219096964	53.84	0.9936442141623488	4449.50732421875	-7309.79150390625	34.900001525878906	2	12	0.6100000143051147	8.083633422851562	3	0	0.0	0.0	0.0	0.0	0.0968540943444938	0.0	0.0	-0.048935932037412	0.3266202848999999	0.4378865358	9.6155576181	0.3556049168109894	-0.598282516002655	0.3347542583942413	0.6352502703666687	6	44.8251220703125	-73.16319173177084	-0.45224347140000004	9.655039191	-0.502492746	-0.4235296002	9.5760760452	-0.1507478238	0.028099800855999998	-0.004886921888	0.053756140768	0.052534410296	0.045204027464	0.028099800855999998	0.04872	-0.03248	0.1305	-0.08758	0.22794	0.68266	-0.43788653580000003	9.6155576181	-0.32662028490000006	0.040317105576	0.020158552788	0.040927970811999996	-0.019430000000000003	0.09773	0.40658000000000005	-8.00224	4.7072	0.0	0.9937873180360226	52.475
9836	0	1041962	-59	1346	-66	30	-7	46	59	-31	249	-61	1337	-18	40	34	23	-151	393	1177	-304	80	-16	51.11	0.9939896373056994	53.84	0.9936442141623488	4449.50732421875	-7309.79150390625	34.900001525878906	2	12	0.6100000143051147	8.0887451171875	3	0	0.0	0.0	0.0	0.0	0.1233145556764253	0.0	0.0	-0.0349801830708016	0.3014956475999999	0.4307080679999999	9.6299145537	0.3556037545204162	-0.5983263254165649	0.3346593677997589	0.6352596282958984	6	44.8251220703125	-73.16319173177084	-0.4235296002	9.6622176588	-0.4737788748	-0.43788653580000003	9.5976114486	-0.1292124204	0.03665191416	-0.008552113303999999	0.056199601711999995	0.048869218879999995	0.041538836047999995	0.028099800855999998	0.03422	-0.01798	0.14442	-0.08758	0.22794	0.68266	-0.43070806800000005	9.6299145537	-0.3014956476	0.04276056652	0.016493361372	0.042149701283999995	-0.026680000000000002	0.10498	0.41354	-8.94368	2.3536	-0.47072	0.9938169257340241	52.475
9837	0	1042067	-67	1343	-67	25	0	46	59	-31	249	-57	1331	-24	44	36	21	-168	384	1179	-272	144	-64	51.1	0.9941968911917098	53.84	0.9936442141623488	4449.50732421875	-7309.79150390625	34.79999923706055	2	12	0.6100000143051147	8.083633422851562	3	0	0.0	0.0	0.0	0.0	0.1162445516013991	0.0	0.0	-0.0594176687337924	0.3266202848999999	0.4450650035999999	9.5976114486	0.3557118475437164	-0.5983744263648987	0.334576666355133	0.6351973414421082	6	44.8251220703125	-73.16319173177084	-0.4809573426	9.6406822554	-0.4809573426	-0.4091726646	9.554540641800001	-0.1722832272	0.0305432618	0.0	0.056199601711999995	0.053756140768	0.043982296992	0.025656339912	0.03422	-0.01798	0.14442	-0.09744	0.22272	0.68382	-0.4450650036	9.5976114486	-0.3266202849	0.042149701284	0.021991148496	0.040927970811999996	-0.03161	0.10237	0.41412	-8.00224	4.23648	-1.88288	0.9939205526770294	52.47
9838	0	1042173	-65	1344	-67	29	-1	46	50	-61	264	-67	1335	-19	40	41	24	-168	387	1143	-352	96	48	51.12	0.9939698988403652	53.84	0.99353565260301	4449.50732421875	-7309.79150390625	34.79999923706055	2	12	0.6100000143051147	8.08056640625	3	0	0.0	0.0	0.0	0.0	0.2183620004141646	0.0	0.0	0.0330172818129437	0.3086741153999999	0.4737788747999999	9.6155576181	0.3558143973350525	-0.5983624458312988	0.3345465660095215	0.6351670622825623	6	44.8251220703125	-73.16319173177084	-0.466600407	9.6478607232	-0.4809573426	-0.4809573426	9.583254513	-0.1363908882	0.035430183688	-0.001221730472	0.056199601711999995	0.048869218879999995	0.050090949351999994	0.029321531328	0.029	-0.03538	0.15312	-0.09744	0.22446	0.66294	-0.4737788748	9.6155576181	-0.3086741154	0.042149701284	0.024434609439999998	0.04276056652	-0.03422	0.09454	0.40803	-10.35584	2.82432	1.41216	0.9937527757216876	52.480000000000004
9839	0	1042278	-72	1339	-64	29	-3	45	50	-61	264	-58	1332	-20	40	37	21	-168	387	1143	-320	192	16	51.12	0.9940587219343696	53.84	0.9936047372316802	4449.50732421875	-7309.79150390625	34.79999923706055	2	12	0.6100000143051147	8.0887451171875	3	0	0.0	0.0	0.0	0.0	0.1474752031207091	0.0	0.0	-0.0632440705252801	0.3014956475999999	0.466600407	9.586843746899998	0.3559866547584533	-0.5984006524085999	0.3344423472881317	0.6350893378257751	6	44.8251220703125	-73.16319173177084	-0.5168496816	9.6119683842	-0.4594219392	-0.4163511324	9.5617191096	-0.143569356	0.035430183688	-0.003665191416	0.05497787124	0.048869218879999995	0.045204027464	0.025656339912	0.029	-0.03538	0.15312	-0.09744	0.22446	0.66294	-0.466600407	9.586843746900001	-0.3014956476	0.042149701284	0.020769418024	0.040317105576	-0.03422	0.09454	0.40803	-9.4144	5.64864	0.47072	0.9938317295830249	52.480000000000004
9840	0	1042384	-71	1342	-64	29	-3	44	63	-77	207	-63	1340	-16	44	35	25	-149	413	1184	-224	176	32	51.11	0.9942758450530472	53.84	0.993654083395016	4449.5068359375	-7309.79150390625	34.79999923706055	2	12	0.6100000143051147	8.0887451171875	3	0	0.0	0.0	0.0	0.0	0.1119964592291095	0.0	0.0	-0.1163291975643059	0.2871387119999999	0.4809573425999999	9.6263253198	0.3560574948787689	-0.5984399914741516	0.3343875706195831	0.6350414752960205	6	44.825113932291664	-73.16319173177084	-0.5096712138	9.6335037876	-0.4594219392	-0.45224347140000004	9.619146852	-0.1148554848	0.035430183688	-0.003665191416	0.053756140768	0.053756140768	0.042760566519999994	0.0305432618	0.03654	-0.04466	0.12006	-0.08642	0.23954	0.68672	-0.4809573426	9.6263253198	-0.287138712	0.044593162228	0.019547687551999995	0.042149701284	-0.024939999999999997	0.09744	0.40339	-6.59008	5.17792	0.94144	0.9939649642240316	52.475
9841	0	1042489	-67	1336	-60	28	-2	45	49	-54	248	-64	1332	-15	43	39	22	-149	413	1184	-304	48	-16	51.12	0.9940587219343696	53.84	0.9937231680236862	4449.5068359375	-7309.79150390625	34.79999923706055	2	12	0.6100000143051147	8.089767456054688	3	0	0.0	0.0	0.0	0.0	0.1144729429129128	0.0	0.0	-0.1217889537820674	0.2691925424999999	0.4701896408999999	9.5760760452	0.3561232388019562	-0.598502516746521	0.3343730866909027	0.6349532604217529	6	44.825113932291664	-73.16319173177084	-0.4809573426	9.590432980800001	-0.430708068	-0.4594219392	9.5617191096	-0.107677017	0.034208453215999995	-0.002443460944	0.05497787124	0.052534410296	0.047647488408	0.026878070384	0.02842	-0.03132	0.14384	-0.08642	0.23954	0.68672	-0.47018964090000004	9.5760760452	-0.2691925425	0.043371431756	0.022602013732	0.040927970811999996	-0.028999999999999998	0.10411000000000001	0.41528	-8.94368	1.41216	-0.47072	0.9938909449790279	52.480000000000004
9842	0	1042594	-63	1344	-57	29	-5	42	49	-54	248	-57	1336	-11	41	38	21	-128	410	1161	-160	144	48	51.11	0.9942067604243772	53.83	0.993584998766346	4449.5068359375	-7309.79150390625	34.79999923706055	2	12	0.6100000143051147	8.090789794921875	3	0	0.0	0.0	0.0	0.0	0.1655267101897853	0.0	0.0	-0.0785607072675063	0.2440679052	0.4307080679999999	9.619146852	0.3561521768569946	-0.5986218452453613	0.3342985510826111	0.6348638534545898	6	44.825113932291664	-73.16319173177084	-0.45224347140000004	9.6478607232	-0.4091726646	-0.4091726646	9.590432980800001	-0.07896314580000001	0.035430183688	-0.0061086523599999994	0.051312679824	0.050090949351999994	0.046425757936	0.025656339912	0.02842	-0.03132	0.14384	-0.07424	0.2378	0.67338	-0.43070806800000005	9.619146852	-0.24406790520000002	0.04276056652	0.020158552788	0.038484509868	-0.02291	0.10324	0.40861	-4.7072	4.23648	1.41216	0.9938958795953616	52.47
9843	0	1042700	-61	1336	-65	25	-3	47	53	-47	227	-62	1334	-14	38	35	21	-128	410	1161	-224	48	96	51.1	0.9939698988403652	53.83	0.9935257833703428	4449.5068359375	-7309.79150390625	34.79999923706055	2	12	0.6100000143051147	8.091812133789062	3	0	0.0	0.0	0.0	0.0	0.1649613405732189	0.0	0.0	-0.0922080074733197	0.2835494781	0.4414757696999999	9.583254513	0.3535271286964416	-0.6007182002067566	0.3348895907402038	0.6340388655662537	6	44.825113932291664	-73.16319173177084	-0.43788653580000003	9.590432980800001	-0.466600407	-0.4450650036	9.5760760452	-0.10049854920000001	0.0305432618	-0.003665191416	0.057421332183999994	0.046425757936	0.042760566519999994	0.025656339912	0.03074	-0.02726	0.13166	-0.07424	0.2378	0.67338	-0.4414757697	9.583254513	-0.2835494781	0.038484509868	0.019547687551999995	0.041538836047999995	-0.02175	0.10527	0.40252	-6.59008	1.41216	2.82432	0.993747841105354	52.465
9844	0	1042805	-60	1343	-66	24	-10	44	53	-47	227	-64	1336	-21	39	35	22	-145	398	1169	-288	64	96	51.1	0.9942067604243772	53.84	0.9936442141623488	4449.5068359375	-7309.79150390625	34.900001525878906	2	12	0.6100000143051147	8.08465576171875	3	0	0.0	0.0	0.0	0.0	0.11787759081725	0.0	0.0	-0.1480503960308775	0.3122633493	0.4450650035999999	9.6155576181	0.3534731268882751	-0.600744366645813	0.3348104059696197	0.6340859532356262	6	44.825113932291664	-73.16319173177084	-0.430708068	9.6406822554	-0.4737788748	-0.4594219392	9.590432980800001	-0.1507478238	0.029321531328	-0.012217304719999999	0.053756140768	0.047647488408	0.042760566519999994	0.026878070384	0.03074	-0.02726	0.13166	-0.0841	0.23084	0.67802	-0.4450650036	9.6155576181	-0.3122633493	0.038484509868	0.015271630899999998	0.040317105576	-0.026679999999999995	0.10178999999999999	0.40484	-8.47296	1.88288	2.82432	0.9939254872933629	52.47
9845	0	1042911	-67	1344	-63	28	-4	48	73	-23	249	-57	1334	-18	42	37	25	-145	398	1169	-192	160	-48	51.12	0.9942363681223784	53.84	0.993654083395016	4449.5068359375	-7309.79150390625	34.900001525878906	2	12	0.6100000143051147	8.086700439453125	3	0	0.0	0.0	0.0	0.0	-0.052610859746206	0.0	0.0	-0.3256373057885537	0.2907279459	0.4450650035999999	9.6119683842	0.3535479307174682	-0.6007314324378967	0.3346767425537109	0.6341270804405212	6	44.825113932291664	-73.16319173177084	-0.4809573426	9.6478607232	-0.45224347140000004	-0.4091726646	9.5760760452	-0.1292124204	0.034208453215999995	-0.004886921888	0.058643062656	0.051312679824	0.045204027464	0.0305432618	0.04234	-0.01334	0.14442	-0.0841	0.23084	0.67802	-0.4450650036	9.6119683842	-0.2907279459	0.04276056652	0.020158552788	0.044593162228	-0.020879999999999996	0.10875	0.41122	-5.64864	4.7072	-1.41216	0.9939452257586971	52.480000000000004
9846	0	1043016	-66	1336	-65	27	-2	48	73	-23	249	-58	1335	-22	44	36	25	-176	380	1166	-256	96	-32	51.12	0.9942363681223784	53.84	0.9936442141623488	4449.5068359375	-7309.79150390625	34.900001525878906	2	12	0.6100000143051147	8.0887451171875	3	0	0.0	0.0	0.0	0.0	-0.1103540549370551	0.0	0.0	-0.3716203300506822	0.3122633493	0.4450650036	9.5868437469	0.3536794185638428	-0.6006922125816345	0.3345937430858612	0.6341346502304077	6	44.825113932291664	-73.16319173177084	-0.4737788748	9.590432980800001	-0.466600407	-0.4163511324	9.583254513	-0.15792629160000002	0.032986722744	-0.002443460944	0.058643062656	0.053756140768	0.043982296992	0.0305432618	0.04234	-0.01334	0.14442	-0.10208	0.2204	0.67628	-0.4450650036	9.586843746900001	-0.3122633493	0.043371431756	0.020769418024	0.044593162228	-0.02987	0.10353000000000001	0.41035	-7.53152	2.82432	-0.94144	0.9939402911423636	52.480000000000004
9847	0	1043122	-63	1344	-60	30	-5	43	58	-57	237	-63	1335	-17	45	39	25	-176	380	1166	-288	96	0	51.1	0.994088329632371	53.84	0.9937527757216876	4449.5068359375	-7309.79150390625	34.900001525878906	2	12	0.6100000143051147	8.089767456054688	3	0	0.0	0.0	0.0	0.0	-0.1222455462583575	0.0	0.0	-0.3645353775154786	0.2763710103	0.4522434714	9.6155576181	0.3538196682929992	-0.6006951332092285	0.3345538079738617	0.6340747475624084	6	44.825113932291664	-73.16319173177084	-0.45224347140000004	9.6478607232	-0.430708068	-0.45224347140000004	9.583254513	-0.12203395260000001	0.03665191416	-0.0061086523599999994	0.052534410296	0.05497787124	0.047647488408	0.0305432618	0.03364	-0.03306	0.13746	-0.10208	0.2204	0.67628	-0.45224347140000004	9.6155576181	-0.2763710103	0.0458148927	0.020769418023999998	0.041538836048	-0.03422	0.09367	0.40687	-8.47296	2.82432	0.0	0.9939205526770294	52.47
9848	0	1043227	-65	1342	-71	25	3	45	58	-57	237	-62	1337	-15	40	38	21	-151	395	1178	-192	224	32	51.12	0.9942363681223784	53.84	0.993713298791019	4449.5068359375	-7309.79150390625	34.900001525878906	2	12	0.6100000143051147	8.0887451171875	3	0	0.0	0.0	0.0	0.0	-0.1591738365460289	0.0	0.0	-0.3847516568729933	0.3086741153999999	0.4558327053	9.6155576181	0.3539642691612243	-0.6007243990898132	0.3345791697502136	0.6339530348777771	6	44.825113932291664	-73.16319173177084	-0.466600407	9.6335037876	-0.5096712138	-0.4450650036	9.5976114486	-0.107677017	0.0305432618	0.003665191416	0.05497787124	0.048869218879999995	0.046425757936	0.025656339912	0.03364	-0.03306	0.13746	-0.08758	0.2291	0.68324	-0.4558327053	9.6155576181	-0.3086741154	0.03970624034	0.025045474675999997	0.040317105576	-0.02697	0.09802	0.41035	-5.64864	6.59008	0.94144	0.9939748334566987	52.480000000000004
9849	0	1043333	-62	1340	-59	31	-2	43	48	-45	229	-57	1337	-12	38	36	21	-151	395	1178	-288	128	0	51.11	0.9941672834937084	53.84	0.9936047372316802	4449.5068359375	-7309.79150390625	34.900001525878906	2	12	0.6100000143051147	8.093856811523438	3	0	0.0	0.0	0.0	0.0	-0.1361588443825678	0.0	0.0	-0.3431667362199266	0.2548356068999999	0.4271188340999999	9.6083791503	0.3540421426296234	-0.6007816195487976	0.3345585167407989	0.6338660717010498	6	44.825113932291664	-73.16319173177084	-0.4450650036	9.619146852	-0.4235296002	-0.4091726646	9.5976114486	-0.0861416136	0.037873644632	-0.002443460944	0.052534410296	0.046425757936	0.043982296992	0.025656339912	0.02784	-0.0261	0.13282	-0.08758	0.2291	0.68324	-0.4271188341	9.6083791503	-0.2548356069	0.042149701284	0.020769418024	0.039095375104	-0.02987	0.10149999999999999	0.40803	-8.47296	3.76576	0.0	0.9938860103626943	52.475
9850	0	1043438	-60	1343	-64	27	0	45	48	-45	229	-62	1333	-9	42	40	22	-159	388	1140	-256	128	-32	51.12	0.9940685911670368	53.84	0.9935948679990132	4449.5068359375	-7309.79150390625	34.900001525878906	2	12	0.6100000143051147	8.10101318359375	3	0	0.0	0.0	0.0	0.0	-0.0338156496698372	0.0	0.0	-0.2195390689222609	0.2620140747	0.4378865357999999	9.6047899164	0.3541517853736877	-0.6008146405220032	0.3345741033554077	0.6337653398513794	6	44.825113932291664	-73.16319173177084	-0.430708068	9.6406822554	-0.4594219392	-0.4450650036	9.5688975774	-0.0646062102	0.032986722744	0.0	0.05497787124	0.051312679824	0.048869218879999995	0.026878070384	0.02784	-0.0261	0.13282	-0.09222	0.22504	0.6612	-0.43788653580000003	9.6047899164	-0.2620140747	0.042149701284	0.024434609439999998	0.040927970811999996	-0.032189999999999996	0.09946999999999999	0.39701	-7.53152	3.76576	-0.94144	0.993831729583025	52.480000000000004
9851	0	1043544	-64	1342	-64	26	-4	44	62	-66	216	-66	1337	-11	42	34	23	-159	388	1140	-240	-16	-32	51.11	0.9942166296570442	53.84	0.9936047372316802	4449.5068359375	-7309.79150390625	34.900001525878906	2	12	0.6100000143051147	8.0887451171875	3	0	0.0	0.0	0.0	0.0	-0.0204660818927855	0.0	0.0	-0.2049746327174304	0.2691925424999999	0.4666004069999999	9.6155576181	0.3542678654193878	-0.6008542776107788	0.3345479965209961	0.6336767077445984	6	44.825113932291664	-73.16319173177084	-0.4594219392	9.6335037876	-0.4594219392	-0.4737788748	9.5976114486	-0.07896314580000001	0.031764992272	-0.004886921888	0.053756140768	0.051312679824	0.041538836047999995	0.028099800855999998	0.03596	-0.03828	0.12528	-0.09222	0.22504	0.6612	-0.46660040700000005	9.6155576181	-0.2691925425	0.041538836048	0.018325957079999997	0.040927970811999996	-0.02813	0.09337999999999999	0.39324000000000003	-7.0608	-0.47072	-0.94144	0.9939106834443622	52.475
9852	0	1043649	-66	1340	-69	25	-5	44	62	-66	216	-65	1331	-18	42	38	23	-152	390	1161	-320	64	-64	51.11	0.9939402911423636	53.84	0.9936442141623488	4449.5068359375	-7309.79150390625	34.900001525878906	2	12	0.6100000143051147	8.096923828125	3	0	0.0	0.0	0.0	0.0	0.1268526960187319	0.0	0.0	-0.0538827043821655	0.3122633493	0.4701896408999999	9.5868437469	0.3419983685016632	-0.6065464615821838	0.3238328099250793	0.6405239105224609	6	44.825113932291664	-73.16319173177084	-0.4737788748	9.619146852	-0.4953142782	-0.466600407	9.554540641800001	-0.1292124204	0.0305432618	-0.0061086523599999994	0.053756140768	0.051312679824	0.046425757936	0.028099800855999998	0.03596	-0.03828	0.12528	-0.08816	0.2262	0.67338	-0.47018964090000004	9.586843746900001	-0.3122633493	0.040927970812	0.020158552788	0.040927970811999996	-0.0261	0.09396	0.39932999999999996	-9.4144	1.88288	-1.88288	0.9937922526523562	52.475
9853	0	1043754	-59	1344	-70	27	-6	45	63	-71	227	-62	1334	-22	40	37	22	-171	393	1163	-304	80	16	51.1	0.994078460399704	53.83	0.9936935603256848	4449.5068359375	-7309.79150390625	34.900001525878906	2	12	0.6100000143051147	8.082099914550781	3	0	0.0	0.0	0.0	0.0	0.128528523929514	0.0	0.0	-0.0673916394244084	0.3302095187999999	0.4342973018999999	9.6119683842	0.3420557081699371	-0.6065003275871277	0.3237887322902679	0.6405592560768127	6	44.825113932291664	-73.16319173177084	-0.4235296002	9.6478607232	-0.502492746	-0.4450650036	9.5760760452	-0.15792629160000002	0.032986722744	-0.007330382832	0.05497787124	0.048869218879999995	0.045204027464	0.026878070384	0.03654	-0.04118	0.13166	-0.09918	0.22794	0.67454	-0.43429730190000004	9.6119683842	-0.33020951880000005	0.040927970811999996	0.018936822316	0.040927970811999996	-0.03132	0.09338	0.4031	-8.94368	2.3536	0.47072	0.9938860103626944	52.465
9854	0	1043860	-62	1343	-63	32	-2	42	63	-71	227	-62	1340	-24	40	38	23	-171	393	1163	-320	64	-48	51.11	0.9940389834690352	53.84	0.9936442141623488	4449.5068359375	-7309.79150390625	34.900001525878906	2	12	0.6100000143051147	8.099990844726562	3	0	0.0	0.0	0.0	0.0	0.1404429319651787	0.0	0.0	-0.0689987954916668	0.3122633493	0.4450650035999999	9.6299145537	0.3420817255973816	-0.60654217004776	0.3237365484237671	0.6405320763587952	6	44.825113932291664	-73.16319173177084	-0.4450650036	9.6406822554	-0.45224347140000004	-0.4450650036	9.619146852	-0.1722832272	0.039095375104	-0.002443460944	0.051312679824	0.048869218879999995	0.046425757936	0.028099800855999998	0.03654	-0.04118	0.13166	-0.09918	0.22794	0.67454	-0.4450650036	9.6299145537	-0.3122633493	0.043982296992	0.021991148496	0.03970624034	-0.03132	0.09338	0.4031	-9.4144	1.88288	-1.41216	0.993841598815692	52.475
9855	0	1043965	-64	1344	-68	29	0	45	56	-69	219	-65	1333	-18	39	39	24	-177	374	1171	-224	176	32	51.1	0.994088329632371	53.85	0.9935652603010116	4449.5068359375	-7309.79150390625	34.900001525878906	2	12	0.6100000143051147	8.096923828125	3	0	0.0	0.0	0.0	0.0	0.1464160797676735	0.0	0.0	-0.0745694550303145	0.3086741154	0.4630111730999999	9.6083791503	0.3421876430511474	-0.6064878702163696	0.3237822353839874	0.6405038237571716	6	44.825113932291664	-73.16319173177084	-0.4594219392	9.6478607232	-0.48813581040000004	-0.466600407	9.5688975774	-0.1292124204	0.035430183688	0.0	0.05497787124	0.047647488408	0.047647488408	0.029321531328	0.03248	-0.04002	0.12702	-0.10266	0.21692	0.67918	-0.4630111731	9.6083791503	-0.3086741154	0.041538836048	0.023823744204	0.042149701284	-0.035089999999999996	0.08845	0.4031	-6.59008	5.17792	0.94144	0.9938267949666912	52.475
9856	0	1044071	-63	1346	-61	29	-4	43	56	-69	219	-61	1337	-21	44	38	20	-177	374	1171	-288	112	16	51.12	0.9942264988897114	53.84	0.9936047372316802	4449.5068359375	-7309.79150390625	34.900001525878906	2	12	0.6100000143051147	8.097946166992188	3	0	0.0	0.0	0.0	0.0	0.1234873476332	0.0	0.0	-0.1120903299214256	0.2943171798	0.4450650036	9.6299145537	0.3422432839870453	-0.6065422892570496	0.3237928450107574	0.6404172778129578	6	44.825113932291664	-73.16319173177084	-0.45224347140000004	9.6622176588	-0.43788653580000003	-0.43788653580000003	9.5976114486	-0.1507478238	0.035430183688	-0.004886921888	0.052534410296	0.053756140768	0.046425757936	0.024434609439999998	0.03248	-0.04002	0.12702	-0.10266	0.21692	0.67918	-0.4450650036	9.6299145537	-0.29431717980000005	0.044593162228	0.020769418023999998	0.038484509868	-0.035089999999999996	0.08845	0.4031	-8.47296	3.29504	0.47072	0.9939156180606958	52.480000000000004
9857	0	1044176	-61	1347	-63	31	-2	44	41	-48	220	-60	1337	-12	45	39	21	-166	387	1198	-272	128	16	51.1	0.9939797680730325	53.84	0.9936047372316802	4449.5068359375	-7309.79150390625	34.900001525878906	2	12	0.6100000143051147	8.089256286621094	3	0	0.0	0.0	0.0	0.0	0.1527647524294604	0.0	0.0	-0.0895555009110757	0.2691925425	0.4342973018999999	9.6335037876	0.342357724905014	-0.6066329479217529	0.3238000571727752	0.6402665376663208	6	44.825113932291664	-73.16319173177084	-0.43788653580000003	9.6693961266	-0.45224347140000004	-0.430708068	9.5976114486	-0.0861416136	0.037873644632	-0.002443460944	0.053756140768	0.05497787124	0.047647488408	0.025656339912	0.02378	-0.02784	0.1276	-0.09628	0.22446	0.69484	-0.43429730190000004	9.6335037876	-0.2691925425	0.046425757936	0.022602013732	0.03970624034	-0.036250000000000004	0.09831	0.41122000000000003	-8.00224	3.76576	0.47072	0.9937922526523564	52.47
9858	0	1044282	-60	1338	-63	31	-4	45	41	-48	220	-55	1336	-17	44	40	20	-166	387	1198	-288	16	0	51.1	0.9942067604243772	53.84	0.9936047372316802	4449.5068359375	-7309.79150390625	34.900001525878906	2	12	0.6100000143051147	8.08056640625	3	0	0.0	0.0	0.0	0.0	0.1569494574653611	0.0	0.0	-0.0983330909080442	0.2871387119999999	0.4127618984999999	9.5976114486	0.342453271150589	-0.6066659688949585	0.3238095343112945	0.6401793360710144	6	44.825113932291664	-73.16319173177084	-0.430708068	9.6047899164	-0.45224347140000004	-0.394815729	9.590432980800001	-0.12203395260000001	0.037873644632	-0.004886921888	0.05497787124	0.053756140768	0.048869218879999995	0.024434609439999998	0.02378	-0.02784	0.1276	-0.09628	0.22446	0.69484	-0.4127618985	9.5976114486	-0.287138712	0.0458148927	0.021991148495999997	0.03970624034	-0.036250000000000004	0.09831	0.41122000000000003	-8.47296	0.47072	0.0	0.9939057488280287	52.47
9859	0	1044387	-63	1336	-58	26	-2	47	45	-39	243	-58	1336	-20	37	36	22	-164	398	1153	-272	128	16	51.11	0.9941574142610412	53.84	0.9936047372316802	4449.5068359375	-7309.79150390625	34.900001525878906	2	12	0.6100000143051147	8.09283447265625	3	0	0.0	0.0	0.0	0.0	0.0270492055687003	0.0	0.0	-0.243221740872075	0.2799602442	0.4342973019	9.5904329808	0.3425179123878479	-0.6066815257072449	0.3238165378570556	0.6401264667510986	6	44.825113932291664	-73.16319173177084	-0.45224347140000004	9.590432980800001	-0.4163511324	-0.4163511324	9.590432980800001	-0.143569356	0.031764992272	-0.002443460944	0.057421332183999994	0.045204027464	0.043982296992	0.026878070384	0.0261	-0.02262	0.14094	-0.09512	0.23084	0.66874	-0.43429730190000004	9.590432980800001	-0.2799602442	0.038484509868	0.020769418024	0.042149701283999995	-0.03451	0.10411	0.40484	-8.00224	3.76576	0.47072	0.9938810757463608	52.475
9860	0	1044493	-73	1341	-61	29	-4	44	46	-41	194	-63	1339	-12	39	37	26	-164	398	1153	-288	144	16	51.11	0.9940488527017024	53.84	0.993713298791019	4449.5068359375	-7309.79150390625	34.900001525878906	2	12	0.6100000143051147	8.09283447265625	3	0	0.0	0.0	0.0	0.0	-0.0106812676519159	0.0	0.0	-0.2752784132748051	0.2620140747	0.4881358104	9.619146852	0.3425026535987854	-0.6066654920578003	0.3237374722957611	0.6401898264884949	6	44.825113932291664	-73.16319173177084	-0.5240281494	9.626325319800001	-0.43788653580000003	-0.45224347140000004	9.6119683842	-0.0861416136	0.035430183688	-0.004886921888	0.053756140768	0.047647488408	0.045204027464	0.031764992272	0.02668	-0.02378	0.11252	-0.09512	0.23084	0.66874	-0.4881358104	9.619146852	-0.26201407470000004	0.041538836048	0.020158552788	0.04276056652	-0.03422	0.10353	0.39063	-8.47296	4.23648	0.47072	0.9938810757463608	52.475
9861	0	1044598	-67	1345	-61	30	-6	47	46	-41	194	-62	1336	-22	43	38	24	-171	379	1201	-160	176	32	51.11	0.9939995065383668	53.84	0.99353565260301	4449.5068359375	-7309.79150390625	34.900001525878906	2	12	0.6100000143051147	8.091812133789062	3	0	0.0	0.0	0.0	0.0	0.0590893802626117	0.0	0.0	-0.1945457618393434	0.2979064137	0.4630111730999999	9.622736085899998	0.3425292074680328	-0.6066583395004272	0.3236908316612243	0.640205979347229	6	44.825113932291664	-73.16319173177084	-0.4809573426	9.655039191	-0.43788653580000003	-0.4450650036	9.590432980800001	-0.15792629160000002	0.03665191416	-0.007330382832	0.057421332183999994	0.052534410296	0.046425757936	0.029321531328	0.02668	-0.02378	0.11252	-0.09918	0.21982	0.69658	-0.4630111731	9.622736085900002	-0.29790641370000004	0.044593162228	0.019547687552	0.043371431756	-0.036250000000000004	0.09802	0.40454999999999997	-4.7072	5.17792	0.94144	0.9937675795706884	52.475
9862	0	1044703	-66	1344	-62	26	-9	42	56	-36	270	-65	1333	-21	40	35	24	-171	379	1201	-208	64	-64	51.11	0.9941080680977054	53.84	0.9935948679990132	4449.5068359375	-7309.79150390625	34.900001525878906	2	12	0.6100000143051147	8.10101318359375	3	0	0.0	0.0	0.0	0.0	0.0169779420517154	0.0	0.0	-0.2390694228098283	0.2979064137	0.4701896408999999	9.6083791503	0.3252207636833191	-0.6138695478439331	0.3069147765636444	0.6505374908447266	6	44.825113932291664	-73.16319173177084	-0.4737788748	9.6478607232	-0.4450650036	-0.466600407	9.5688975774	-0.1507478238	0.031764992272	-0.010995574248	0.051312679824	0.048869218879999995	0.042760566519999994	0.029321531328	0.03248	-0.02088	0.1566	-0.09918	0.21982	0.69658	-0.47018964090000004	9.6083791503	-0.29790641370000004	0.040317105576	0.015882496136	0.040317105576000004	-0.033350000000000005	0.09946999999999999	0.42658999999999997	-6.11936	1.88288	-1.88288	0.9938514680483592	52.475
9863	0	1044809	-62	1339	-64	29	-3	44	56	-36	270	-57	1337	-20	44	37	20	-164	392	1157	-192	80	0	51.1	0.9941376757957068	53.85	0.9936146064643474	4449.5068359375	-7309.79150390625	34.900001525878906	2	12	0.6100000143051147	8.0887451171875	3	0	0.0	0.0	0.0	0.0	-0.0348412124538137	0.0	0.0	-0.2842890564798987	0.3014956475999999	0.4271188340999999	9.604789916399998	0.3252479135990143	-0.6139267683029175	0.3069426715373993	0.6504567861557007	6	44.825113932291664	-73.16319173177084	-0.4450650036	9.6119683842	-0.4594219392	-0.4091726646	9.5976114486	-0.143569356	0.035430183688	-0.003665191416	0.053756140768	0.053756140768	0.045204027464	0.024434609439999998	0.03248	-0.02088	0.1566	-0.09512	0.22736	0.67106	-0.4271188341	9.604789916400001	-0.3014956476	0.044593162228	0.020769418024	0.039095375104	-0.03132	0.10324	0.41383	-5.64864	2.3536	0.0	0.9938761411300271	52.475
9864	0	1044914	-60	1342	-66	28	0	47	81	-42	220	-59	1333	-24	42	40	19	-164	392	1157	-224	48	0	51.11	0.9939896373056994	53.84	0.993654083395016	4449.5068359375	-7309.79150390625	34.900001525878906	2	12	0.6100000143051147	8.082611083984375	3	0	0.0	0.0	0.0	0.0	0.0465283560963853	0.0	0.0	-0.1898994966513076	0.3230310509999999	0.4271188340999999	9.6012006825	0.3253625631332397	-0.6139706969261169	0.3069854378700256	0.6503377556800842	6	44.825113932291664	-73.16319173177084	-0.430708068	9.6335037876	-0.4737788748	-0.4235296002	9.5688975774	-0.1722832272	0.034208453215999995	0.0	0.057421332183999994	0.051312679824	0.048869218879999995	0.023212878968	0.04698	-0.02436	0.1276	-0.09512	0.22736	0.67106	-0.4271188341	9.6012006825	-0.323031051	0.04276056652	0.024434609439999998	0.040317105576	-0.024069999999999998	0.1015	0.39932999999999996	-6.59008	1.41216	0.0	0.9938218603503577	52.475
9865	0	1045020	-64	1345	-67	29	-3	49	81	-42	220	-54	1337	-18	42	34	23	-171	364	1179	-160	64	32	51.11	0.9941672834937084	53.84	0.993713298791019	4449.5068359375	-7309.79150390625	34.900001525878906	2	12	0.6100000143051147	8.083633422851562	3	0	0.0	0.0	0.0	0.0	-0.0395289678788338	0.0	0.0	-0.2786532693780882	0.3050848814999999	0.4235296001999999	9.6263253198	0.3254714608192444	-0.6140615940093994	0.3068848550319671	0.6502448916435242	6	44.825113932291664	-73.16319173177084	-0.4594219392	9.655039191	-0.4809573426	-0.3876372612	9.5976114486	-0.1292124204	0.035430183688	-0.003665191416	0.059864793128	0.051312679824	0.041538836047999995	0.028099800855999998	0.04698	-0.02436	0.1276	-0.09918	0.21112	0.68382	-0.4235296002	9.6263253198	-0.3050848815	0.043371431756	0.018936822315999996	0.043982296992	-0.0261	0.09338	0.40571	-4.7072	1.88288	0.94144	0.9939402911423637	52.475
9866	0	1045125	-64	1342	-60	26	-6	45	66	-44	231	-59	1336	-17	39	38	21	-171	364	1179	-304	64	-64	51.11	0.9941672834937084	53.85	0.9935060449050086	4449.5068359375	-7309.79150390625	34.900001525878906	2	12	0.6100000143051147	8.082099914550781	3	0	0.0	0.0	0.0	0.0	0.0381451217403839	0.0	0.0	-0.1893902304956198	0.2763710103	0.4414757696999999	9.6119683842	0.3255461454391479	-0.6140561103820801	0.3068505227565765	0.6502289772033691	6	44.825113932291664	-73.16319173177084	-0.4594219392	9.6335037876	-0.430708068	-0.4235296002	9.590432980800001	-0.12203395260000001	0.031764992272	-0.007330382832	0.05497787124	0.047647488408	0.046425757936	0.025656339912	0.03828	-0.02552	0.13398	-0.09918	0.21112	0.68382	-0.4414757697	9.6119683842	-0.2763710103	0.03970624034	0.019547687552	0.040317105576	-0.03045	0.0928	0.4089	-8.94368	1.88288	-1.88288	0.9938366641993586	52.480000000000004
9867	0	1045231	-66	1339	-65	26	-3	47	66	-44	231	-61	1341	-13	43	39	23	-171	380	1193	-224	112	16	51.11	0.9940981988650384	53.84	0.9936442141623488	4449.5068359375	-7309.79150390625	34.900001525878906	2	12	0.6100000143051147	8.08465576171875	3	0	0.0	0.0	0.0	0.0	0.0481059843895388	0.0	0.0	-0.1788297675843523	0.2799602442	0.4558327053	9.619146852	0.325675904750824	-0.6140604019165039	0.3068174719810486	0.6501753926277161	6	44.825113932291664	-73.16319173177084	-0.4737788748	9.6119683842	-0.466600407	-0.43788653580000003	9.626325319800001	-0.0933200814	0.031764992272	-0.003665191416	0.057421332183999994	0.052534410296	0.047647488408	0.028099800855999998	0.03828	-0.02552	0.13398	-0.09918	0.2204	0.69194	-0.45583270530000003	9.619146852	-0.2799602442	0.042149701284	0.021991148496	0.042760566519999994	-0.03045	0.09744	0.41296	-6.59008	3.29504	0.47072	0.9938712065136937	52.475
9868	0	1045336	-66	1344	-62	27	-8	46	68	-40	209	-62	1336	-16	39	40	23	-150	405	1149	-160	160	48	51.1	0.9942067604243772	53.84	0.9934764372070072	4449.5068359375	-7309.79150390625	34.900001525878906	2	12	0.6100000143051147	8.096923828125	3	0	0.0	0.0	0.0	0.0	0.0311484789319352	0.0	0.0	-0.196733961084664	0.2799602442	0.4594219391999999	9.619146852	0.3257802724838257	-0.6140259504318237	0.3068055212497711	0.6501613259315491	6	44.825113932291664	-73.16319173177084	-0.4737788748	9.6478607232	-0.4450650036	-0.4450650036	9.590432980800001	-0.1148554848	0.032986722744	-0.009773843776	0.056199601711999995	0.047647488408	0.048869218879999995	0.028099800855999998	0.03944	-0.0232	0.12122	-0.087	0.2349	0.66642	-0.4594219392	9.619146852	-0.2799602442	0.040317105576	0.019547687552	0.042149701283999995	-0.023779999999999996	0.10585	0.39382	-4.7072	4.7072	1.41216	0.9938415988156921	52.47
9869	0	1045442	-61	1334	-68	28	-6	47	68	-40	209	-63	1334	-19	41	36	21	-150	405	1149	-208	176	32	51.11	0.9940488527017024	53.84	0.9935455218356772	4449.5068359375	-7309.79150390625	34.900001525878906	2	12	0.6100000143051147	8.091812133789062	3	0	0.0	0.0	0.0	0.0	0.028589999371929	0.0	0.0	-0.1949563758944368	0.3122633493	0.4450650036	9.5760760452	0.3257977366447449	-0.6140148043632507	0.3067481815814972	0.6501902341842651	6	44.825113932291664	-73.16319173177084	-0.43788653580000003	9.5760760452	-0.48813581040000004	-0.45224347140000004	9.5760760452	-0.1363908882	0.034208453215999995	-0.007330382832	0.057421332183999994	0.050090949351999994	0.043982296992	0.025656339912	0.03944	-0.0232	0.12122	-0.087	0.2349	0.66642	-0.4450650036	9.5760760452	-0.3122633493	0.042149701283999995	0.01832595708	0.041538836047999995	-0.023779999999999996	0.10585	0.39382	-6.11936	5.17792	0.94144	0.9937971872686898	52.475
9870	0	1045547	-66	1337	-60	27	-5	41	52	-34	216	-66	1333	-20	41	38	22	-181	378	1178	-272	16	-80	51.11	0.9940389834690352	53.85	0.9936738218603504	4449.5068359375	-7309.79150390625	34.900001525878906	2	12	0.6100000143051147	8.099990844726562	3	0	0.0	0.0	0.0	0.0	-0.0090800641854739	0.0	0.0	-0.2332963822079852	0.2871387119999999	0.4737788747999999	9.583254513	0.3257659375667572	-0.6140408515930176	0.3067429363727569	0.650183916091919	6	44.825113932291664	-73.16319173177084	-0.4737788748	9.5976114486	-0.430708068	-0.4737788748	9.5688975774	-0.143569356	0.032986722744	-0.0061086523599999994	0.050090949351999994	0.050090949351999994	0.046425757936	0.026878070384	0.03016	-0.01972	0.12528	-0.10498	0.21924	0.68324	-0.4737788748	9.583254513	-0.287138712	0.041538836047999995	0.020158552788	0.038484509868	-0.03741	0.09975999999999999	0.40425999999999995	-8.00224	0.47072	-2.3536	0.9938564026646928	52.480000000000004
9871	0	1045652	-64	1349	-66	25	-3	41	52	-34	216	-59	1333	-17	44	40	21	-181	378	1178	-272	160	0	51.11	0.9940981988650384	53.84	0.9936442141623488	4449.5068359375	-7309.79150390625	34.900001525878906	2	12	0.6100000143051147	8.081588745117188	3	0	0.0	0.0	0.0	0.0	-0.0413314050400856	0.0	0.0	-0.2637705919809376	0.2979064137	0.4414757696999999	9.6263253198	0.3331771492958069	-0.6102511286735535	0.3146510422229767	0.6462053060531616	6	44.825113932291664	-73.16319173177084	-0.4594219392	9.683753062200001	-0.4737788748	-0.4235296002	9.5688975774	-0.12203395260000001	0.0305432618	-0.003665191416	0.050090949351999994	0.053756140768	0.048869218879999995	0.025656339912	0.03016	-0.01972	0.12528	-0.10498	0.21924	0.68324	-0.4414757697	9.6263253198	-0.29790641370000004	0.042149701284	0.022602013732	0.037873644632	-0.03741	0.09975999999999999	0.40425999999999995	-8.00224	4.7072	0.0	0.9938712065136937	52.475
