,packetType,timestamp_ms,imu1_accel_x,imu1_accel_y,imu1_accel_z,imu1_gyro_x,imu1_gyro_y,imu1_gyro_z,imu1_mag_x,imu1_mag_y,imu1_mag_z,imu2_accel_x,imu2_accel_y,imu2_accel_z,imu2_gyro_x,imu2_gyro_y,imu2_gyro_z,imu2_mag_x,imu2_mag_y,imu2_mag_z,high_g_accel_x,high_g_accel_y,high_g_accel_z,baro1_temp,baro1_pres,baro2_temp,baro2_pres,gps_lat,gps_long,gps_alt,gps_fix_quality,gps_sats_tracked,gps_hdop,battery_voltage,pyro_cont,pyro_status,heading,vtg,pos_x,pos_y,pos_z,vel_x,vel_y,vel_z,acc_x,acc_y,acc_z,q_x,q_y,q_z,q_w,state,gps_lat_mod,gps_long_mod,imu1_accel_x_real,imu1_accel_y_real,imu1_accel_z_real,imu2_accel_x_real,imu2_accel_y_real,imu2_accel_z_real,imu1_gyro_x_real,imu1_gyro_y_real,imu1_gyro_z_real,imu2_gyro_x_real,imu2_gyro_y_real,imu2_gyro_z_real,imu1_mag_x_real,imu1_mag_y_real,imu1_mag_z_real,imu2_mag_x_real,imu2_mag_y_real,imu2_mag_z_real,imu_accel_x_avg,imu_accel_y_avg,imu_accel_z_avg,imu_gyro_x_avg,imu_gyro_y_avg,imu_gyro_z_avg,imu_mag_x_avg,imu_mag_y_avg,imu_mag_z_avg,high_g_accel_x_real,high_g_accel_y_real,high_g_accel_z_real,baro_pres_avg,baro_temp_avg
5609,0,603850,-1386,96,-15,72,-18,87,-707,-541,-1814,-1386,96,-15,72,-18,87,-707,-541,-1814,-16,224,768,17.4,1.0005230693313596,16.49,0.999753269183321,4449.498046875,-7309.82568359375,33.599998474121094,1,12,0.6800000071525574,12.213749885559082,3,0,0.0,0.0,0.0,0.0,-0.0807217635855828,0.0,0.0,0.0827507783336382,-0.1076770169999999,0.6891329088,9.9493563708,0.5525011420249939,-0.4467173516750335,0.5182210803031921,0.4760599732398987,6,44.82496744791667,-73.16376139322917,-9.9493563708,0.6891329088,-0.107677017,-9.9493563708,0.6891329088,-0.107677017,0.021991148496,-0.005497787124,0.026572637766,0.021991148496,-0.005497787124,0.026572637766,-0.41006,-0.31378,-1.05212,-0.41006,-0.31378,-1.05212,-9.9493563708,0.6891329088,-0.107677017,0.021991148496,-0.005497787124,0.026572637766,-0.41006,-0.31378,-1.05212,-0.47072,6.59008,22.59456,1.0001381692573403,16.945
5610,0,603955,-1380,71,-26,71,-15,111,-705,-558,-1790,-1380,71,-26,71,-15,111,-705,-558,-1790,-32,224,784,17.4,1.000621761658031,16.5,0.9997137922526524,4449.498046875,-7309.82568359375,33.599998474121094,1,12,0.6800000071525574,12.213749885559082,3,0,0.0,0.0,0.0,0.0,-0.1291827891401606,0.0,0.0,0.0357907145574667,-0.1866401627999999,0.5096712137999999,9.906285564,0.5525432825088501,-0.446800023317337,0.5183703303337097,0.4757707118988037,6,44.82496744791667,-73.16376139322917,-9.906285564000001,0.5096712138,-0.1866401628,-9.906285564000001,0.5096712138,-0.1866401628,0.021685715878,-0.00458148927,0.033903020597999996,0.021685715878,-0.00458148927,0.033903020597999996,-0.4089,-0.32364,-1.0382,-0.4089,-0.32364,-1.0382,-9.906285564000001,0.5096712138,-0.1866401628,0.021685715878,-0.00458148927,0.033903020597999996,-0.4089,-0.32364,-1.0382,-0.94144,6.59008,23.06528,1.0001677769553416,16.95
5611,0,604063,-1391,74,-17,94,-6,84,-705,-558,-1790,-1391,74,-17,94,-6,84,-705,-558,-1790,0,256,720,17.41,1.0006316308906982,16.5,0.9997137922526524,4449.498046875,-7309.82568359375,33.599998474121094,1,12,0.6800000071525574,12.203749656677246,3,0,0.0,0.0,0.0,0.0,-0.1591214363290246,0.0,0.0,0.0123875838155063,-0.1220339526,0.5312066172,9.9852487098,0.5524619817733765,-0.446718156337738,0.5185835361480713,0.4757096469402313,6,44.82496744791667,-73.16376139322917,-9.9852487098,0.5312066172000001,-0.12203395260000001,-9.9852487098,0.5312066172000001,-0.12203395260000001,0.028710666091999997,-0.001832595708,0.025656339912,0.028710666091999997,-0.001832595708,0.025656339912,-0.4089,-0.32364,-1.0382,-0.4089,-0.32364,-1.0382,-9.9852487098,0.5312066172000001,-0.12203395260000001,0.028710666091999997,-0.001832595708,0.025656339912,-0.4089,-0.32364,-1.0382,0.0,7.53152,21.1824,1.0001727115716754,16.955
5612,0,604170,-1394,78,-11,100,-20,80,-699,-572,-1795,-1394,78,-11,100,-20,80,-699,-572,-1795,-32,224,688,17.4,1.0006020231926969,16.5,0.9997137922526524,4449.498046875,-7309.82568359375,33.599998474121094,1,12,0.6800000071525574,12.21875,3,0,0.0,0.0,0.0,0.0,-0.193560929448871,0.0,0.0,-0.0099663359071427,-0.0789631458,0.5599204884,10.006784113199998,0.5524086356163025,-0.44664466381073,0.518669843673706,0.4757467210292816,6,44.82496744791667,-73.16376139322917,-10.0067841132,0.5599204884,-0.07896314580000001,-10.0067841132,0.5599204884,-0.07896314580000001,0.0305432618,-0.0061086523599999994,0.024434609439999998,0.0305432618,-0.0061086523599999994,0.024434609439999998,-0.40542,-0.33176,-1.0411,-0.40542,-0.33176,-1.0411,-10.0067841132,0.5599204884,-0.07896314580000001,0.0305432618,-0.0061086523599999994,0.024434609439999998,-0.40542,-0.33176,-1.0411,-0.94144,6.59008,20.24096,1.0001579077226745,16.95
5613,0,604276,-1385,79,-4,98,-21,69,-699,-572,-1795,-1385,79,-4,98,-21,69,-699,-572,-1795,-80,256,720,17.41,1.0006316308906982,16.5,0.9997137922526524,4449.498046875,-7309.82568359375,33.599998474121094,1,12,0.6800000071525574,12.19499969482422,3,0,0.0,0.0,0.0,0.0,-0.2308465573582046,0.0,0.0,-0.0334355178884341,-0.0287138711999999,0.5670989562,9.942177903,0.5524246692657471,-0.4466247856616974,0.5185094475746155,0.4759214520454407,6,44.82496744791667,-73.16376139322917,-9.942177903000001,0.5670989562000001,-0.0287138712,-9.942177903000001,0.5670989562000001,-0.0287138712,0.029932396564,-0.006414084978,0.021074850641999997,0.029932396564,-0.006414084978,0.021074850641999997,-0.40542,-0.33176,-1.0411,-0.40542,-0.33176,-1.0411,-9.942177903000001,0.5670989562000001,-0.0287138712,0.029932396564,-0.006414084978,0.021074850641999997,-0.40542,-0.33176,-1.0411,-2.3536,7.53152,21.1824,1.0001727115716754,16.955
5614,0,604381,-1385,80,-12,110,-41,86,-693,-585,-1790,-1385,80,-12,110,-41,86,-693,-585,-1790,-32,208,720,17.4,1.0006711078213668,16.5,0.9998618307426598,4449.498046875,-7309.82568359375,33.599998474121094,1,12,0.6800000071525574,12.21500015258789,3,0,0.0,0.0,0.0,0.0,-0.2610635732882164,0.0,0.0,-0.0494715816522766,-0.0861416136,0.5742774239999999,9.942177903,0.5525326132774353,-0.4467319846153259,0.51823490858078,0.475994735956192,6,44.82496744791667,-73.16376139322917,-9.942177903000001,0.574277424,-0.0861416136,-9.942177903000001,0.574277424,-0.0861416136,0.033597587979999996,-0.012522737337999999,0.026267205148,0.033597587979999996,-0.012522737337999999,0.026267205148,-0.40194,-0.3393,-1.0382,-0.40194,-0.3393,-1.0382,-9.942177903000001,0.574277424,-0.0861416136,0.033597587979999996,-0.012522737337999999,0.026267205148,-0.40194,-0.3393,-1.0382,-0.94144,6.11936,21.1824,1.0002664692820133,16.95
5615,0,604487,-1388,92,-17,104,-31,81,-693,-585,-1790,-1388,92,-17,104,-31,81,-693,-585,-1790,-48,304,848,17.41,1.000680977054034,16.5,0.9996841845546508,4449.498046875,-7309.82568359375,33.599998474121094,1,12,0.6800000071525574,12.213749885559082,3,0,0.0,0.0,0.0,0.0,-0.2928967347912329,0.0,0.0,-0.0647706006129234,-0.1220339526,0.6604190376,9.9637133064,0.5526312589645386,-0.4469296932220459,0.5179196000099182,0.4760377407073974,6,44.82496744791667,-73.16376139322917,-9.9637133064,0.6604190376,-0.12203395260000001,-9.9637133064,0.6604190376,-0.12203395260000001,0.031764992272,-0.009468411158,0.024740042057999997,0.031764992272,-0.009468411158,0.024740042057999997,-0.40194,-0.3393,-1.0382,-0.40194,-0.3393,-1.0382,-9.9637133064,0.6604190376,-0.12203395260000001,0.031764992272,-0.009468411158,0.024740042057999997,-0.40194,-0.3393,-1.0382,-1.41216,8.94368,24.94816,1.0001825808043423,16.955
5616,0,604592,-1386,79,-26,96,-46,94,-737,-582,-1822,-1386,79,-26,96,-46,94,-737,-582,-1822,-32,192,816,17.41,1.0005329385640267,16.5,0.9996841845546508,4449.498046875,-7309.82568359375,33.599998474121094,1,12,0.6800000071525574,12.21500015258789,3,0,0.0,0.0,0.0,0.0,-0.280105493964693,0.0,0.0,-0.0311817402693313,-0.1866401627999999,0.5670989562,9.9493563708,0.5527447462081909,-0.4471204578876495,0.5177610516548157,0.4758992791175842,6,44.82496744791667,-73.16376139322917,-9.9493563708,0.5670989562000001,-0.1866401628,-9.9493563708,0.5670989562000001,-0.1866401628,0.029321531328,-0.014049900427999999,0.028710666091999997,0.029321531328,-0.014049900427999999,0.028710666091999997,-0.42746,-0.33756,-1.05676,-0.42746,-0.33756,-1.05676,-9.9493563708,0.5670989562000001,-0.1866401628,0.029321531328,-0.014049900427999999,0.028710666091999997,-0.42746,-0.33756,-1.05676,-0.94144,5.64864,24.00672,1.0001085615593388,16.955
5617,0,604698,-1383,79,-19,86,-11,81,-737,-582,-1822,-1383,79,-19,86,-11,81,-737,-582,-1822,-16,224,784,17.41,1.0006415001233655,16.5,0.9997236614853195,4449.498046875,-7309.82568359375,33.599998474121094,1,12,0.6800000071525574,12.2162504196167,3,0,0.0,0.0,0.0,0.0,-0.2634779300879883,0.0,0.0,0.0019993398353914,-0.1363908881999999,0.5670989562,9.9278209674,0.6024702191352844,-0.3848945796489715,0.5671520829200745,0.4089308679103851,6,44.82496744791667,-73.16376139322917,-9.9278209674,0.5670989562000001,-0.1363908882,-9.9278209674,0.5670989562000001,-0.1363908882,0.026267205148,-0.003359758798,0.024740042057999997,0.026267205148,-0.003359758798,0.024740042057999997,-0.42746,-0.33756,-1.05676,-0.42746,-0.33756,-1.05676,-9.9278209674,0.5670989562000001,-0.1363908882,0.026267205148,-0.003359758798,0.024740042057999997,-0.42746,-0.33756,-1.05676,-0.47072,6.59008,23.06528,1.0001825808043425,16.955
5618,0,604804,-1386,80,-12,82,-15,86,-726,-613,-1835,-1386,80,-12,82,-15,86,-726,-613,-1835,-32,304,720,17.41,1.0006316308906982,16.5,0.9998223538119912,4449.498046875,-7309.82568359375,33.5,1,12,0.6800000071525574,12.208749771118164,3,0,0.0,0.0,0.0,0.0,-0.248439342740244,0.0,0.0,0.0285308414041863,-0.0861416136,0.5742774239999999,9.9493563708,0.6024242639541626,-0.3849145472049713,0.56717449426651,0.4089484810829162,6,44.82496744791667,-73.16376139322917,-9.9493563708,0.574277424,-0.0861416136,-9.9493563708,0.574277424,-0.0861416136,0.025045474675999997,-0.00458148927,0.026267205148,0.025045474675999997,-0.00458148927,0.026267205148,-0.42108,-0.35554,-1.0643,-0.42108,-0.35554,-1.0643,-9.9493563708,0.574277424,-0.0861416136,0.025045474675999997,-0.00458148927,0.026267205148,-0.42108,-0.35554,-1.0643,-0.94144,8.94368,21.1824,1.0002269923513447,16.955
5619,0,604913,-1386,83,-3,112,-29,82,-726,-613,-1835,-1386,83,-3,112,-29,82,-726,-613,-1835,-64,224,864,17.41,1.0006316308906982,16.5,0.9996841845546508,4449.498046875,-7309.82568359375,33.5,1,12,0.6800000071525574,12.208749771118164,3,0,0.0,0.0,0.0,0.0,-0.2361429234056464,0.0,0.0,0.049457179884633,-0.0215354034,0.5958128274,9.9493563708,0.6023851037025452,-0.3848775327205658,0.5672188401222229,0.4089795053005218,6,44.82496744791667,-73.16376139322917,-9.9493563708,0.5958128274000001,-0.0215354034,-9.9493563708,0.5958128274000001,-0.0215354034,0.034208453215999995,-0.008857545922,0.025045474675999997,0.034208453215999995,-0.008857545922,0.025045474675999997,-0.42108,-0.35554,-1.0643,-0.42108,-0.35554,-1.0643,-9.9493563708,0.5958128274000001,-0.0215354034,0.034208453215999995,-0.008857545922,0.025045474675999997,-0.42108,-0.35554,-1.0643,-1.88288,6.59008,25.41888,1.0001579077226745,16.955
5620,0,605019,-1386,80,-1,90,-46,88,-697,-551,-1844,-1386,80,-1,90,-46,88,-697,-551,-1844,-32,272,768,17.41,1.0005428077966938,16.5,0.9997236614853195,4449.498046875,-7309.82568359375,33.5,1,12,0.6800000071525574,12.217499732971191,3,0,0.0,0.0,0.0,0.0,-0.2919930077684519,0.0,0.0,0.0009467300115373,-0.0071784677999999,0.5742774239999999,9.9493563708,0.6024200916290283,-0.3849728405475616,0.5671038031578064,0.4089979529380798,6,44.82496744791667,-73.16376139322917,-9.9493563708,0.574277424,-0.0071784678,-9.9493563708,0.574277424,-0.0071784678,0.02748893562,-0.014049900427999999,0.026878070384,0.02748893562,-0.014049900427999999,0.026878070384,-0.40426,-0.31958,-1.06952,-0.40426,-0.31958,-1.06952,-9.9493563708,0.574277424,-0.0071784678,0.02748893562,-0.014049900427999999,0.026878070384,-0.40426,-0.31958,-1.06952,-0.94144,8.00224,22.59456,1.0001332346410066,16.955
5621,0,605125,-1382,81,-15,110,-27,85,-697,-551,-1844,-1382,81,-15,110,-27,85,-697,-551,-1844,-16,256,768,17.42,1.0007007155193683,16.5,0.9997236614853195,4449.498046875,-7309.82568359375,33.5,1,12,0.6800000071525574,12.220000267028809,3,0,0.0,0.0,0.0,0.0,-0.3337003358253165,0.0,0.0,-0.0312222659539307,-0.1076770169999999,0.5814558917999999,9.9206424996,0.6024582386016846,-0.385193258523941,0.5668819546699524,0.4090417325496673,6,44.82496744791667,-73.16376139322917,-9.9206424996,0.5814558918,-0.107677017,-9.9206424996,0.5814558918,-0.107677017,0.033597587979999996,-0.008246680686,0.02596177253,0.033597587979999996,-0.008246680686,0.02596177253,-0.40426,-0.31958,-1.06952,-0.40426,-0.31958,-1.06952,-9.9206424996,0.5814558918,-0.107677017,0.033597587979999996,-0.008246680686,0.02596177253,-0.40426,-0.31958,-1.06952,-0.47072,7.53152,22.59456,1.0002121885023438,16.96
5622,0,605230,-1379,75,-12,90,-41,87,-725,-560,-1803,-1379,75,-12,90,-41,87,-725,-560,-1803,0,176,752,17.42,1.0005230693313596,16.5,0.9997828768813224,4449.498046875,-7309.82568359375,33.400001525878906,1,12,0.6800000071525574,12.203749656677246,3,0,0.0,0.0,0.0,0.0,-0.2848820770873768,0.0,0.0,0.0355483350036981,-0.0861416136,0.5383850849999999,9.8991070962,0.6025925874710083,-0.3854033052921295,0.5665990114212036,0.4090378284454345,6,44.82496744791667,-73.16376139322917,-9.8991070962,0.538385085,-0.0861416136,-9.8991070962,0.538385085,-0.0861416136,0.02748893562,-0.012522737337999999,0.026572637766,0.02748893562,-0.012522737337999999,0.026572637766,-0.4205,-0.3248,-1.0457400000000001,-0.4205,-0.3248,-1.0457400000000001,-9.8991070962,0.538385085,-0.0861416136,0.02748893562,-0.012522737337999999,0.026572637766,-0.4205,-0.3248,-1.0457400000000001,0.0,5.17792,22.12384,1.000152973106341,16.96
5623,0,605336,-1384,73,-15,121,-20,71,-725,-560,-1803,-1384,73,-15,121,-20,71,-725,-560,-1803,-32,256,800,17.42,1.0005132000986925,16.5,0.9996841845546508,4449.498046875,-7309.82568359375,33.400001525878906,1,12,0.6800000071525574,12.22624969482422,3,0,0.0,0.0,0.0,0.0,-0.1511952757469448,0.0,0.0,0.178497345814857,-0.1076770169999999,0.5240281494,9.9349994352,0.6026245951652527,-0.3855308294296264,0.5664005279541016,0.4091454446315765,6,44.82496744791667,-73.16376139322917,-9.9349994352,0.5240281494,-0.107677017,-9.9349994352,0.5240281494,-0.107677017,0.036957346778,-0.0061086523599999994,0.021685715878,0.036957346778,-0.0061086523599999994,0.021685715878,-0.4205,-0.3248,-1.0457400000000001,-0.4205,-0.3248,-1.0457400000000001,-9.9349994352,0.5240281494,-0.107677017,0.036957346778,-0.0061086523599999994,0.021685715878,-0.4205,-0.3248,-1.0457400000000001,-0.94144,7.53152,23.536,1.0000986923266717,16.96
5624,0,605441,-1381,85,-11,96,-25,81,-712,-570,-1803,-1381,85,-11,96,-25,81,-712,-570,-1803,-16,240,832,17.41,1.0005921539600295,16.51,0.9997039230199852,4449.498046875,-7309.82568359375,33.400001525878906,1,12,0.6800000071525574,12.210000038146973,3,0,0.0,0.0,0.0,0.0,-0.1470214803197159,0.0,0.0,0.1756595038752966,-0.0789631458,0.6101697629999999,9.913464031799998,0.6026155352592468,-0.3856391608715057,0.5661760568618774,0.4093672335147857,6,44.82496744791667,-73.16376139322917,-9.9134640318,0.610169763,-0.07896314580000001,-9.9134640318,0.610169763,-0.07896314580000001,0.029321531328,-0.00763581545,0.024740042057999997,0.029321531328,-0.00763581545,0.024740042057999997,-0.41296,-0.3306,-1.0457400000000001,-0.41296,-0.3306,-1.0457400000000001,-9.9134640318,0.610169763,-0.07896314580000001,0.029321531328,-0.00763581545,0.024740042057999997,-0.41296,-0.3306,-1.0457400000000001,-0.47072,7.0608,24.47744,1.0001480384900074,16.96
5625,0,605548,-1381,84,-12,89,-11,79,-712,-570,-1803,-1381,84,-12,89,-11,79,-712,-570,-1803,-80,240,752,17.42,1.0006020231926969,16.51,0.9997039230199852,4449.498046875,-7309.82568359375,33.29999923706055,1,12,0.6800000071525574,12.2162504196167,3,0,0.0,0.0,0.0,0.0,-0.1025346757904776,0.0,0.0,0.2117917804238951,-0.0861416136,0.6029912951999999,9.913464031799998,0.6026131510734558,-0.3855409324169159,0.5661401748657227,0.4095130562782287,6,44.82496744791667,-73.16376139322917,-9.9134640318,0.6029912952,-0.0861416136,-9.9134640318,0.6029912952,-0.0861416136,0.027183503002,-0.003359758798,0.024129176821999998,0.027183503002,-0.003359758798,0.024129176821999998,-0.41296,-0.3306,-1.0457400000000001,-0.41296,-0.3306,-1.0457400000000001,-9.9134640318,0.6029912952,-0.0861416136,0.027183503002,-0.003359758798,0.024129176821999998,-0.41296,-0.3306,-1.0457400000000001,-2.3536,7.0608,22.12384,1.000152973106341,16.965000000000003
5626,0,605653,-1382,84,-6,93,-43,87,-718,-581,-1797,-1382,84,-6,93,-43,87,-718,-581,-1797,-32,304,768,17.43,1.000621761658031,16.51,0.999565753762645,4449.498046875,-7309.82568359375,33.29999923706055,1,12,0.6800000071525574,12.21875,3,0,0.0,0.0,0.0,0.0,-0.0606660507796469,0.0,0.0,0.2471615719446423,-0.0430708068,0.6029912951999999,9.9206424996,0.6026028394699097,-0.3855611681938171,0.566071093082428,0.4096046090126037,6,44.82496744791667,-73.16376139322917,-9.9206424996,0.6029912952,-0.0430708068,-9.9206424996,0.6029912952,-0.0430708068,0.028405233473999997,-0.013133602574,0.026572637766,0.028405233473999997,-0.013133602574,0.026572637766,-0.41644,-0.33698,-1.04226,-0.41644,-0.33698,-1.04226,-9.9206424996,0.6029912952,-0.0430708068,0.028405233473999997,-0.013133602574,0.026572637766,-0.41644,-0.33698,-1.04226,-0.94144,8.94368,22.59456,1.0000937577103381,16.97
5627,0,605762,-1384,84,-7,88,-17,87,-718,-581,-1797,-1384,84,-7,88,-17,87,-718,-581,-1797,-16,240,832,17.43,1.000572415494695,16.51,0.9997039230199852,4449.498046875,-7309.82568359375,33.29999923706055,1,12,0.6800000071525574,12.22249984741211,3,0,0.0,0.0,0.0,0.0,-0.0530179459791469,0.0,0.0,0.2397528633679919,-0.0502492746,0.6029912951999999,9.9349994352,0.5330270528793335,-0.467021495103836,0.5015299320220947,0.4962265193462372,6,44.82496744791667,-73.16376139322917,-9.9349994352,0.6029912952,-0.050249274600000005,-9.9349994352,0.6029912952,-0.050249274600000005,0.026878070384,-0.005192354505999999,0.026572637766,0.026878070384,-0.005192354505999999,0.026572637766,-0.41644,-0.33698,-1.04226,-0.41644,-0.33698,-1.04226,-9.9349994352,0.6029912952,-0.050249274600000005,0.026878070384,-0.005192354505999999,0.026572637766,-0.41644,-0.33698,-1.04226,-0.47072,7.0608,24.47744,1.0001381692573401,16.97
5628,0,605868,-1384,74,-15,114,-49,94,-717,-579,-1798,-1384,74,-15,114,-49,94,-717,-579,-1798,-16,256,736,17.43,1.000572415494695,16.51,0.9997039230199852,4449.498046875,-7309.82568359375,33.20000076293945,1,12,0.6800000071525574,12.204999923706056,3,0,0.0,0.0,0.0,0.0,-0.0702402706709568,0.0,0.0,0.2089929781949451,-0.1076770169999999,0.5312066172,9.9349994352,0.5330934524536133,-0.4672475755214691,0.5014289617538452,0.4960445165634155,6,44.82496744791667,-73.16376139322917,-9.9349994352,0.5312066172000001,-0.107677017,-9.9349994352,0.5312066172000001,-0.107677017,0.034819318451999995,-0.014966198282,0.028710666091999997,0.034819318451999995,-0.014966198282,0.028710666091999997,-0.41586,-0.33582,-1.04284,-0.41586,-0.33582,-1.04284,-9.9349994352,0.5312066172000001,-0.107677017,0.034819318451999995,-0.014966198282,0.028710666091999997,-0.41586,-0.33582,-1.04284,-0.47072,7.53152,21.65312,1.0001381692573401,16.97
5629,0,605974,-1382,71,-23,97,-36,85,-717,-579,-1798,-1382,71,-23,97,-36,85,-717,-579,-1798,-16,224,688,17.42,1.0005625462620282,16.51,0.9997039230199852,4449.498046875,-7309.82568359375,33.20000076293945,1,12,0.6800000071525574,12.213749885559082,3,0,0.0,0.0,0.0,0.0,-0.0675660429937182,0.0,0.0,0.199217889182729,-0.1651047594,0.5096712137999999,9.9206424996,0.5331422090530396,-0.467317521572113,0.5014423131942749,0.4959125518798828,6,44.82496744791667,-73.16376139322917,-9.9206424996,0.5096712138,-0.1651047594,-9.9206424996,0.5096712138,-0.1651047594,0.029626963946,-0.010995574248,0.02596177253,0.029626963946,-0.010995574248,0.02596177253,-0.41586,-0.33582,-1.04284,-0.41586,-0.33582,-1.04284,-9.9206424996,0.5096712138,-0.1651047594,0.029626963946,-0.010995574248,0.02596177253,-0.41586,-0.33582,-1.04284,-0.47072,6.59008,20.24096,1.0001332346410068,16.965000000000003
5630,0,606079,-1344,61,3,99,-27,83,-703,-587,-1826,-1344,61,3,99,-27,83,-703,-587,-1826,-32,272,736,17.43,1.000621761658031,16.52,0.9997236614853195,4449.498046875,-7309.82568359375,33.20000076293945,1,12,0.6800000071525574,12.21875,3,0,0.0,0.0,0.0,0.0,-0.0771954895400882,0.0,0.0,0.1798411507551191,0.0215354034,0.4378865358,9.6478607232,0.5330995321273804,-0.4673818051815033,0.5013457536697388,0.4959956109523773,6,44.82496744791667,-73.16376139322917,-9.6478607232,0.43788653580000003,0.0215354034,-9.6478607232,0.43788653580000003,0.0215354034,0.030237829182,-0.008246680686,0.025350907293999997,0.030237829182,-0.008246680686,0.025350907293999997,-0.40774,-0.34046,-1.05908,-0.40774,-0.34046,-1.05908,-9.6478607232,0.43788653580000003,0.0215354034,0.030237829182,-0.008246680686,0.025350907293999997,-0.40774,-0.34046,-1.05908,-0.94144,8.00224,21.65312,1.0001727115716754,16.975
5631,0,606185,-1381,87,60,94,-12,80,-734,-574,-1809,-1381,87,60,94,-12,80,-734,-574,-1809,-96,240,752,17.43,1.000621761658031,16.51,0.9996644460893166,4449.498046875,-7309.82568359375,33.20000076293945,1,12,0.6800000071525574,12.2162504196167,3,0,0.0,0.0,0.0,0.0,-0.1226167211505113,0.0,0.0,0.1380456308367219,0.4307080679999999,0.6245266986,9.913464031799998,0.532991886138916,-0.4673080444335937,0.5013865232467651,0.4961395859718323,6,44.82496744791667,-73.16376139322917,-9.9134640318,0.6245266986,0.430708068,-9.9134640318,0.6245266986,0.430708068,0.028710666091999997,-0.003665191416,0.024434609439999998,0.028710666091999997,-0.003665191416,0.024434609439999998,-0.42572,-0.33292,-1.04922,-0.42572,-0.33292,-1.04922,-9.9134640318,0.6245266986,0.430708068,0.028710666091999997,-0.003665191416,0.024434609439999998,-0.42572,-0.33292,-1.04922,-2.82432,7.0608,22.12384,1.0001431038736739,16.97
5632,0,606290,-1396,95,8,115,-34,83,-734,-574,-1809,-1396,95,8,115,-34,83,-734,-574,-1809,-48,208,752,17.42,1.0006612385886997,16.51,0.999753269183321,4449.498046875,-7309.82568359375,33.20000076293945,1,12,0.6800000071525574,12.223750114440918,3,0,0.0,0.0,0.0,0.0,-0.1665364938339821,0.0,0.0,0.0906399906327686,0.0574277423999999,0.6819544409999999,10.0211410488,0.5329306125640869,-0.467320054769516,0.5013664960861206,0.4962143301963806,6,44.82496744791667,-73.16376139322917,-10.0211410488,0.681954441,0.0574277424,-10.0211410488,0.681954441,0.0574277424,0.035124751069999995,-0.010384709011999999,0.025350907293999997,0.035124751069999995,-0.010384709011999999,0.025350907293999997,-0.42572,-0.33292,-1.04922,-0.42572,-0.33292,-1.04922,-10.0211410488,0.681954441,0.0574277424,0.035124751069999995,-0.010384709011999999,0.025350907293999997,-0.42572,-0.33292,-1.04922,-1.41216,6.11936,22.12384,1.0002072538860103,16.965000000000003
5633,0,606396,-1381,78,-25,76,-33,90,-725,-569,-1837,-1381,78,-25,76,-33,90,-725,-569,-1837,-64,240,768,17.42,1.0005625462620282,16.52,0.9997631384159882,4449.498046875,-7309.82568359375,33.20000076293945,1,12,0.6800000071525574,12.2212495803833,3,0,0.0,0.0,0.0,0.0,-0.1670856796913074,0.0,0.0,0.0920318548945685,-0.1794616949999999,0.5599204884,9.913464031799998,0.5329895615577698,-0.4673727750778198,0.5013952255249023,0.4960722029209137,6,44.82496744791667,-73.16376139322917,-9.9134640318,0.5599204884,-0.179461695,-9.9134640318,0.5599204884,-0.179461695,0.023212878968,-0.010079276394,0.02748893562,0.023212878968,-0.010079276394,0.02748893562,-0.4205,-0.33002,-1.06546,-0.4205,-0.33002,-1.06546,-9.9134640318,0.5599204884,-0.179461695,0.023212878968,-0.010079276394,0.02748893562,-0.4205,-0.33002,-1.06546,-1.88288,7.0608,22.59456,1.0001628423390083,16.97
5634,0,606501,-1382,68,-16,121,-39,90,-725,-569,-1837,-1382,68,-16,121,-39,90,-725,-569,-1837,0,240,800,17.43,1.0006711078213668,16.52,0.9996841845546508,4449.498046875,-7309.82568359375,33.20000076293945,1,12,0.6800000071525574,12.208749771118164,3,0,0.0,0.0,0.0,0.0,-0.1680810678628149,0.0,0.0,0.0927962496131609,-0.1148554847999999,0.4881358104,9.9206424996,0.5330117344856262,-0.4675415158271789,0.5013035535812378,0.4959820806980133,6,44.82496744791667,-73.16376139322917,-9.9206424996,0.48813581040000004,-0.1148554848,-9.9206424996,0.48813581040000004,-0.1148554848,0.036957346778,-0.011911872102,0.02748893562,0.036957346778,-0.011911872102,0.02748893562,-0.4205,-0.33002,-1.06546,-0.4205,-0.33002,-1.06546,-9.9206424996,0.48813581040000004,-0.1148554848,0.036957346778,-0.011911872102,0.02748893562,-0.4205,-0.33002,-1.06546,0.0,7.0608,23.536,1.0001776461880088,16.975
5635,0,606610,-1382,78,-17,113,-31,82,-706,-563,-1791,-1382,78,-17,113,-31,82,-706,-563,-1791,-16,256,704,17.43,1.000493461633358,16.52,0.9996743153219836,4449.498046875,-7309.82568359375,33.20000076293945,1,12,0.6800000071525574,12.220000267028809,3,0,0.0,0.0,0.0,0.0,-0.1503746435475084,0.0,0.0,0.1137527049381693,-0.1220339526,0.5599204884,9.9206424996,0.5330312252044678,-0.4676637649536133,0.5011476874351501,0.4960034191608429,6,44.82496744791667,-73.16376139322917,-9.9206424996,0.5599204884,-0.12203395260000001,-9.9206424996,0.5599204884,-0.12203395260000001,0.034513885833999995,-0.009468411158,0.025045474675999997,0.034513885833999995,-0.009468411158,0.025045474675999997,-0.40948,-0.32654,-1.03878,-0.40948,-0.32654,-1.03878,-9.9206424996,0.5599204884,-0.12203395260000001,0.034513885833999995,-0.009468411158,0.025045474675999997,-0.40948,-0.32654,-1.03878,-0.47072,7.53152,20.71168,1.0000838884776708,16.975
5636,0,606716,-1383,77,-12,90,-21,69,-706,-563,-1791,-1383,77,-12,90,-21,69,-706,-563,-1791,-64,272,832,17.43,1.0006908462867012,16.52,0.9997335307179868,4449.498046875,-7309.82568359375,33.20000076293945,1,12,0.6800000071525574,12.197500228881836,3,0,0.0,0.0,0.0,0.0,-0.1794855964482778,0.0,0.0,0.084462397432498,-0.0861416136,0.5527420206,9.9278209674,0.5363981127738953,-0.4634504616260528,0.5068956017494202,0.4904565215110779,6,44.82496744791667,-73.16376139322917,-9.9278209674,0.5527420206,-0.0861416136,-9.9278209674,0.5527420206,-0.0861416136,0.02748893562,-0.006414084978,0.021074850641999997,0.02748893562,-0.006414084978,0.021074850641999997,-0.40948,-0.32654,-1.03878,-0.40948,-0.32654,-1.03878,-9.9278209674,0.5527420206,-0.0861416136,0.02748893562,-0.006414084978,0.021074850641999997,-0.40948,-0.32654,-1.03878,-1.88288,8.00224,24.47744,1.000212188502344,16.975
5637,0,606823,-1377,90,-9,109,-16,75,-725,-575,-1849,-1377,90,-9,109,-16,75,-725,-575,-1849,-32,224,784,17.43,1.000740192450037,16.52,0.9997236614853195,4449.498046875,-7309.82568359375,33.20000076293945,1,12,0.6800000071525574,12.2162504196167,3,0,0.0,0.0,0.0,0.0,-0.2151123241215032,0.0,0.0,0.0465364946038273,-0.0646062102,0.6460621019999999,9.8847501606,0.5363683700561523,-0.4635497629642486,0.5066255331039429,0.4906742870807647,6,44.82496744791667,-73.16376139322917,-9.884750160600001,0.646062102,-0.0646062102,-9.884750160600001,0.646062102,-0.0646062102,0.033292155361999996,-0.004886921888,0.02290744635,0.033292155361999996,-0.004886921888,0.02290744635,-0.4205,-0.3335,-1.07242,-0.4205,-0.3335,-1.07242,-9.884750160600001,0.646062102,-0.0646062102,0.033292155361999996,-0.004886921888,0.02290744635,-0.4205,-0.3335,-1.07242,-0.94144,6.59008,23.06528,1.0002319269676783,16.975
5638,0,606928,-1384,86,-8,108,-41,89,-725,-575,-1849,-1384,86,-8,108,-41,89,-725,-575,-1849,0,240,800,17.43,1.0006316308906982,16.52,0.9997730076486552,4449.498046875,-7309.82568359375,33.20000076293945,1,12,0.6800000071525574,12.203749656677246,3,0,0.0,0.0,0.0,0.0,-0.2572942057443549,0.0,0.0,0.0086288529678021,-0.0574277423999999,0.6173482307999999,9.9349994352,0.5364049077033997,-0.4635364115238189,0.5065844058990479,0.4906895160675049,6,44.82496744791667,-73.16376139322917,-9.9349994352,0.6173482308,-0.0574277424,-9.9349994352,0.6173482308,-0.0574277424,0.032986722744,-0.012522737337999999,0.027183503002,0.032986722744,-0.012522737337999999,0.027183503002,-0.4205,-0.3335,-1.07242,-0.4205,-0.3335,-1.07242,-9.9349994352,0.6173482308,-0.0574277424,0.032986722744,-0.012522737337999999,0.027183503002,-0.4205,-0.3335,-1.07242,0.0,7.0608,23.536,1.0002023192696767,16.975
5639,0,607035,-1386,83,-2,73,-22,92,-715,-581,-1812,-1386,83,-2,73,-22,92,-715,-581,-1812,-16,272,736,17.43,1.0006316308906982,16.52,0.9997236614853195,4449.498046875,-7309.82568359375,33.20000076293945,1,12,0.6800000071525574,12.212499618530272,3,0,0.0,0.0,0.0,0.0,-0.2395026809861076,0.0,0.0,0.0375778129097465,-0.0143569355999999,0.5958128274,9.9493563708,0.5363273620605469,-0.4636380076408386,0.5065897107124329,0.4906726777553558,6,44.82496744791667,-73.16376139322917,-9.9493563708,0.5958128274000001,-0.0143569356,-9.9493563708,0.5958128274000001,-0.0143569356,0.022296581114,-0.006719517596,0.028099800855999998,0.022296581114,-0.006719517596,0.028099800855999998,-0.4147,-0.33698,-1.0509600000000001,-0.4147,-0.33698,-1.0509600000000001,-9.9493563708,0.5958128274000001,-0.0143569356,0.022296581114,-0.006719517596,0.028099800855999998,-0.4147,-0.33698,-1.0509600000000001,-0.47072,8.00224,21.65312,1.0001776461880088,16.975
5640,0,607140,-1391,75,-19,96,-34,97,-715,-581,-1812,-1387,81,-14,96,-34,91,-715,-581,-1812,16,176,784,17.43,1.0006020231926969,16.52,0.9997236614853195,4449.498046875,-7309.82568359375,33.20000076293945,1,12,0.699999988079071,12.22249984741211,3,0,0.0,0.0,0.0,0.0,-0.2401392054375453,0.0,0.0,0.0457003346176919,-0.1184447186999999,0.5599204884,9.970891774199998,0.5363144874572754,-0.4637616276741028,0.5065739750862122,0.4905862212181091,6,44.82496744791667,-73.16376139322917,-9.9852487098,0.538385085,-0.1363908882,-9.9565348386,0.5814558918,-0.10049854920000001,0.029321531328,-0.010384709011999999,0.029626963946,0.029321531328,-0.010384709011999999,0.027794368237999998,-0.4147,-0.33698,-1.0509600000000001,-0.4147,-0.33698,-1.0509600000000001,-9.9708917742,0.5599204884,-0.1184447187,0.029321531328,-0.010384709011999999,0.028710666092,-0.4147,-0.33698,-1.0509600000000001,0.47072,5.17792,23.06528,1.0001628423390083,16.975
5641,0,607247,-14891,-683,307,113,59,43,-682,-651,-1850,-14891,-683,307,113,59,43,-682,-651,-1850,496,3296,-944,17.43,1.000315815445349,16.52,0.9998322230446582,4449.498046875,-7309.82568359375,33.20000076293945,1,12,0.699999988079071,12.212499618530272,3,0,0.0,0.0,0.0,0.0,-0.0663291931135971,0.0,0.0,7.176338960468827,2.2037896146,-4.9028935074,106.8945640098,0.5399125218391418,-0.4570951759815216,0.5122014284133911,0.487040251493454,6,44.82496744791667,-73.16376139322917,-106.8945640098,-4.9028935074,2.2037896146000002,-106.8945640098,-4.9028935074,2.2037896146000002,0.034513885833999995,0.018020524462,0.013133602574,0.034513885833999995,0.018020524462,0.013133602574,-0.39556,-0.37758,-1.073,-0.39556,-0.37758,-1.073,-106.8945640098,-4.9028935074,2.2037896146000002,0.034513885833999995,0.018020524462,0.013133602574,-0.39556,-0.37758,-1.073,14.59232,96.96832,-27.77248,1.0000740192450037,16.975
5642,0,607247,-14891,-683,307,113,59,43,-682,-651,-1850,-14891,-683,307,113,59,43,-682,-651,-1850,496,3296,-944,17.43,1.000315815445349,16.52,0.9998322230446582,4449.498046875,-7309.82568359375,33.20000076293945,1,12,0.699999988079071,12.212499618530272,3,0,0.0,0.0,0.0,0.0,-0.0663291931135971,0.0,0.0,7.176338960468827,2.2037896146,-4.9028935074,106.8945640098,0.5399125218391418,-0.4570951759815216,0.5122014284133911,0.487040251493454,6,44.82496744791667,-73.16376139322917,-106.8945640098,-4.9028935074,2.2037896146000002,-106.8945640098,-4.9028935074,2.2037896146000002,0.034513885833999995,0.018020524462,0.013133602574,0.034513885833999995,0.018020524462,0.013133602574,-0.39556,-0.37758,-1.073,-0.39556,-0.37758,-1.073,-106.8945640098,-4.9028935074,2.2037896146000002,0.034513885833999995,0.018020524462,0.013133602574,-0.39556,-0.37758,-1.073,14.59232,96.96832,-27.77248,1.0000740192450037,16.975
5643,0,607267,-13471,8052,11420,2672,-1249,385,-682,-651,-1850,-13471,8052,11420,2672,-1249,385,-682,-651,-1850,480,3376,912,17.43,1.0004539847026894,16.52,0.9997236614853195,4449.498046875,-7309.82568359375,33.20000076293945,1,12,0.699999988079071,12.210000038146973,3,0,0.0,0.0,0.0,0.0,0.0510372651097225,0.0,0.0,8.6431235062314,81.97810227599999,57.80102272559999,96.7011397338,0.5381448268890381,-0.4618495404720306,0.508309006690979,0.4885869026184082,6,44.82496744791667,-73.16376139322917,-96.7011397338,57.8010227256,81.978102276,-96.7011397338,57.8010227256,81.978102276,0.816115955296,-0.38148533988199995,0.11759155792999999,0.816115955296,-0.38148533988199995,0.11759155792999999,-0.39556,-0.37758,-1.073,-0.39556,-0.37758,-1.073,-96.7011397338,57.8010227256,81.978102276,0.816115955296,-0.38148533988199995,0.11759155792999999,-0.39556,-0.37758,-1.073,14.1216,99.32192,26.83104,1.0000888230940044,16.975
5644,0,607281,-15949,627,787,-1807,213,435,-682,-651,-1850,-15949,627,787,-1807,213,435,-682,-651,-1850,-1728,3424,3200,17.43,1.000434246237355,16.52,0.9993486306439674,4449.498046875,-7309.82568359375,33.20000076293945,1,12,0.699999988079071,12.197500228881836,3,0,0.0,0.0,0.0,0.0,0.2396212613710004,0.0,0.0,10.01024579368156,5.649454158599999,4.5008993106,114.4893829422,0.5396178364753723,-0.4597994089126587,0.510997474193573,0.4860852658748626,6,44.82496744791667,-73.16376139322917,-114.48938294220001,4.5008993106,5.6494541586,-114.48938294220001,4.5008993106,5.6494541586,-0.5519167407259999,0.065057147634,0.13286318882999998,-0.5519167407259999,0.065057147634,0.13286318882999998,-0.39556,-0.37758,-1.073,-0.39556,-0.37758,-1.073,-114.48938294220001,4.5008993106,5.6494541586,-0.5519167407259999,0.065057147634,0.13286318882999998,-0.39556,-0.37758,-1.073,-50.83776,100.73408,94.144,0.9998914384406612,16.975
5645,0,607296,-14005,-1158,-2770,579,81,167,-682,-651,-1850,-14005,-1158,-2770,579,81,167,-682,-651,-1850,1056,2976,-1376,17.43,1.0003454231433506,16.52,0.9996348383913152,4449.498046875,-7309.82568359375,33.20000076293945,1,12,0.699999988079071,12.220000267028809,3,0,0.0,0.0,0.0,0.0,0.4146051494500254,0.0,0.0,11.60729658108932,-19.884355806,-8.3126657124,100.534441539,0.5388650894165039,-0.4603529572486877,0.5107057094573975,0.486702412366867,6,44.82496744791667,-73.16376139322917,-100.534441539,-8.312665712400001,-19.884355806000002,-100.534441539,-8.312665712400001,-19.884355806000002,0.176845485822,0.024740042057999997,0.051007247206,0.176845485822,0.024740042057999997,0.051007247206,-0.39556,-0.37758,-1.073,-0.39556,-0.37758,-1.073,-100.534441539,-8.312665712400001,-19.884355806000002,0.176845485822,0.024740042057999997,0.051007247206,-0.39556,-0.37758,-1.073,31.067520000000002,87.55392,-40.48192,0.9999901307673329,16.975
5646,0,607311,-14139,678,794,-744,372,-19,-682,-651,-1850,-14139,678,794,-744,372,-19,-682,-651,-1850,736,3344,320,17.43,1.0001677769553416,16.52,0.9996447076239824,4449.498046875,-7309.82568359375,33.20000076293945,1,12,0.699999988079071,12.2212495803833,3,0,0.0,0.0,0.0,0.0,0.6297023650012299,0.0,0.0,13.012501676634292,5.6997034332,4.8670011684,101.4963562242,0.5394416451454163,-0.4588033854961395,0.5119594931602478,0.4862095713615417,6,44.82496744791667,-73.16376139322917,-101.4963562242,4.8670011684,5.6997034332,-101.4963562242,4.8670011684,5.6997034332,-0.22724186779199998,0.11362093389599999,-0.005803219742,-0.22724186779199998,0.11362093389599999,-0.005803219742,-0.39556,-0.37758,-1.073,-0.39556,-0.37758,-1.073,-101.4963562242,4.8670011684,5.6997034332,-0.22724186779199998,0.11362093389599999,-0.005803219742,-0.39556,-0.37758,-1.073,21.65312,98.38048,9.4144,0.9999062422896621,16.975
5647,0,607218,-13454,-3746,-4577,-245,-877,275,-682,-651,-1850,-13454,-3746,-4577,-245,-877,275,-682,-651,-1850,-352,3296,256,17.43,1.0001480384900074,16.52,0.9995953614606464,4449.498046875,-7309.82568359375,33.20000076293945,1,12,0.699999988079071,12.21125030517578,3,0,0.0,0.0,0.0,0.0,-0.2788334909963875,0.0,0.0,4.385582423478348,-32.8558471206,-26.8905403788,96.5791057812,0.5375874638557434,-0.4632421135902405,0.5066956877708435,0.4895569384098053,6,44.82496744791667,-73.16376139322917,-96.5791057812,-26.8905403788,-32.855847120600004,-96.5791057812,-26.8905403788,-32.855847120600004,-0.07483099140999999,-0.267864405986,0.08399396995,-0.07483099140999999,-0.267864405986,0.08399396995,-0.39556,-0.37758,-1.073,-0.39556,-0.37758,-1.073,-96.5791057812,-26.8905403788,-32.855847120600004,-0.07483099140999999,-0.267864405986,0.08399396995,-0.39556,-0.37758,-1.073,-10.35584,96.96832,7.53152,0.999871699975327,16.975
5648,0,607232,-14587,-2384,-6500,-3490,1474,-53,-682,-651,-1850,-14587,-2384,-6500,-3490,1474,-53,-682,-651,-1850,-480,2992,2832,17.43,1.000740192450037,16.52,0.999259807549963,4449.498046875,-7309.82568359375,33.20000076293945,1,12,0.699999988079071,12.199999809265137,3,0,0.0,0.0,0.0,0.0,-0.1703792570606444,0.0,0.0,5.733277774824457,-46.6600407,-17.113467235199998,104.7123097986,0.5399901270866394,-0.457215666770935,0.5121670961380005,0.4868771433830261,6,44.82496744791667,-73.16376139322917,-104.7123097986,-17.1134672352,-46.6600407,-104.7123097986,-17.1134672352,-46.6600407,-1.0659598368199998,0.450207678932,-0.016187928754,-1.0659598368199998,0.450207678932,-0.016187928754,-0.39556,-0.37758,-1.073,-0.39556,-0.37758,-1.073,-104.7123097986,-17.1134672352,-46.6600407,-1.0659598368199998,0.450207678932,-0.016187928754,-0.39556,-0.37758,-1.073,-14.1216,88.02464,83.31744,1.0,16.975
5649,0,607348,-14519,97,37,1320,41,-192,-682,-651,-1850,-14519,97,37,1320,41,-192,-682,-651,-1850,176,3264,464,17.43,1.0000493461633355,16.51,0.999319022945966,4449.498046875,-7309.82568359375,33.20000076293945,1,12,0.699999988079071,12.213749885559082,3,0,0.0,0.0,0.0,0.0,0.9185502662080508,0.0,0.0,14.489114030537012,0.2656033086,0.6963113766,104.2241739882,0.5382857918739319,-0.4598263204097748,0.5104389786720276,0.4881190955638885,2,44.82496744791667,-73.16376139322917,-104.22417398820001,0.6963113766,0.26560330860000003,-104.22417398820001,0.6963113766,0.26560330860000003,0.40317105575999995,0.012522737337999999,-0.058643062656,0.40317105575999995,0.012522737337999999,-0.058643062656,-0.39556,-0.37758,-1.073,-0.39556,-0.37758,-1.073,-104.22417398820001,0.6963113766,0.26560330860000003,0.40317105575999995,0.012522737337999999,-0.058643062656,-0.39556,-0.37758,-1.073,5.17792,96.02688,13.65088,0.9996841845546507,16.97
5650,0,607362,-13977,589,916,1208,-126,-160,-682,-651,-1850,-13977,589,916,1208,-126,-160,-682,-651,-1850,-112,3360,880,17.43,1.0004835924006907,16.51,0.9996150999259809,4449.498046875,-7309.82568359375,33.20000076293945,1,12,0.699999988079071,12.22249984741211,3,0,0.0,0.0,0.0,0.0,1.119107984665688,0.0,0.0,15.887175983904053,6.575476504799999,4.2281175342,100.3334444406,0.5374126434326172,-0.4609409868717193,0.5088624358177185,0.4896734654903412,2,44.82496744791667,-73.16376139322917,-100.3334444406,4.2281175342,6.5754765048,-100.3334444406,4.2281175342,6.5754765048,0.368962602544,-0.038484509868,-0.048869218879999995,0.368962602544,-0.038484509868,-0.048869218879999995,-0.39556,-0.37758,-1.073,-0.39556,-0.37758,-1.073,-100.3334444406,4.2281175342,6.5754765048,0.368962602544,-0.038484509868,-0.048869218879999995,-0.39556,-0.37758,-1.073,-3.29504,98.8512,25.8896,1.0000493461633357,16.97
5651,0,607378,-14156,270,-221,321,-105,-144,-682,-651,-1850,-14156,270,-221,321,-105,-144,-682,-651,-1850,128,3280,864,17.42,1.000611892425364,16.51,0.9996644460893166,4449.498046875,-7309.82568359375,33.20000076293945,1,12,0.699999988079071,12.227499961853027,3,0,0.0,0.0,0.0,0.0,1.3088072491707616,0.0,0.0,17.1924455931352,-1.5864413837999998,1.938186306,101.6183901768,0.5374910831451416,-0.4610160887241363,0.5082643628120422,0.4901375770568847,2,44.82496744791667,-73.16376139322917,-101.6183901768,1.938186306,-1.5864413838,-101.6183901768,1.938186306,-1.5864413838,0.098043870378,-0.03207042489,-0.043982296992,0.098043870378,-0.03207042489,-0.043982296992,-0.39556,-0.37758,-1.073,-0.39556,-0.37758,-1.073,-101.6183901768,1.938186306,-1.5864413838,0.098043870378,-0.03207042489,-0.043982296992,-0.39556,-0.37758,-1.073,3.76576,96.4976,25.41888,1.0001381692573403,16.965000000000003
5652,0,607393,-14418,-818,-44,115,157,-276,-682,-651,-1850,-14418,-818,-44,115,157,-276,-682,-651,-1850,-32,3424,528,17.42,1.000424377004688,16.52,0.999575622995312,4449.498046875,-7309.82568359375,33.20000076293945,1,12,0.699999988079071,12.228750228881836,3,0,0.0,0.0,0.0,0.0,1.5487278157186606,0.0,0.0,18.550136617768725,-0.3158525832,-5.871986660399999,103.4991487404,0.5376347899436951,-0.4603943526744842,0.5080578327178955,0.4907780587673187,2,44.82496744791667,-73.16376139322917,-103.4991487404,-5.8719866604,-0.31585258320000004,-103.4991487404,-5.8719866604,-0.31585258320000004,0.035124751069999995,0.047952921025999996,-0.08429940256799999,0.035124751069999995,0.047952921025999996,-0.08429940256799999,-0.39556,-0.37758,-1.073,-0.39556,-0.37758,-1.073,-103.4991487404,-5.8719866604,-0.31585258320000004,0.035124751069999995,0.047952921025999996,-0.08429940256799999,-0.39556,-0.37758,-1.073,-0.94144,100.73408,15.533760000000001,1.0,16.97
5653,0,607408,-14456,-1028,-203,31,160,-252,-684,-608,-1830,-14456,-1028,-203,31,160,-252,-684,-608,-1830,320,3392,800,17.43,1.000305946212682,16.51,0.9993288921786332,4449.498046875,-7309.82568359375,33.20000076293945,1,12,0.699999988079071,12.227499961853027,3,0,0.0,0.0,0.0,0.0,1.850065783958836,0.0,0.0,19.98044701676528,-1.4572289634,-7.379464898399999,103.7719305168,0.5378437042236328,-0.4597006738185882,0.5079701542854309,0.4912899136543274,2,44.82496744791667,-73.16376139322917,-103.7719305168,-7.3794648984,-1.4572289634,-103.7719305168,-7.3794648984,-1.4572289634,0.009468411158,0.048869218879999995,-0.076969019736,0.009468411158,0.048869218879999995,-0.076969019736,-0.39672,-0.35264,-1.0614,-0.39672,-0.35264,-1.0614,-103.7719305168,-7.3794648984,-1.4572289634,0.009468411158,0.048869218879999995,-0.076969019736,-0.39672,-0.35264,-1.0614,9.4144,99.79264,23.536,0.9998174191956576,16.97
5654,0,607425,-14351,-1401,-153,-672,-3,-238,-684,-608,-1830,-14351,-1401,-153,-672,-3,-238,-684,-608,-1830,224,3360,1248,17.43,0.999812484579324,16.51,0.998894645941278,4449.498046875,-7309.82568359375,33.20000076293945,1,12,0.699999988079071,12.220000267028809,3,0,0.0,0.0,0.0,0.0,2.288717940395144,0.0,0.0,21.54018006611655,-1.0983055734,-10.0570333878,103.0181913978,0.5390174984931946,-0.4583886265754699,0.5084366202354431,0.4907466471195221,2,44.82496744791667,-73.16376139322917,-103.01819139780001,-10.0570333878,-1.0983055734,-103.01819139780001,-10.0570333878,-1.0983055734,-0.205250719296,-0.000916297854,-0.072692963084,-0.205250719296,-0.000916297854,-0.072692963084,-0.39672,-0.35264,-1.0614,-0.39672,-0.35264,-1.0614,-103.01819139780001,-10.0570333878,-1.0983055734,-0.205250719296,-0.000916297854,-0.072692963084,-0.39672,-0.35264,-1.0614,6.59008,98.8512,36.71616,0.999353565260301,16.97
5655,0,607440,-14381,585,-494,959,-118,-261,-684,-608,-1830,-14381,585,-494,959,-118,-261,-684,-608,-1830,160,3392,880,17.43,0.9999111769059956,16.52,0.998953861337281,4449.498046875,-7309.82568359375,33.20000076293945,1,12,0.699999988079071,12.2162504196167,3,0,0.0,0.0,0.0,0.0,2.713427834348764,0.0,0.0,23.04821640821814,-3.5461630932,4.199403663,103.2335454318,0.5385136008262634,-0.4590751826763153,0.5070204734802246,0.4921212494373321,2,44.82496744791667,-73.16376139322917,-103.23354543180001,4.199403663,-3.5461630932,-103.23354543180001,4.199403663,-3.5461630932,0.29290988066199997,-0.036041048924,-0.079717913298,0.29290988066199997,-0.036041048924,-0.079717913298,-0.39672,-0.35264,-1.0614,-0.39672,-0.35264,-1.0614,-103.23354543180001,4.199403663,-3.5461630932,0.29290988066199997,-0.036041048924,-0.079717913298,-0.39672,-0.35264,-1.0614,4.7072,99.79264,25.8896,0.9994325191216383,16.975
5656,0,607456,-14357,-210,691,1513,-126,-169,-684,-608,-1830,-14357,-210,691,1513,-126,-169,-684,-608,-1830,-240,3360,688,17.43,1.0000493461633355,16.52,0.9991907229212929,4449.498046875,-7309.82568359375,33.20000076293945,1,12,0.699999988079071,12.21875,3,0,0.0,0.0,0.0,0.0,3.094232375026534,0.0,0.0,24.487518742151565,4.9603212498,-1.5074782379999998,103.0612622046,0.5372934937477112,-0.4605241417884826,0.5051116347312927,0.4940601587295532,2,44.82496744791667,-73.16376139322917,-103.0612622046,-1.507478238,4.9603212498,-103.0612622046,-1.507478238,4.9603212498,0.462119551034,-0.038484509868,-0.051618112442,0.462119551034,-0.038484509868,-0.051618112442,-0.39672,-0.35264,-1.0614,-0.39672,-0.35264,-1.0614,-103.0612622046,-1.507478238,4.9603212498,0.462119551034,-0.038484509868,-0.051618112442,-0.39672,-0.35264,-1.0614,-7.0608,98.8512,20.24096,0.9996200345423142,16.975
5657,0,607472,-14380,830,-63,1090,-155,-434,-684,-608,-1830,-14380,830,-63,1090,-155,-434,-684,-608,-1830,160,3392,880,17.43,0.9998223538119912,16.52,0.9991018998272884,4449.49755859375,-7309.82568359375,32.599998474121094,1,12,0.6800000071525574,12.21500015258789,3,0,0.0,0.0,0.0,0.0,3.526103702820257,0.0,0.0,25.95612381327456,-0.4522434714,5.958128274,103.226366964,0.5368605256080627,-0.4611862003803253,0.5033090114593506,0.4957500994205475,2,44.82495930989583,-73.16376139322917,-103.22636696400001,5.958128274,-0.45224347140000004,-103.22636696400001,5.958128274,-0.45224347140000004,0.33292155362,-0.04734205579,-0.132557756212,0.33292155362,-0.04734205579,-0.132557756212,-0.39672,-0.35264,-1.0614,-0.39672,-0.35264,-1.0614,-103.22636696400001,5.958128274,-0.45224347140000004,0.33292155362,-0.04734205579,-0.132557756212,-0.39672,-0.35264,-1.0614,4.7072,99.79264,25.8896,0.9994621268196398,16.975
5658,0,607489,-14389,-47,394,809,-46,-318,-684,-608,-1830,-14389,-47,394,809,-46,-318,-684,-608,-1830,-224,3344,800,17.43,0.9996743153219836,16.51,0.9987466074512706,4449.49755859375,-7309.82568359375,32.599998474121094,1,12,0.6800000071525574,12.2162504196167,3,0,0.0,0.0,0.0,0.0,4.033380211307767,0.0,0.0,27.48494499926154,2.8283163132,-0.3373879865999999,103.2909731742,0.5364956855773926,-0.4615407586097717,0.5020663738250732,0.4970733225345611,2,44.82495930989583,-73.16376139322917,-103.2909731742,-0.3373879866,2.8283163132,-103.2909731742,-0.3373879866,2.8283163132,0.247094987962,-0.014049900427999999,-0.09712757252399999,0.247094987962,-0.014049900427999999,-0.09712757252399999,-0.39672,-0.35264,-1.0614,-0.39672,-0.35264,-1.0614,-103.2909731742,-0.3373879866,2.8283163132,0.247094987962,-0.014049900427999999,-0.09712757252399999,-0.39672,-0.35264,-1.0614,-6.59008,98.38048,23.536,0.9992104613866271,16.97
5659,0,607504,-14385,127,-119,241,-163,-494,-684,-608,-1830,-14385,127,-119,241,-163,-494,-684,-608,-1830,64,3360,976,17.43,0.9997236614853195,16.52,0.998953861337281,4449.49755859375,-7309.82568359375,32.599998474121094,1,12,0.6800000071525574,12.21500015258789,3,0,0.0,0.0,0.0,0.0,4.51042759646308,0.0,0.0,28.95722794694292,-0.8542376681999999,0.9116654106,103.262259303,0.5370967388153076,-0.4611577093601227,0.5010786652565002,0.4977758228778839,2,44.82495930989583,-73.16376139322917,-103.26225930300001,0.9116654106000001,-0.8542376682,-103.26225930300001,0.9116654106000001,-0.8542376682,0.07360926093799999,-0.049785516733999995,-0.15088371329199998,0.07360926093799999,-0.049785516733999995,-0.15088371329199998,-0.39672,-0.35264,-1.0614,-0.39672,-0.35264,-1.0614,-103.26225930300001,0.9116654106000001,-0.8542376682,0.07360926093799999,-0.049785516733999995,-0.15088371329199998,-0.39672,-0.35264,-1.0614,1.88288,98.8512,28.71392,0.9993387614113003,16.975
5660,0,607520,-14373,442,36,95,-65,-485,-684,-608,-1830,-14392,100,239,95,-46,-474,-684,-608,-1830,-32,3360,656,17.43,0.9997631384159882,16.52,0.9989143844066124,4449.49755859375,-7309.82568359375,32.599998474121094,1,12,0.6800000071525574,12.21500015258789,3,0,0.0,0.0,0.0,0.0,4.992553601585675,0.0,0.0,30.41068437091161,0.9870393225,1.9453647738,103.2443131335,0.5377246141433716,-0.4605015218257904,0.5003930926322937,0.4983947277069092,2,44.82495930989583,-73.16376139322917,-103.1761176894,3.1728827676,0.2584248408,-103.3125085776,0.71784678,1.7156538042,0.029016098709999997,-0.01985312017,-0.14813481972999998,0.029016098709999997,-0.014049900427999999,-0.144775060932,-0.39672,-0.35264,-1.0614,-0.39672,-0.35264,-1.0614,-103.2443131335,1.9453647738,0.9870393225,0.029016098709999997,-0.016951510298999998,-0.14645494033099998,-0.39672,-0.35264,-1.0614,-0.94144,98.8512,19.29952,0.9993387614113003,16.975
5661,0,607535,-14406,-47,317,-72,-100,-496,-684,-608,-1830,-14406,-47,317,-72,-100,-496,-684,-608,-1830,-128,3312,832,17.43,0.9995953614606464,16.52,0.9988551690106094,4449.49755859375,-7309.82568359375,32.599998474121094,1,12,0.6800000071525574,12.2162504196167,3,0,0.0,0.0,0.0,0.0,5.51035958273822,0.0,0.0,31.87888425410453,2.2755742926,-0.3373879865999999,103.4130071268,0.538610577583313,-0.4596836268901825,0.499809205532074,0.4987790584564209,2,44.82495930989583,-73.16376139322917,-103.41300712680001,-0.3373879866,2.2755742926,-103.41300712680001,-0.3373879866,2.2755742926,-0.021991148496,-0.0305432618,-0.151494578528,-0.021991148496,-0.0305432618,-0.151494578528,-0.39672,-0.35264,-1.0614,-0.39672,-0.35264,-1.0614,-103.41300712680001,-0.3373879866,2.2755742926,-0.021991148496,-0.0305432618,-0.151494578528,-0.39672,-0.35264,-1.0614,-3.76576,97.43904,24.47744,0.9992252652356279,16.975
5662,0,607550,-14404,367,2,-215,-62,-537,-684,-608,-1830,-14404,367,2,-215,-62,-537,-684,-608,-1830,-16,3312,800,17.43,0.9994966691339748,16.52,0.9986775228226006,4449.49755859375,-7309.82568359375,32.599998474121094,1,12,0.6800000071525574,12.225000381469728,3,0,0.0,0.0,0.0,0.0,6.069596762991421,0.0,0.0,33.370609347486386,0.0143569355999999,2.6344976826,103.3986501912,0.5396583080291748,-0.458606868982315,0.4993746876716614,0.4990726709365845,2,44.82495930989583,-73.16376139322917,-103.3986501912,2.6344976826,0.0143569356,-103.3986501912,2.6344976826,0.0143569356,-0.06566801287,-0.018936822316,-0.164017315866,-0.06566801287,-0.018936822316,-0.164017315866,-0.39672,-0.35264,-1.0614,-0.39672,-0.35264,-1.0614,-103.3986501912,2.6344976826,0.0143569356,-0.06566801287,-0.018936822316,-0.164017315866,-0.39672,-0.35264,-1.0614,-0.47072,97.43904,23.536,0.9990870959782877,16.975
5663,0,607566,-14392,-178,377,-487,-43,-519,-684,-608,-1830,-14392,-178,377,-487,-43,-519,-684,-608,-1830,-96,3328,848,17.44,0.9994670614359732,16.52,0.9985689612632618,4449.49755859375,-7309.82568359375,32.599998474121094,1,12,0.6800000071525574,12.220000267028809,3,0,0.0,0.0,0.0,0.0,6.650295806387455,0.0,0.0,34.86113035398069,2.7062823606,-1.2777672684,103.31250857759998,0.5409747958183289,-0.4572181403636932,0.4992685616016388,0.4990279376506805,2,44.82495930989583,-73.16376139322917,-103.3125085776,-1.2777672684,2.7062823606,-103.3125085776,-1.2777672684,2.7062823606,-0.148745684966,-0.013133602574,-0.15851952874199998,-0.148745684966,-0.013133602574,-0.15851952874199998,-0.39672,-0.35264,-1.0614,-0.39672,-0.35264,-1.0614,-103.3125085776,-1.2777672684,2.7062823606,-0.148745684966,-0.013133602574,-0.15851952874199998,-0.39672,-0.35264,-1.0614,-2.82432,97.90976,24.94816,0.9990180113496174,16.98
5664,0,607581,-14322,248,-78,-1012,-83,-568,-684,-608,-1830,-14322,248,-78,-1012,-83,-568,-684,-608,-1830,32,3424,848,17.43,0.9993584998766346,16.52,0.9984900074019244,4449.49755859375,-7309.82568359375,32.599998474121094,1,12,0.6800000071525574,12.225000381469728,3,0,0.0,0.0,0.0,0.0,7.258460383809076,0.0,0.0,36.35588450569937,-0.5599204884,1.7802600143999998,102.8100158316,0.5429851412773132,-0.4552111029624939,0.4996035695075989,0.4983436167240143,2,44.82495930989583,-73.16376139322917,-102.8100158316,1.7802600144,-0.5599204884,-102.8100158316,1.7802600144,-0.5599204884,-0.30909780941599996,-0.025350907293999997,-0.173485727024,-0.30909780941599996,-0.025350907293999997,-0.173485727024,-0.39672,-0.35264,-1.0614,-0.39672,-0.35264,-1.0614,-102.8100158316,1.7802600144,-0.5599204884,-0.30909780941599996,-0.025350907293999997,-0.173485727024,-0.39672,-0.35264,-1.0614,0.94144,100.73408,24.94816,0.9989242536392795,16.975
5665,0,607597,-14397,-76,349,-1205,-12,-484,-684,-608,-1830,-14397,-76,349,-1205,-12,-484,-684,-608,-1830,-64,3360,784,17.43,0.9994867999013076,16.52,0.9985393535652602,4449.49755859375,-7309.82568359375,32.599998474121094,1,12,0.6800000071525574,12.225000381469728,3,0,0.0,0.0,0.0,0.0,7.8432579962219,0.0,0.0,37.79356984677914,2.5052852622,-0.5455635527999999,103.3484009166,0.5450417399406433,-0.4530022740364074,0.500319242477417,0.4973923563957214,2,44.82495930989583,-73.16376139322917,-103.3484009166,-0.5455635528,2.5052852622,-103.3484009166,-0.5455635528,2.5052852622,-0.36804630469,-0.003665191416,-0.147829387112,-0.36804630469,-0.003665191416,-0.147829387112,-0.39672,-0.35264,-1.0614,-0.39672,-0.35264,-1.0614,-103.3484009166,-0.5455635528,2.5052852622,-0.36804630469,-0.003665191416,-0.147829387112,-0.39672,-0.35264,-1.0614,-1.88288,98.8512,23.06528,0.9990130767332839,16.975
5666,0,607612,-14427,18,160,-1483,-40,-505,-657,-646,-1828,-14427,18,160,-1483,-40,-505,-657,-646,-1828,-80,3360,800,17.44,0.99926967678263,16.52,0.9983419689119172,4449.49755859375,-7309.82568359375,32.599998474121094,1,12,0.6800000071525574,12.225000381469728,3,0,0.0,0.0,0.0,0.0,8.485673791972962,0.0,0.0,39.27833115321601,1.148554848,0.1292124204,103.5637549506,0.5474621057510376,-0.4504747688770294,0.501258134841919,0.4960827231407165,2,44.82495930989583,-73.16376139322917,-103.5637549506,0.1292124204,1.148554848,-103.5637549506,0.1292124204,1.148554848,-0.45295657249399995,-0.012217304719999999,-0.15424347209,-0.45295657249399995,-0.012217304719999999,-0.15424347209,-0.38106,-0.37468,-1.06024,-0.38106,-0.37468,-1.06024,-103.5637549506,0.1292124204,1.148554848,-0.45295657249399995,-0.012217304719999999,-0.15424347209,-0.38106,-0.37468,-1.06024,-2.3536,98.8512,23.536,0.9988058228472736,16.98
5667,0,607630,-14381,-81,305,-1923,13,-426,-657,-646,-1828,-14381,-81,305,-1923,13,-426,-657,-646,-1828,-64,3376,896,17.43,0.9991709844559584,16.52,0.998282753515914,4449.49755859375,-7309.82568359375,32.599998474121094,1,12,0.6800000071525574,12.213749885559082,3,0,0.0,0.0,0.0,0.0,9.149321890402252,0.0,0.0,40.76519870655991,2.189432679,-0.5814558917999999,103.2335454318,0.5502298474311829,-0.4474724233150482,0.5027979612350464,0.4941759705543518,2,44.82495930989583,-73.16376139322917,-103.23354543180001,-0.5814558918,2.1894326790000003,-103.23354543180001,-0.5814558918,2.1894326790000003,-0.5873469244139999,0.003970624034,-0.130114295268,-0.5873469244139999,0.003970624034,-0.130114295268,-0.38106,-0.37468,-1.06024,-0.38106,-0.37468,-1.06024,-103.23354543180001,-0.5814558918,2.1894326790000003,-0.5873469244139999,0.003970624034,-0.130114295268,-0.38106,-0.37468,-1.06024,-1.88288,99.32192,26.36032,0.9987268689859362,16.975
5668,0,607645,-14405,85,235,-2403,3,-433,-657,-646,-1828,-14405,85,235,-2403,3,-433,-657,-646,-1828,-16,3408,816,17.44,0.9990328151986184,16.52,0.998095238095238,4449.49755859375,-7309.82568359375,32.599998474121094,1,12,0.6800000071525574,12.207500457763672,3,0,0.0,0.0,0.0,0.0,9.856471280607396,0.0,0.0,42.27004433194452,1.686939933,0.6101697629999999,103.405828659,0.5535440444946289,-0.4439070224761963,0.5047949552536011,0.4916479885578155,2,44.82495930989583,-73.16376139322917,-103.40582865900001,0.610169763,1.6869399330000001,-103.40582865900001,0.610169763,1.6869399330000001,-0.7339545810539999,0.000916297854,-0.132252323594,-0.7339545810539999,0.000916297854,-0.132252323594,-0.38106,-0.37468,-1.06024,-0.38106,-0.37468,-1.06024,-103.40582865900001,0.610169763,1.6869399330000001,-0.7339545810539999,0.000916297854,-0.132252323594,-0.38106,-0.37468,-1.06024,-0.47072,100.26336,24.00672,0.9985640266469282,16.98
5669,0,607661,-14354,90,149,-2902,81,-385,-657,-646,-1828,-14354,90,149,-2902,81,-385,-657,-646,-1828,-48,3408,896,17.44,0.9990821613619542,16.52,0.998282753515914,4449.49755859375,-7309.82568359375,32.599998474121094,1,12,0.6800000071525574,12.225000381469728,3,0,0.0,0.0,0.0,0.0,10.528917073330078,0.0,0.0,43.71551564975543,1.0695917022,0.6460621019999999,103.0397268012,0.5572583675384521,-0.4397193491458893,0.5074316263198853,0.4884908497333526,2,44.82495930989583,-73.16376139322917,-103.0397268012,0.646062102,1.0695917022,-103.0397268012,0.646062102,1.0695917022,-0.8863654574359999,0.024740042057999997,-0.11759155792999999,-0.8863654574359999,0.024740042057999997,-0.11759155792999999,-0.38106,-0.37468,-1.06024,-0.38106,-0.37468,-1.06024,-103.0397268012,0.646062102,1.0695917022,-0.8863654574359999,0.024740042057999997,-0.11759155792999999,-0.38106,-0.37468,-1.06024,-1.41216,100.26336,26.36032,0.9986824574389341,16.98
5670,0,607678,-14379,14,250,-3333,125,-353,-657,-646,-1828,-14379,14,250,-3333,125,-353,-657,-646,-1828,-48,3376,784,17.44,0.9987466074512706,16.52,0.9978978534418949,4449.49755859375,-7309.82568359375,32.599998474121094,1,12,0.6800000071525574,12.217499732971191,3,0,0.0,0.0,0.0,0.0,11.297999005581383,0.0,0.0,45.23657692362773,1.7946169499999998,0.1004985492,103.2191884962,0.5613406896591187,-0.4349978864192962,0.5105661153793335,0.484763503074646,2,44.82495930989583,-73.16376139322917,-103.2191884962,0.10049854920000001,1.79461695,-103.2191884962,0.10049854920000001,1.79461695,-1.018006915794,0.03817907725,-0.10781771415399999,-1.018006915794,0.03817907725,-0.10781771415399999,-0.38106,-0.37468,-1.06024,-0.38106,-0.37468,-1.06024,-103.2191884962,0.10049854920000001,1.79461695,-1.018006915794,0.03817907725,-0.10781771415399999,-0.38106,-0.37468,-1.06024,-1.41216,99.32192,23.06528,0.9983222304465827,16.98
5671,0,607692,-14363,82,123,-3705,157,-315,-657,-646,-1828,-14363,82,123,-3705,157,-315,-657,-646,-1828,-16,3344,784,17.44,0.9987959536146064,16.52,0.9978583765112262,4449.49755859375,-7309.82568359375,32.599998474121094,1,12,0.6800000071525574,12.217499732971191,3,0,0.0,0.0,0.0,0.0,12.0615656398332,0.0,0.0,46.72968285944901,0.8829515393999999,0.5886343596,103.1043330114,0.5657216906547546,-0.4298244714736938,0.5141191482543945,0.4805115759372711,2,44.82495930989583,-73.16376139322917,-103.1043330114,0.5886343596,0.8829515394,-103.1043330114,0.5886343596,0.8829515394,-1.1316278496899999,0.047952921025999996,-0.09621127467,-1.1316278496899999,0.047952921025999996,-0.09621127467,-0.38106,-0.37468,-1.06024,-0.38106,-0.37468,-1.06024,-103.1043330114,0.5886343596,0.8829515394,-1.1316278496899999,0.047952921025999996,-0.09621127467,-0.38106,-0.37468,-1.06024,-0.47072,98.38048,23.06528,0.9983271650629163,16.98
5672,0,607708,-14303,-93,358,-4325,209,-274,-657,-646,-1828,-14303,-93,358,-4325,209,-274,-657,-646,-1828,-128,3392,800,17.44,0.9986084381939304,16.52,0.9978682457438934,4449.49755859375,-7309.82568359375,32.599998474121094,1,12,0.6800000071525574,12.2162504196167,3,0,0.0,0.0,0.0,0.0,12.8450682381817,0.0,0.0,48.21840418462905,2.5698914724,-0.6675975054,102.6736249434,0.5706325769424438,-0.4238781034946441,0.5183488726615906,0.4754158854484558,2,44.82495930989583,-73.16376139322917,-102.6736249434,-0.6675975054000001,2.5698914724,-102.6736249434,-0.6675975054000001,2.5698914724,-1.3209960728499999,0.063835417162,-0.08368853733199999,-1.3209960728499999,0.063835417162,-0.08368853733199999,-0.38106,-0.37468,-1.06024,-0.38106,-0.37468,-1.06024,-102.6736249434,-0.6675975054000001,2.5698914724,-1.3209960728499999,0.063835417162,-0.08368853733199999,-0.38106,-0.37468,-1.06024,-3.76576,99.79264,23.536,0.9982383419689119,16.98
5673,0,607723,-14327,60,198,-4745,260,-267,-657,-646,-1828,-14327,60,198,-4745,260,-267,-657,-646,-1828,96,3312,848,17.44,0.9986183074265976,16.52,0.9975721687638788,4449.49755859375,-7309.82568359375,32.599998474121094,1,12,0.6800000071525574,12.22249984741211,3,0,0.0,0.0,0.0,0.0,13.662628408611452,0.0,0.0,49.71335029030699,1.4213366244,0.4307080679999999,102.8459081706,0.5758687257766724,-0.417338490486145,0.5230017900466919,0.46975839138031,2,44.82495930989583,-73.16376139322917,-102.8459081706,0.430708068,1.4213366244,-102.8459081706,0.430708068,1.4213366244,-1.4492777724099999,0.07941248068,-0.081550509006,-1.4492777724099999,0.07941248068,-0.081550509006,-0.38106,-0.37468,-1.06024,-0.38106,-0.37468,-1.06024,-102.8459081706,0.430708068,1.4213366244,-1.4492777724099999,0.07941248068,-0.081550509006,-0.38106,-0.37468,-1.06024,2.82432,97.43904,24.94816,0.9980952380952381,16.98
5674,0,607739,-14222,-8,339,-4863,305,-201,-657,-646,-1828,-14222,-8,339,-4863,305,-201,-657,-646,-1828,-16,3360,832,17.44,0.9984209227732544,16.52,0.9976708610905504,4449.49755859375,-7309.82568359375,32.599998474121094,1,12,0.6800000071525574,12.22624969482422,3,0,0.0,0.0,0.0,0.0,14.487506183027897,0.0,0.0,51.19453910959066,2.4335005842,-0.0574277423999999,102.0921690516,0.5810417532920837,-0.4106432497501373,0.5278315544128418,0.4638496339321136,2,44.82495930989583,-73.16376139322917,-102.09216905160001,-0.0574277424,2.4335005842,-102.09216905160001,-0.0574277424,2.4335005842,-1.4853188213339998,0.09315694848999999,-0.061391956218,-1.4853188213339998,0.09315694848999999,-0.061391956218,-0.38106,-0.37468,-1.06024,-0.38106,-0.37468,-1.06024,-102.09216905160001,-0.0574277424,2.4335005842,-1.4853188213339998,0.09315694848999999,-0.061391956218,-0.38106,-0.37468,-1.06024,-0.47072,98.8512,24.47744,0.9980458919319024,16.98
5675,0,607754,-14253,-62,289,-5703,334,-160,-657,-646,-1828,-14253,-62,289,-5703,334,-160,-657,-646,-1828,0,3344,896,17.44,0.9983814458425856,16.52,0.9974241302738712,4449.49755859375,-7309.82568359375,32.599998474121094,1,12,0.6800000071525574,12.21875,3,0,0.0,0.0,0.0,0.0,15.344928840011796,0.0,0.0,52.67559311756274,2.0745771942,-0.4450650035999999,102.31470155339998,0.5869444608688354,-0.4028931558132171,0.5334526300430298,0.456729382276535,2,44.82495930989583,-73.16376139322917,-102.3147015534,-0.4450650036,2.0745771942,-102.3147015534,-0.4450650036,2.0745771942,-1.7418822204539999,0.102014494412,-0.048869218879999995,-1.7418822204539999,0.102014494412,-0.048869218879999995,-0.38106,-0.37468,-1.06024,-0.38106,-0.37468,-1.06024,-102.3147015534,-0.4450650036,2.0745771942,-1.7418822204539999,0.102014494412,-0.048869218879999995,-0.38106,-0.37468,-1.06024,0.0,98.38048,26.36032,0.9979027880582284,16.98
5676,0,607770,-14225,-261,492,-6228,425,-69,-657,-646,-1828,-14225,-261,492,-6228,425,-69,-657,-646,-1828,-16,3328,864,17.44,0.9981248457932396,16.52,0.9971773994571922,4449.49755859375,-7309.82568359375,32.599998474121094,1,12,0.6800000071525574,12.223750114440918,3,0,0.0,0.0,0.0,0.0,16.26352544019192,0.0,0.0,54.202128031398175,3.5318061576,-1.8735800958,102.113704455,0.5930873155593872,-0.3944505453109741,0.5396721959114075,0.44878751039505,2,44.82495930989583,-73.16376139322917,-102.113704455,-1.8735800958000002,3.5318061576,-102.113704455,-1.8735800958000002,3.5318061576,-1.9022343449039998,0.12980886265,-0.021074850641999997,-1.9022343449039998,0.12980886265,-0.021074850641999997,-0.38106,-0.37468,-1.06024,-0.38106,-0.37468,-1.06024,-102.113704455,-1.8735800958000002,3.5318061576,-1.9022343449039998,0.12980886265,-0.021074850641999997,-0.38106,-0.37468,-1.06024,-0.47072,97.90976,25.41888,0.9976511226252158,16.98
5677,0,607785,-14166,44,416,-6424,486,-16,-657,-646,-1828,-14166,44,416,-6424,486,-16,-657,-646,-1828,0,3312,912,17.44,0.9981840611892424,16.53,0.996920799407846,4449.49755859375,-7309.82568359375,32.599998474121094,1,12,0.6800000071525574,12.2212495803833,3,0,0.0,0.0,0.0,0.0,17.19997729410235,0.0,0.0,55.720192977786695,2.9862426048,0.3158525832,101.6901748548,0.5991793274879456,-0.3856891393661499,0.5460888147354126,0.4404713809490204,2,44.82495930989583,-73.16376139322917,-101.6901748548,0.31585258320000004,2.9862426048,-101.6901748548,0.31585258320000004,2.9862426048,-1.9620991380319999,0.14844025234799998,-0.004886921888,-1.9620991380319999,0.14844025234799998,-0.004886921888,-0.38106,-0.37468,-1.06024,-0.38106,-0.37468,-1.06024,-101.6901748548,0.31585258320000004,2.9862426048,-1.9620991380319999,0.14844025234799998,-0.004886921888,-0.38106,-0.37468,-1.06024,0.0,97.43904,26.83104,0.9975524302985441,16.985
5678,0,607801,-14156,-89,498,-7487,605,34,-657,-646,-1828,-14156,-89,498,-7487,605,34,-668,-593,-1663,32,3328,928,17.44,0.9980458919319024,16.53,0.9970096225018504,4449.4970703125,-7309.82568359375,31.799999237060547,1,12,0.6800000071525574,12.2162504196167,3,0,0.0,0.0,0.0,0.0,18.13327792280064,0.0,0.0,57.203863668988255,3.5748769644,-0.6388836341999999,101.6183901768,0.6059926748275757,-0.3754450678825378,0.5535142421722412,0.4306228458881378,2,44.824951171875,-73.16376139322917,-101.6183901768,-0.6388836342,3.5748769644,-101.6183901768,-0.6388836342,3.5748769644,-2.286774010966,0.18478673389,0.010384709011999999,-2.286774010966,0.18478673389,0.010384709011999999,-0.38106,-0.37468,-1.06024,-0.38744,-0.34394,-0.96454,-101.6183901768,-0.6388836342,3.5748769644,-2.286774010966,0.18478673389,0.010384709011999999,-0.38425,-0.35931,-1.01239,0.94144,97.90976,27.30176,0.9975277572168764,16.985
5679,0,607818,-14118,50,414,-8330,676,82,-668,-593,-1663,-14118,50,414,-8330,676,82,-668,-593,-1663,-16,3328,880,17.44,0.9978978534418949,16.52,0.9970490994325192,4449.4970703125,-7309.82568359375,31.799999237060547,1,12,0.6800000071525574,12.210000038146973,3,0,0.0,0.0,0.0,0.0,19.07114754020457,0.0,0.0,58.66732570112021,2.9718856692,0.3589233899999999,101.3456084004,0.6133006811141968,-0.3640014827251434,0.561622679233551,0.4194583594799042,2,44.824951171875,-73.16376139322917,-101.34560840040001,0.35892339,2.9718856692,-101.34560840040001,0.35892339,2.9718856692,-2.54425370794,0.206472449768,0.025045474675999997,-2.54425370794,0.206472449768,0.025045474675999997,-0.38744,-0.34394,-0.96454,-0.38744,-0.34394,-0.96454,-101.34560840040001,0.35892339,2.9718856692,-2.54425370794,0.206472449768,0.025045474675999997,-0.38744,-0.34394,-0.96454,-0.47072,97.90976,25.8896,0.9974734764372071,16.98
5680,0,607833,-14138,48,482,-8988,800,147,-668,-593,-1663,-14138,48,482,-8988,800,147,-668,-593,-1663,-16,3296,944,17.44,0.9977596841845546,16.53,0.99673328398717,4449.4970703125,-7309.82568359375,31.799999237060547,1,12,0.6800000071525574,12.213749885559082,3,0,0.0,0.0,0.0,0.0,20.06045876985165,0.0,0.0,60.15859643796873,3.4600214795999995,0.3445664544,101.4891777564,0.6207784414291382,-0.3515360951423645,0.5702885985374451,0.4072193205356598,2,44.824951171875,-73.16376139322917,-101.48917775640001,0.3445664544,3.4600214796,-101.48917775640001,0.3445664544,3.4600214796,-2.745228370584,0.2443460944,0.044898594846,-2.745228370584,0.2443460944,0.044898594846,-0.38744,-0.34394,-0.96454,-0.38744,-0.34394,-0.96454,-101.48917775640001,0.3445664544,3.4600214796,-2.745228370584,0.2443460944,0.044898594846,-0.38744,-0.34394,-0.96454,-0.47072,96.96832,27.77248,0.9972464840858624,16.985
5681,0,607849,-14109,-161,521,-9672,882,164,-668,-593,-1663,-14109,-161,521,-9672,882,164,-668,-593,-1663,-16,3296,816,17.44,0.9978583765112262,16.52,0.9968023686158402,4449.4970703125,-7309.82568359375,31.799999237060547,1,12,0.6800000071525574,12.21875,3,0,0.0,0.0,0.0,0.0,21.01468564674738,0.0,0.0,61.58987054689007,3.7399817238,-1.1557333157999998,101.28100219019998,0.6284812092781067,-0.3379597067832947,0.579369306564331,0.3938600420951843,2,44.824951171875,-73.16376139322917,-101.2810021902,-1.1557333158,3.7399817238,-101.2810021902,-1.1557333158,3.7399817238,-2.9541442812959997,0.269391569076,0.050090949351999994,-2.9541442812959997,0.269391569076,0.050090949351999994,-0.38744,-0.34394,-0.96454,-0.38744,-0.34394,-0.96454,-101.2810021902,-1.1557333158,3.7399817238,-2.9541442812959997,0.269391569076,0.050090949351999994,-0.38744,-0.34394,-0.96454,-0.47072,96.96832,24.00672,0.9973303725635332,16.98
5682,0,607865,-14012,102,454,-10247,1019,177,-668,-593,-1663,-14012,102,454,-10247,1019,177,-668,-593,-1663,-64,3296,896,17.45,0.9974833456698742,16.53,0.996920799407846,4449.4970703125,-7309.82568359375,31.799999237060547,1,12,0.6800000071525574,12.213749885559082,3,0,0.0,0.0,0.0,0.0,21.99229348972151,0.0,0.0,63.02009016879684,3.2590243812,0.7322037156,100.5846908136,0.6361742615699768,-0.3233345448970794,0.5887937545776367,0.3795511424541473,2,44.824951171875,-73.16376139322917,-100.5846908136,0.7322037156000001,3.2590243812,-100.5846908136,0.7322037156000001,3.2590243812,-3.129768036646,0.311235837742,0.054061573386,-3.129768036646,0.311235837742,0.054061573386,-0.38744,-0.34394,-0.96454,-0.38744,-0.34394,-0.96454,-100.5846908136,0.7322037156000001,3.2590243812,-3.129768036646,0.311235837742,0.054061573386,-0.38744,-0.34394,-0.96454,-1.88288,96.96832,26.36032,0.9972020725388601,16.990000000000002
5683,0,607881,-13994,104,585,-11108,1091,153,-668,-593,-1663,-13994,104,585,-11108,1091,153,-668,-593,-1663,0,3328,880,17.44,0.9975228226005428,16.52,0.9962792992844808,4449.4970703125,-7309.82568359375,31.799999237060547,1,12,0.6800000071525574,12.217499732971191,3,0,0.0,0.0,0.0,0.0,23.039807796631127,0.0,0.0,64.49227928389203,4.199403663,0.7465606511999999,100.4554783932,0.6441446542739868,-0.3072518110275268,0.5985772013664246,0.3638398051261902,2,44.824951171875,-73.16376139322917,-100.45547839320001,0.7465606512,4.199403663,-100.45547839320001,0.7465606512,4.199403663,-3.3927455207439996,0.33322698623799996,0.046731190554,-3.3927455207439996,0.33322698623799996,0.046731190554,-0.38744,-0.34394,-0.96454,-0.38744,-0.34394,-0.96454,-100.45547839320001,0.7465606512,4.199403663,-3.3927455207439996,0.33322698623799996,0.046731190554,-0.38744,-0.34394,-0.96454,0.0,97.90976,25.8896,0.9969010609425117,16.98
5684,0,607897,-13860,83,395,-12239,1192,127,-668,-593,-1663,-13860,83,395,-12239,1192,127,-668,-593,-1663,-16,3328,912,17.44,0.9978090303478904,16.52,0.9964668147051566,4449.4970703125,-7309.82568359375,31.799999237060547,1,12,0.6800000071525574,12.223750114440918,3,0,0.0,0.0,0.0,0.0,24.00805020089709,0.0,0.0,65.85288983294663,2.835494781,0.5958128274,99.493563708,0.6524636149406433,-0.2892704308032989,0.6088436245918274,0.346299409866333,2,44.824951171875,-73.16376139322917,-99.49356370800001,0.5958128274000001,2.835494781,-99.49356370800001,0.5958128274000001,2.835494781,-3.7381898117019996,0.364075680656,0.038789942486,-3.7381898117019996,0.364075680656,0.038789942486,-0.38744,-0.34394,-0.96454,-0.38744,-0.34394,-0.96454,-99.49356370800001,0.5958128274000001,2.835494781,-3.7381898117019996,0.364075680656,0.038789942486,-0.38744,-0.34394,-0.96454,-0.47072,97.90976,26.83104,0.9971379225265236,16.98
5685,0,607914,-13976,199,554,-12737,1328,45,-668,-593,-1663,-13976,199,554,-12737,1328,45,-668,-593,-1663,-112,3312,880,17.45,0.9976215149272144,16.53,0.9965260301011596,4449.4970703125,-7309.82568359375,31.799999237060547,1,12,0.6800000071525574,12.220000267028809,3,0,0.0,0.0,0.0,0.0,24.980597391892665,0.0,0.0,67.18165077525751,3.9768711612,1.4285150921999998,100.3262659728,0.6604945659637451,-0.2701215744018554,0.6190670132637024,0.3279287815093994,2,44.824951171875,-73.16376139322917,-100.3262659728,1.4285150922,3.9768711612,-100.3262659728,1.4285150922,3.9768711612,-3.890295255466,0.40561451670399995,0.01374446781,-3.890295255466,0.40561451670399995,0.01374446781,-0.38744,-0.34394,-0.96454,-0.38744,-0.34394,-0.96454,-100.3262659728,1.4285150922,3.9768711612,-3.890295255466,0.40561451670399995,0.01374446781,-0.38744,-0.34394,-0.96454,-3.29504,97.43904,25.8896,0.9970737725141869,16.990000000000002
5686,0,607933,-13868,148,438,-13063,1362,-4,-668,-593,-1663,-13868,148,438,-13063,1362,-4,-668,-593,-1663,-16,3200,960,17.45,0.997591907229213,16.53,0.9962891685171478,4449.4970703125,-7309.82568359375,31.799999237060547,1,12,0.6800000071525574,12.208749771118164,3,0,0.0,0.0,0.0,0.0,25.975775827306386,0.0,0.0,68.52582279003065,3.1441688964,1.0624132344,99.5509914504,0.6681608557701111,-0.250169038772583,0.6289522051811218,0.3088619410991668,2,44.824951171875,-73.16376139322917,-99.5509914504,1.0624132344000001,3.1441688964,-99.5509914504,1.0624132344000001,3.1441688964,-3.989866288934,0.41599922571599995,-0.001221730472,-3.989866288934,0.41599922571599995,-0.001221730472,-0.38744,-0.34394,-0.96454,-0.38744,-0.34394,-0.96454,-99.5509914504,1.0624132344000001,3.1441688964,-3.989866288934,0.41599922571599995,-0.001221730472,-0.38744,-0.34394,-0.96454,-0.47072,94.144,28.2432,0.9969405378731804,16.990000000000002
5687,0,607948,-13896,-173,671,-13964,1427,-144,-668,-593,-1663,-13896,-173,671,-13964,1427,-144,-668,-593,-1663,-16,3216,976,17.45,0.997345176412534,16.53,0.9965260301011596,4449.4970703125,-7309.82568359375,31.799999237060547,1,12,0.6800000071525574,12.225000381469728,3,0,0.0,0.0,0.0,0.0,26.957876194097064,0.0,0.0,69.822407651018,4.816751893799999,-1.2418749294,99.7519885488,0.6757940053939819,-0.2284128963947296,0.6387355923652649,0.2883520126342773,2,44.824951171875,-73.16376139322917,-99.7519885488,-1.2418749294,4.8167518938,-99.7519885488,-1.2418749294,4.8167518938,-4.265061077752,0.43585234588599997,-0.043982296992,-4.265061077752,0.43585234588599997,-0.043982296992,-0.38744,-0.34394,-0.96454,-0.38744,-0.34394,-0.96454,-99.7519885488,-1.2418749294,4.8167518938,-4.265061077752,0.43585234588599997,-0.043982296992,-0.38744,-0.34394,-0.96454,-0.47072,94.61472,28.71392,0.9969356032568468,16.990000000000002
5688,0,607964,-13920,231,394,-14423,1428,-230,-668,-593,-1663,-13920,231,394,-14423,1428,-230,-668,-593,-1663,32,3280,960,17.44,0.9969997532691832,16.53,0.9961904761904762,4449.4970703125,-7309.82568359375,31.799999237060547,1,12,0.6800000071525574,12.217499732971191,3,0,0.0,0.0,0.0,0.0,28.01863400163213,0.0,0.0,71.18605638089295,2.8283163132,1.6582260617999998,99.924271776,0.6830422282218933,-0.2056044489145279,0.6480122804641724,0.266946017742157,2,44.824951171875,-73.16376139322917,-99.924271776,1.6582260618,2.8283163132,-99.924271776,1.6582260618,2.8283163132,-4.405254649414,0.43615777850399995,-0.07024950213999999,-4.405254649414,0.43615777850399995,-0.07024950213999999,-0.38744,-0.34394,-0.96454,-0.38744,-0.34394,-0.96454,-99.924271776,1.6582260618,2.8283163132,-4.405254649414,0.43615777850399995,-0.07024950213999999,-0.38744,-0.34394,-0.96454,0.94144,96.4976,28.2432,0.9965951147298298,16.985
5689,0,607979,-13490,446,484,-14902,1502,-380,-668,-593,-1663,-13490,446,484,-14902,1502,-380,-668,-593,-1663,-32,3248,992,17.45,0.9970984455958548,16.52,0.9960819146311374,4449.4970703125,-7309.82568359375,31.799999237060547,1,12,0.6800000071525574,12.21875,3,0,0.0,0.0,0.0,0.0,29.064362000385504,0.0,0.0,72.51390399668703,3.4743784152,3.2015966388,96.837530622,0.6897551417350769,-0.1815680712461471,0.6567900776863098,0.2447401732206344,2,44.824951171875,-73.16376139322917,-96.837530622,3.2015966388000003,3.4743784152000003,-96.837530622,3.2015966388000003,3.4743784152000003,-4.551556873436,0.458759792236,-0.11606439483999999,-4.551556873436,0.458759792236,-0.11606439483999999,-0.38744,-0.34394,-0.96454,-0.38744,-0.34394,-0.96454,-96.837530622,3.2015966388000003,3.4743784152000003,-4.551556873436,0.458759792236,-0.11606439483999999,-0.38744,-0.34394,-0.96454,-0.94144,95.55616,29.18464,0.9965901801134961,16.985
5690,0,607994,-13659,369,631,-15413,1505,-492,-668,-593,-1663,-13659,369,631,-15413,1505,-492,-668,-593,-1663,96,3232,1056,17.44,0.9967530224525044,16.53,0.9960917838638046,4449.4970703125,-7309.82568359375,31.799999237060547,1,12,0.6800000071525574,12.225000381469728,3,0,0.0,0.0,0.0,0.0,30.13970001323128,0.0,0.0,73.80593513006104,4.529613181799999,2.6488546182,98.0506916802,0.695945143699646,-0.1563606709241867,0.6649116277694702,0.2215950638055801,2,44.824951171875,-73.16376139322917,-98.0506916802,2.6488546182,4.5296131818,-98.0506916802,2.6488546182,4.5296131818,-4.7076329412339994,0.45967609009,-0.150272848056,-4.7076329412339994,0.45967609009,-0.150272848056,-0.38744,-0.34394,-0.96454,-0.38744,-0.34394,-0.96454,-98.0506916802,2.6488546182,4.5296131818,-4.7076329412339994,0.45967609009,-0.150272848056,-0.38744,-0.34394,-0.96454,2.82432,95.08544,31.067520000000002,0.9964224031581546,16.985
5691,0,608011,-13641,239,397,-15921,1467,-675,-709,-133,-1406,-13641,239,397,-15921,1467,-675,-709,-133,-1406,-64,3296,944,17.45,0.9970490994325192,16.52,0.9960424377004689,4449.4970703125,-7309.82568359375,31.799999237060547,1,12,0.6800000071525574,12.220000267028809,3,0,0.0,0.0,0.0,0.0,31.16329735199821,0.0,0.0,75.03922846183748,2.8498517166,1.7156538041999998,97.9214792598,0.7015991806983948,-0.1299015879631042,0.6721852421760559,0.1976136267185211,2,44.824951171875,-73.16376139322917,-97.92147925980001,1.7156538042,2.8498517166,-97.92147925980001,1.7156538042,2.8498517166,-4.862792711178,0.44806965060599996,-0.20616701715,-4.862792711178,0.44806965060599996,-0.20616701715,-0.41122000000000003,-0.07714,-0.81548,-0.41122000000000003,-0.07714,-0.81548,-97.92147925980001,1.7156538042,2.8498517166,-4.862792711178,0.44806965060599996,-0.20616701715,-0.41122000000000003,-0.07714,-0.81548,-1.88288,96.96832,27.77248,0.996545768566494,16.985
5692,0,608026,-13536,831,306,-15933,1445,-794,-709,-133,-1406,-13536,831,306,-15933,1445,-794,-709,-133,-1406,-112,3136,960,17.45,0.9968615840118432,16.52,0.9958450530471256,4449.4970703125,-7309.82568359375,31.799999237060547,1,12,0.6800000071525574,12.21875,3,0,0.0,0.0,0.0,0.0,32.22265574974138,0.0,0.0,76.2892563882684,2.1966111468,5.965306741799999,97.1677401408,0.7063727974891663,-0.1030659601092338,0.6784582138061523,0.1735205501317978,2,44.824951171875,-73.16376139322917,-97.1677401408,5.9653067418,2.1966111468,-97.1677401408,5.9653067418,2.1966111468,-4.866457902594,0.44135013301,-0.24251349869199998,-4.866457902594,0.44135013301,-0.24251349869199998,-0.41122000000000003,-0.07714,-0.81548,-0.41122000000000003,-0.07714,-0.81548,-97.1677401408,5.9653067418,2.1966111468,-4.866457902594,0.44135013301,-0.24251349869199998,-0.41122000000000003,-0.07714,-0.81548,-3.29504,92.26112,28.2432,0.9963533185294844,16.985
5693,0,608042,-13636,50,268,-16361,1385,-911,-709,-133,-1406,-13636,50,268,-16361,1385,-911,-709,-133,-1406,-192,3200,880,17.45,0.9965358993338268,16.53,0.9959536146064644,4449.4970703125,-7309.82568359375,31.799999237060547,1,12,0.6800000071525574,12.225000381469728,3,0,0.0,0.0,0.0,0.0,33.29380221062511,0.0,0.0,77.52044670710268,1.9238293704,0.3589233899999999,97.8855869208,0.7104488611221313,-0.0752559900283813,0.683739185333252,0.1486602127552032,2,44.824951171875,-73.16376139322917,-97.88558692080001,0.35892339,1.9238293704,-97.88558692080001,0.35892339,1.9238293704,-4.997183063097999,0.42302417592999997,-0.278249114998,-4.997183063097999,0.42302417592999997,-0.278249114998,-0.41122000000000003,-0.07714,-0.81548,-0.41122000000000003,-0.07714,-0.81548,-97.88558692080001,0.35892339,1.9238293704,-4.997183063097999,0.42302417592999997,-0.278249114998,-0.41122000000000003,-0.07714,-0.81548,-5.64864,94.144,25.8896,0.9962447569701456,16.990000000000002
5694,0,608058,-13605,684,197,-16389,1297,-1082,-709,-133,-1406,-13605,684,197,-16389,1297,-1082,-709,-133,-1406,-32,3200,848,17.46,0.996170737725142,16.53,0.9954700222057736,4449.4970703125,-7309.82568359375,31.799999237060547,1,12,0.6800000071525574,12.220000267028809,3,0,0.0,0.0,0.0,0.0,34.46268887989506,0.0,0.0,78.84815751044302,1.4141581566,4.910071975199999,97.663054419,0.7136795520782471,-0.0470456480979919,0.6878398060798645,0.1237930655479431,2,44.824951171875,-73.16376139322917,-97.663054419,4.9100719752,1.4141581566,-97.663054419,4.9100719752,1.4141581566,-5.005735176401999,0.396146105546,-0.330478092676,-5.005735176401999,0.396146105546,-0.330478092676,-0.41122000000000003,-0.07714,-0.81548,-0.41122000000000003,-0.07714,-0.81548,-97.663054419,4.9100719752,1.4141581566,-5.005735176401999,0.396146105546,-0.330478092676,-0.41122000000000003,-0.07714,-0.81548,-0.94144,94.144,24.94816,0.9958203799654578,16.995
5695,0,608074,-13578,13,436,-16673,1177,-1202,-709,-133,-1406,-13578,13,436,-16673,1177,-1202,-709,-133,-1406,-96,3200,816,17.45,0.9963977300764866,16.53,0.9954305452751048,4449.4970703125,-7309.82568359375,31.799999237060547,1,12,0.6800000071525574,12.21500015258789,3,0,0.0,0.0,0.0,0.0,35.585269371386175,0.0,0.0,80.10089492261667,3.1298119608,0.0933200813999999,97.4692357884,0.7161462903022766,-0.0181570760905742,0.6907323598861694,0.0984565243124961,2,44.824951171875,-73.16376139322917,-97.4692357884,0.0933200814,3.1298119608,-97.4692357884,0.0933200814,3.1298119608,-5.092478039914,0.359494191386,-0.367130006836,-5.092478039914,0.359494191386,-0.367130006836,-0.41122000000000003,-0.07714,-0.81548,-0.41122000000000003,-0.07714,-0.81548,-97.4692357884,0.0933200814,3.1298119608,-5.092478039914,0.359494191386,-0.367130006836,-0.41122000000000003,-0.07714,-0.81548,-2.82432,94.144,24.00672,0.9959141376757956,16.990000000000002
5696,0,608089,-13573,67,155,-16703,1065,-1307,-709,-133,-1406,-13573,67,155,-16703,1065,-1307,-709,-133,-1406,-48,3168,832,17.46,0.9962200838884776,16.52,0.9952627683197632,4449.4970703125,-7309.82568359375,31.799999237060547,1,12,0.6800000071525574,12.22624969482422,3,0,0.0,0.0,0.0,0.0,36.73513225666395,0.0,0.0,81.35991054519543,1.112662509,0.4809573425999999,97.4333434494,0.7177316546440125,0.0109530016779899,0.6923871040344238,0.0730851888656616,2,44.824951171875,-73.16376139322917,-97.4333434494,0.4809573426,1.112662509,-97.4333434494,0.4809573426,1.112662509,-5.101641018454,0.32528573817,-0.399200431726,-5.101641018454,0.32528573817,-0.399200431726,-0.41122000000000003,-0.07714,-0.81548,-0.41122000000000003,-0.07714,-0.81548,-97.4333434494,0.4809573426,1.112662509,-5.101641018454,0.32528573817,-0.399200431726,-0.41122000000000003,-0.07714,-0.81548,-1.41216,93.20256,24.47744,0.9957414261041204,16.990000000000002
5697,0,608107,-13437,-149,432,-17071,933,-1419,-709,-133,-1406,-13437,-149,432,-17071,933,-1419,-709,-133,-1406,-128,3216,880,17.45,0.9959141376757956,16.53,0.9949074759437454,4449.4970703125,-7309.82568359375,31.799999237060547,1,12,0.6800000071525574,12.217499732971191,3,0,0.0,0.0,0.0,0.0,37.95477488231665,0.0,0.0,82.67344285956963,3.1010980896,-1.0695917022,96.4570718286,0.718487560749054,0.0407915413379669,0.6927380561828613,0.0471783950924873,2,44.824951171875,-73.16376139322917,-96.45707182860001,-1.0695917022,3.1010980896,-96.45707182860001,-1.0695917022,3.1010980896,-5.214040221877999,0.28496863259399996,-0.433408884942,-5.214040221877999,0.28496863259399996,-0.433408884942,-0.41122000000000003,-0.07714,-0.81548,-0.41122000000000003,-0.07714,-0.81548,-96.45707182860001,-1.0695917022,3.1010980896,-5.214040221877999,0.28496863259399996,-0.433408884942,-0.41122000000000003,-0.07714,-0.81548,-3.76576,94.61472,25.8896,0.9954108068097705,16.990000000000002
5698,0,608121,-13419,-334,205,-17070,815,-1497,-709,-133,-1406,-13419,-334,205,-17070,815,-1497,-709,-133,-1406,-16,3152,896,17.46,0.9960819146311374,16.53,0.994946952874414,4449.4970703125,-7309.82568359375,31.799999237060547,1,12,0.6800000071525574,12.212499618530272,3,0,0.0,0.0,0.0,0.0,39.12346001929124,0.0,0.0,83.89589420893226,1.471585899,-2.3976082452,96.3278594082,0.7183008193969727,0.0706803649663925,0.6918042898178101,0.0213343054056167,2,44.824951171875,-73.16376139322917,-96.3278594082,-2.3976082452000003,1.4715858990000001,-96.3278594082,-2.3976082452000003,1.4715858990000001,-5.21373478926,0.24892758366999998,-0.457232629146,-5.21373478926,0.24892758366999998,-0.457232629146,-0.41122000000000003,-0.07714,-0.81548,-0.41122000000000003,-0.07714,-0.81548,-96.3278594082,-2.3976082452000003,1.4715858990000001,-5.21373478926,0.24892758366999998,-0.457232629146,-0.41122000000000003,-0.07714,-0.81548,-0.47072,92.73184,26.36032,0.9955144337527757,16.995
5699,0,608136,-13230,205,450,-17091,759,-1540,-709,-133,-1406,-13445,-523,450,-17091,759,-1538,-709,-133,-1406,-144,3184,832,17.46,0.9957068837897852,16.53,0.994759437453738,4449.49658203125,-7309.82568359375,33.20000076293945,1,12,0.6800000071525574,12.22249984741211,3,0,0.0,0.0,0.0,0.0,40.34722709894058,0.0,0.0,85.15615642254294,3.23031051,-1.1413763802,95.7428142825,0.7170734405517578,0.1005582362413406,0.689690887928009,-0.0045020747929811,2,44.82494303385417,-73.16376139322917,-94.971128994,1.4715858990000001,3.2303105100000002,-96.514499571,-3.7543386594,3.2303105100000002,-5.220148874237999,0.231823357062,-0.47036623171999997,-5.220148874237999,0.231823357062,-0.46975536648399996,-0.41122000000000003,-0.07714,-0.81548,-0.41122000000000003,-0.07714,-0.81548,-95.7428142825,-1.1413763802,3.2303105100000002,-5.220148874237999,0.231823357062,-0.47006079910199994,-0.41122000000000003,-0.07714,-0.81548,-4.23648,93.67328,24.47744,0.9952331606217616,16.995
5700,0,608154,-13308,-508,276,-17532,544,-1542,-709,-133,-1406,-13308,-508,276,-17532,544,-1542,-709,-133,-1406,-112,3152,848,17.46,0.9955489760671108,16.53,0.9946015297310634,4449.49658203125,-7309.82568359375,33.20000076293945,1,12,0.6800000071525574,12.210000038146973,3,0,0.0,0.0,0.0,0.0,41.59090086829819,0.0,0.0,86.4087276900323,1.9812571128,-3.6466616424,95.5310494824,0.7150290608406067,0.1309779286384582,0.6860154271125793,-0.0310008339583873,2,44.82494303385417,-73.16376139322917,-95.53104948240001,-3.6466616424000002,1.9812571128,-95.53104948240001,-3.6466616424000002,1.9812571128,-5.354844658776,0.16615534419199998,-0.470977096956,-5.354844658776,0.16615534419199998,-0.470977096956,-0.41122000000000003,-0.07714,-0.81548,-0.41122000000000003,-0.07714,-0.81548,-95.53104948240001,-3.6466616424000002,1.9812571128,-5.354844658776,0.16615534419199998,-0.470977096956,-0.41122000000000003,-0.07714,-0.81548,-3.29504,92.73184,24.94816,0.9950752528990872,16.995
5701,0,608169,-13145,349,43,-17492,429,-1518,-709,-133,-1406,-13145,349,43,-17492,429,-1518,-709,-133,-1406,-16,3152,832,17.46,0.995312114483099,16.53,0.994571922033062,4449.49658203125,-7309.82568359375,33.20000076293945,1,12,0.6800000071525574,12.212499618530272,3,0,0.0,0.0,0.0,0.0,42.84692395279321,0.0,0.0,87.6511568296027,0.3086741153999999,2.5052852622,94.360959231,0.7120020389556885,0.1610887348651886,0.6810361742973328,-0.057386465370655,2,44.82494303385417,-73.16376139322917,-94.36095923100001,2.5052852622,0.3086741154,-94.36095923100001,2.5052852622,0.3086741154,-5.342627354056,0.131030593122,-0.463646714124,-5.342627354056,0.131030593122,-0.463646714124,-0.41122000000000003,-0.07714,-0.81548,-0.41122000000000003,-0.07714,-0.81548,-94.36095923100001,2.5052852622,0.3086741154,-5.342627354056,0.131030593122,-0.463646714124,-0.41122000000000003,-0.07714,-0.81548,-0.47072,92.73184,24.47744,0.9949420182580805,16.995
5702,0,608185,-12960,78,436,-17789,286,-1402,-709,-133,-1406,-12960,78,436,-17789,286,-1402,-709,-133,-1406,-64,3152,768,17.46,0.9954502837404392,16.53,0.994088329632371,4449.49658203125,-7309.82568359375,33.20000076293945,1,12,0.6800000071525574,12.217499732971191,3,0,0.0,0.0,0.0,0.0,44.12557111381317,0.0,0.0,88.88034824004579,3.1298119608,0.5599204884,93.032942688,0.7080175876617432,0.1912242323160171,0.6745663285255432,-0.0842888578772544,2,44.82494303385417,-73.16376139322917,-93.032942688,0.5599204884,3.1298119608,-93.032942688,0.5599204884,3.1298119608,-5.433340841602,0.087353728748,-0.428216530436,-5.433340841602,0.087353728748,-0.428216530436,-0.41122000000000003,-0.07714,-0.81548,-0.41122000000000003,-0.07714,-0.81548,-93.032942688,0.5599204884,3.1298119608,-5.433340841602,0.087353728748,-0.428216530436,-0.41122000000000003,-0.07714,-0.81548,-1.88288,92.73184,22.59456,0.9947693066864052,16.995
5703,0,608200,-13150,173,54,-17805,171,-1314,-709,-133,-1406,-13150,173,54,-17805,171,-1314,-709,-133,-1406,-48,3104,816,17.46,0.9949765605724156,16.53,0.9941278065630396,4449.49658203125,-7309.82568359375,33.20000076293945,1,12,0.6800000071525574,12.223750114440918,3,0,0.0,0.0,0.0,0.0,45.4380818380313,0.0,0.0,90.10630612803244,0.3876372611999999,1.2418749294,94.39685157,0.7030495405197144,0.2209407538175583,0.6667458415031433,-0.1111603155732154,2,44.82494303385417,-73.16376139322917,-94.39685157000001,1.2418749294,0.3876372612,-94.39685157000001,1.2418749294,0.3876372612,-5.43822776349,0.052228977678,-0.40133846005199997,-5.43822776349,0.052228977678,-0.40133846005199997,-0.41122000000000003,-0.07714,-0.81548,-0.41122000000000003,-0.07714,-0.81548,-94.39685157000001,1.2418749294,0.3876372612,-5.43822776349,0.052228977678,-0.40133846005199997,-0.41122000000000003,-0.07714,-0.81548,-1.41216,91.31968,24.00672,0.9945521835677276,16.995
5704,0,608218,-13136,160,256,-17990,118,-1145,-791,458,-1602,-13136,160,256,-17990,118,-1145,-791,458,-1602,-48,3104,720,17.46,0.9947396989884036,16.53,0.9937922526523564,4449.49658203125,-7309.82568359375,33.20000076293945,1,12,0.6800000071525574,12.21500015258789,3,0,0.0,0.0,0.0,0.0,46.80224097333707,0.0,0.0,91.38870058280538,1.8376877568,1.148554848,94.2963530208,0.6970005035400391,0.2503037750720978,0.6575650572776794,-0.1383709162473678,2,44.82494303385417,-73.16376139322917,-94.2963530208,1.148554848,1.8376877568,-94.2963530208,1.148554848,1.8376877568,-5.494732797819999,0.036041048924,-0.34972034761,-5.494732797819999,0.036041048924,-0.34972034761,-0.45878,0.26564,-0.92916,-0.45878,0.26564,-0.92916,-94.2963530208,1.148554848,1.8376877568,-5.494732797819999,0.036041048924,-0.34972034761,-0.45878,0.26564,-0.92916,-1.41216,91.31968,21.1824,0.99426597582038,16.995
5705,0,608232,-13132,-506,470,-18105,20,-962,-791,458,-1602,-13132,-506,470,-18105,20,-962,-791,458,-1602,-32,3104,880,17.46,0.9944140143103872,16.53,0.9935060449050086,4449.49658203125,-7309.82568359375,33.20000076293945,1,12,0.6800000071525574,12.212499618530272,3,0,0.0,0.0,0.0,0.0,48.22254772806093,0.0,0.0,92.70951675371724,3.373879866,-3.6323047068,94.2676391496,0.6899594664573669,0.2791449725627899,0.6469643115997314,-0.1657445728778839,2,44.82494303385417,-73.16376139322917,-94.2676391496,-3.6323047068000003,3.3738798660000002,-94.2676391496,-3.6323047068000003,3.3738798660000002,-5.52985754889,0.0061086523599999994,-0.29382617851599996,-5.52985754889,0.0061086523599999994,-0.29382617851599996,-0.45878,0.26564,-0.92916,-0.45878,0.26564,-0.92916,-94.2676391496,-3.6323047068000003,3.3738798660000002,-5.52985754889,0.0061086523599999994,-0.29382617851599996,-0.45878,0.26564,-0.92916,-0.94144,91.31968,25.8896,0.9939600296076979,16.995
5706,0,608248,-12995,-414,487,-18240,62,-737,-791,458,-1602,-12995,-414,487,-18240,62,-737,-791,458,-1602,32,3024,816,17.46,0.99426597582038,16.53,0.9931704909943252,4449.49658203125,-7309.82568359375,33.20000076293945,1,12,0.6800000071525574,12.2212495803833,3,0,0.0,0.0,0.0,0.0,49.68003839521207,0.0,0.0,94.04869400165484,3.4959138186,-2.9718856692,93.284189061,0.6817379593849182,0.3073247373104095,0.6351228356361389,-0.1934007406234741,2,44.82494303385417,-73.16376139322917,-93.284189061,-2.9718856692,3.4959138186,-93.284189061,-2.9718856692,3.4959138186,-5.57109095232,0.018936822316,-0.225103839466,-5.57109095232,0.018936822316,-0.225103839466,-0.45878,0.26564,-0.92916,-0.45878,0.26564,-0.92916,-93.284189061,-2.9718856692,3.4959138186,-5.57109095232,0.018936822316,-0.225103839466,-0.45878,0.26564,-0.92916,0.94144,88.96608,24.00672,0.9937182334073527,16.995
5707,0,608264,-12947,-410,735,-18411,67,-512,-791,458,-1602,-12947,-410,735,-18411,67,-512,-791,458,-1602,96,3088,880,17.46,0.99426597582038,16.54,0.9935159141376758,4449.49658203125,-7309.82568359375,33.20000076293945,1,12,0.6800000071525574,12.21500015258789,3,0,0.0,0.0,0.0,0.0,51.05981857930926,0.0,0.0,95.26732646413424,5.276173833,-2.943171798,92.9396226066,0.6723767518997192,0.3348518013954162,0.6219371557235718,-0.2213097810745239,2,44.82494303385417,-73.16376139322917,-92.9396226066,-2.9431717980000003,5.2761738330000005,-92.9396226066,-2.9431717980000003,5.2761738330000005,-5.623319929998,0.020463985405999998,-0.156381500416,-5.623319929998,0.020463985405999998,-0.156381500416,-0.45878,0.26564,-0.92916,-0.45878,0.26564,-0.92916,-92.9396226066,-2.9431717980000003,5.2761738330000005,-5.623319929998,0.020463985405999998,-0.156381500416,-0.45878,0.26564,-0.92916,2.82432,90.84896,25.8896,0.9938909449790279,17.0
5708,0,608279,-12895,-682,558,-18670,139,-336,-791,458,-1602,-12895,-682,558,-18670,139,-336,-791,458,-1602,80,3088,896,17.46,0.9938021218850236,16.54,0.993042190969652,4449.49658203125,-7309.82568359375,33.20000076293945,1,12,0.6800000071525574,12.212499618530272,3,0,0.0,0.0,0.0,0.0,52.53907161444001,0.0,0.0,96.56862126362724,4.0055850324,-4.8957150396,92.566342281,0.6616909503936768,0.361829549074173,0.6074408292770386,-0.2495198100805282,2,44.82494303385417,-73.16376139322917,-92.566342281,-4.8957150396,4.0055850324,-92.566342281,-4.8957150396,4.0055850324,-5.70242697806,0.042455133901999995,-0.102625359648,-5.70242697806,0.042455133901999995,-0.102625359648,-0.45878,0.26564,-0.92916,-0.45878,0.26564,-0.92916,-92.566342281,-4.8957150396,4.0055850324,-5.70242697806,0.042455133901999995,-0.102625359648,-0.45878,0.26564,-0.92916,2.3536,90.84896,26.36032,0.9934221564273378,17.0
5709,0,608295,-13094,-695,722,-18444,292,-177,-791,458,-1602,-13094,-695,722,-18444,292,-177,-791,458,-1602,112,2992,848,17.46,0.993703429558352,16.54,0.9929928448063164,4449.49658203125,-7309.82568359375,33.20000076293945,1,12,0.6800000071525574,12.22624969482422,3,0,0.0,0.0,0.0,0.0,54.00712568688301,0.0,0.0,97.83108727881948,5.1828537516,-4.989035121,93.9948573732,0.6498450636863708,0.3875042200088501,0.5921636819839478,-0.2772800326347351,2,44.82494303385417,-73.16376139322917,-93.9948573732,-4.989035121000001,5.182853751600001,-93.9948573732,-4.989035121000001,5.182853751600001,-5.633399206391999,0.089186324456,-0.054061573386,-5.633399206391999,0.089186324456,-0.054061573386,-0.45878,0.26564,-0.92916,-0.45878,0.26564,-0.92916,-93.9948573732,-4.989035121000001,5.182853751600001,-5.633399206391999,0.089186324456,-0.054061573386,-0.45878,0.26564,-0.92916,3.29504,88.02464,24.94816,0.9933481371823343,17.0
5710,0,608310,-12940,-77,467,-18392,398,-61,-791,458,-1602,-12940,-77,467,-18392,398,-61,-791,458,-1602,64,2992,912,17.46,0.9934172218110042,16.54,0.9927658524549716,4449.49658203125,-7309.82568359375,33.20000076293945,1,12,0.6800000071525574,12.22624969482422,3,0,0.0,0.0,0.0,0.0,55.51399464289681,0.0,0.0,99.13648391002756,3.3523444626,-0.5527420206,92.889373332,0.636822521686554,0.4121714532375335,0.5759516358375549,-0.3047155141830444,2,44.82494303385417,-73.16376139322917,-92.889373332,-0.5527420206,3.3523444626,-92.889373332,-0.5527420206,3.3523444626,-5.617516710256,0.121562181964,-0.018631389698,-5.617516710256,0.121562181964,-0.018631389698,-0.45878,0.26564,-0.92916,-0.45878,0.26564,-0.92916,-92.889373332,-0.5527420206,3.3523444626,-5.617516710256,0.121562181964,-0.018631389698,-0.45878,0.26564,-0.92916,1.88288,88.02464,26.83104,0.9930915371329879,17.0
5711,0,608327,-12470,-551,594,-18658,557,-12,-791,458,-1602,-12470,-551,594,-18658,557,-12,-791,458,-1602,64,3040,1040,17.46,0.9934172218110042,16.53,0.9924006908462868,4449.49658203125,-7309.82568359375,33.20000076293945,1,12,0.6800000071525574,12.225000381469728,3,0,0.0,0.0,0.0,0.0,57.03863888528499,0.0,0.0,100.42334500651816,4.2640098732,-3.9553357578,89.515493466,0.6222920417785645,0.4362568259239197,0.5586381554603577,-0.332198828458786,2,44.82494303385417,-73.16376139322917,-89.51549346600001,-3.9553357578000004,4.2640098732,-89.51549346600001,-3.9553357578000004,4.2640098732,-5.698761786644,0.17012596822599999,-0.003665191416,-5.698761786644,0.17012596822599999,-0.003665191416,-0.45878,0.26564,-0.92916,-0.45878,0.26564,-0.92916,-89.51549346600001,-3.9553357578000004,4.2640098732,-5.698761786644,0.17012596822599999,-0.003665191416,-0.45878,0.26564,-0.92916,1.88288,89.4368,30.5968,0.9929089563286455,16.995
5712,0,608341,-11853,288,854,-18817,618,25,-791,458,-1602,-11853,288,854,-18817,618,25,-791,458,-1602,96,2896,1088,17.46,0.993042190969652,16.54,0.9922230446582778,4449.49658203125,-7309.82568359375,33.20000076293945,1,12,0.6800000071525574,12.22249984741211,3,0,0.0,0.0,0.0,0.0,58.60597741900251,0.0,0.0,101.68490149950792,6.130411501199999,2.0673987264,85.08637883339999,0.6064408421516418,0.4596339166164398,0.5401843786239624,-0.35939821600914,2,44.82494303385417,-73.16376139322917,-85.0863788334,2.0673987264,6.1304115012,-85.0863788334,2.0673987264,6.1304115012,-5.747325572906,0.188757357924,0.00763581545,-5.747325572906,0.188757357924,0.00763581545,-0.45878,0.26564,-0.92916,-0.45878,0.26564,-0.92916,-85.0863788334,2.0673987264,6.1304115012,-5.747325572906,0.188757357924,0.00763581545,-0.45878,0.26564,-0.92916,2.82432,85.20032,32.00896,0.9926326178139648,17.0
5713,0,608357,-11221,361,591,-19004,724,5,-791,458,-1602,-11221,361,591,-19004,724,5,-791,458,-1602,-32,2864,1024,17.47,0.992716506291636,16.54,0.9917887984209228,4449.49658203125,-7309.82568359375,33.20000076293945,1,12,0.6800000071525574,12.2212495803833,3,0,0.0,0.0,0.0,0.0,60.242714834713055,0.0,0.0,102.934623127989,4.242474469799999,2.5914268758,80.5495871838,0.5891332030296326,0.4823107123374939,0.5206727385520935,-0.3862621486186981,2,44.82494303385417,-73.16376139322917,-80.5495871838,2.5914268758000003,4.2424744698,-80.5495871838,2.5914268758000003,4.2424744698,-5.804441472472,0.22113321543199999,0.0015271630899999999,-5.804441472472,0.22113321543199999,0.0015271630899999999,-0.45878,0.26564,-0.92916,-0.45878,0.26564,-0.92916,-80.5495871838,2.5914268758000003,4.2424744698,-5.804441472472,0.22113321543199999,0.0015271630899999999,-0.45878,0.26564,-0.92916,-0.94144,84.25888,30.12608,0.9922526523562794,17.005
5714,0,608372,-10917,443,711,-18949,832,-39,-791,458,-1602,-10917,443,711,-18949,832,-39,-791,458,-1602,96,2624,944,17.47,0.9926868985936343,16.54,0.9921342215642732,4449.49658203125,-7309.82568359375,33.20000076293945,1,12,0.6800000071525574,12.22249984741211,3,0,0.0,0.0,0.0,0.0,61.79835418796822,0.0,0.0,104.00828686503635,5.103890605799999,3.1800612354,78.3673329726,0.5705707669258118,0.5039640665054321,0.500411331653595,-0.4123805463314056,2,44.82494303385417,-73.16376139322917,-78.3673329726,3.1800612354,5.1038906058,-78.3673329726,3.1800612354,5.1038906058,-5.787642678481999,0.254119938176,-0.011911872102,-5.787642678481999,0.254119938176,-0.011911872102,-0.45878,0.26564,-0.92916,-0.45878,0.26564,-0.92916,-78.3673329726,3.1800612354,5.1038906058,-5.787642678481999,0.254119938176,-0.011911872102,-0.45878,0.26564,-0.92916,2.82432,77.19808,27.77248,0.9924105600789538,17.005
5715,0,608388,-10374,636,422,-18999,814,-114,-791,458,-1602,-10374,636,422,-18999,814,-114,-791,458,-1602,-160,2656,976,17.47,0.9930027140389834,16.53,0.9918776215149272,4449.49658203125,-7309.82568359375,33.20000076293945,1,12,0.6800000071525574,12.223750114440918,3,0,0.0,0.0,0.0,0.0,63.30840396709402,0.0,0.0,104.98247879758864,3.0293134116,4.5655055208,74.46942495719999,0.550804853439331,0.5248265266418457,0.4791832864284515,-0.437669426202774,2,44.82494303385417,-73.16376139322917,-74.4694249572,4.5655055208,3.0293134116,-74.4694249572,4.5655055208,3.0293134116,-5.8029143093819995,0.24862215105199997,-0.034819318451999995,-5.8029143093819995,0.24862215105199997,-0.034819318451999995,-0.45878,0.26564,-0.92916,-0.45878,0.26564,-0.92916,-74.4694249572,4.5655055208,3.0293134116,-5.8029143093819995,0.24862215105199997,-0.034819318451999995,-0.45878,0.26564,-0.92916,-4.7072,78.13952,28.71392,0.9924401677769553,17.0
5716,0,608403,-9858,-250,762,-19192,865,-186,-791,458,-1602,-9858,-250,762,-19192,865,-186,-791,458,-1602,96,2368,976,17.46,0.9928941524796449,16.53,0.9915914137675796,4449.49658203125,-7309.82568359375,33.20000076293945,1,12,0.6800000071525574,12.220000267028809,3,0,0.0,0.0,0.0,0.0,64.83542138782278,0.0,0.0,105.90074937182249,5.4699924636,-1.7946169499999998,70.76533557239999,0.5296369194984436,0.5449243783950806,0.4569323360919952,-0.4623366594314575,2,44.82494303385417,-73.16376139322917,-70.7653355724,-1.79461695,5.469992463600001,-70.7653355724,-1.79461695,5.469992463600001,-5.861862804656,0.26419921457,-0.056810466947999995,-5.861862804656,0.26419921457,-0.056810466947999995,-0.45878,0.26564,-0.92916,-0.45878,0.26564,-0.92916,-70.7653355724,-1.79461695,5.469992463600001,-5.861862804656,0.26419921457,-0.056810466947999995,-0.45878,0.26564,-0.92916,2.82432,69.66656,28.71392,0.9922427831236122,16.995
5717,0,608419,-9198,402,352,-19425,846,-275,-785,698,-2221,-8900,552,753,-19117,831,-269,-785,698,-2221,-224,2288,848,17.47,0.9923414754502836,16.54,0.9911670367628916,4449.49658203125,-7309.82568359375,33.20000076293945,1,12,0.6800000071525574,12.217499732971191,3,0,0.0,0.0,0.0,0.0,66.45814921059534,0.0,0.0,106.85209315620514,3.9661034595,3.4241291406,64.95795512219999,0.5072656869888306,0.5641670823097229,0.4337444603443146,-0.4860686361789703,2,44.82494303385417,-73.16376139322917,-66.0275468244,2.8857440556,2.5268206656000003,-63.888363420000005,3.9625142256,5.405386253400001,-5.93302860465,0.25839599482799996,-0.08399396995,-5.838955358305999,0.253814505558,-0.082161374242,-0.4553,0.40484,-1.28818,-0.4553,0.40484,-1.28818,-64.9579551222,3.4241291406,3.9661034595,-5.885991981478,0.256105250193,-0.083077672096,-0.4553,0.40484,-1.28818,-6.59008,67.31296,24.94816,0.9917542561065876,17.005
5718,0,608435,-8719,463,453,-19361,846,-334,-785,698,-2221,-8719,463,453,-19361,846,-334,-785,698,-2221,-128,2208,864,17.47,0.9926770293609672,16.54,0.9906834443622008,4449.49658203125,-7309.82568359375,33.20000076293945,1,12,0.6800000071525574,12.210000038146973,3,0,0.0,0.0,0.0,0.0,68.05974710675657,0.0,0.0,107.67803223191424,3.2518459134,3.3236305914,62.5890607482,0.483702003955841,0.5824453234672546,0.4096589088439941,-0.5088903307914734,2,44.82494303385417,-73.16376139322917,-62.589060748200005,3.3236305914,3.2518459134,-62.589060748200005,3.3236305914,3.2518459134,-5.913480917098,0.25839599482799996,-0.102014494412,-5.913480917098,0.25839599482799996,-0.102014494412,-0.4553,0.40484,-1.28818,-0.4553,0.40484,-1.28818,-62.589060748200005,3.3236305914,3.2518459134,-5.913480917098,0.25839599482799996,-0.102014494412,-0.4553,0.40484,-1.28818,-3.76576,64.95936,25.41888,0.991680236861584,17.005
5719,0,608450,-8905,502,161,-19475,748,-515,-785,698,-2221,-8905,502,161,-19475,748,-515,-785,698,-2221,-48,2080,944,17.46,0.992232913890945,16.54,0.9910288675055514,4449.49658203125,-7309.82568359375,33.20000076293945,1,12,0.6800000071525574,12.22249984741211,3,0,0.0,0.0,0.0,0.0,69.63232764232771,0.0,0.0,108.42364651303404,1.1557333157999998,3.6035908356,63.924255759,0.4588877260684967,0.599979043006897,0.3847036361694336,-0.5305189490318298,2,44.82494303385417,-73.16376139322917,-63.924255759000005,3.6035908356,1.1557333158,-63.924255759000005,3.6035908356,1.1557333158,-5.94830023555,0.22846359826399998,-0.15729779826999998,-5.94830023555,0.22846359826399998,-0.15729779826999998,-0.4553,0.40484,-1.28818,-0.4553,0.40484,-1.28818,-63.924255759000005,3.6035908356,1.1557333158,-5.94830023555,0.22846359826399998,-0.15729779826999998,-0.4553,0.40484,-1.28818,-1.41216,61.1936,27.77248,0.9916308906982483,17.0
5720,0,608467,-8976,-23,419,-19705,734,-597,-785,698,-2221,-8976,-23,419,-19705,734,-597,-785,698,-2221,-112,2128,816,17.46,0.9919960523069332,16.54,0.9909301751788798,4449.49658203125,-7309.8251953125,37.09999847412109,1,12,0.6800000071525574,12.21125030517578,3,0,0.0,0.0,0.0,0.0,71.20831836616547,0.0,0.0,109.18087917514907,3.0077780082,-0.1651047594,64.4339269728,0.4327587783336639,0.6165958046913147,0.3587335348129272,-0.5512166023254395,2,44.82494303385417,-73.16375325520833,-64.43392697280001,-0.1651047594,3.0077780082000003,-64.43392697280001,-0.1651047594,3.0077780082000003,-6.01854973769,0.224187541612,-0.182343272946,-6.01854973769,0.224187541612,-0.182343272946,-0.4553,0.40484,-1.28818,-0.4553,0.40484,-1.28818,-64.43392697280001,-0.1651047594,3.0077780082000003,-6.01854973769,0.224187541612,-0.182343272946,-0.4553,0.40484,-1.28818,-3.29504,62.605760000000004,24.00672,0.9914631137429065,17.0
5721,0,608482,-8791,224,83,-19821,587,-716,-785,698,-2221,-8791,224,83,-19821,587,-716,-785,698,-2221,-144,2048,864,17.47,0.9917295830249198,16.55,0.9907031828275352,4449.49658203125,-7309.8251953125,37.09999847412109,1,12,0.6800000071525574,12.2162504196167,3,0,0.0,0.0,0.0,0.0,72.80951728265755,0.0,0.0,109.96073880641777,0.5958128274,1.6079767872,63.1059104298,0.4055388867855072,0.6323326230049133,0.3318603932857513,-0.5705807209014893,2,44.82494303385417,-73.16375325520833,-63.105910429800005,1.6079767872000001,0.5958128274000001,-63.105910429800005,1.6079767872000001,0.5958128274000001,-6.053979921378,0.179288946766,-0.218689754488,-6.053979921378,0.179288946766,-0.218689754488,-0.4553,0.40484,-1.28818,-0.4553,0.40484,-1.28818,-63.105910429800005,1.6079767872000001,0.5958128274000001,-6.053979921378,0.179288946766,-0.218689754488,-0.4553,0.40484,-1.28818,-4.23648,60.25216,25.41888,0.9912163829262275,17.009999999999998
5722,0,608498,-8334,-27,568,-19758,519,-808,-785,698,-2221,-8334,-27,568,-19758,519,-808,-785,698,-2221,-256,2144,800,17.47,0.9907722674562052,16.54,0.9900715519368368,4449.49658203125,-7309.8251953125,37.09999847412109,1,12,0.6800000071525574,12.223750114440918,3,0,0.0,0.0,0.0,0.0,74.58629405927422,0.0,0.0,110.89795516521168,4.077369710399999,-0.1938186305999999,59.8253506452,0.3774764537811279,0.646881103515625,0.3044454455375671,-0.5885315537452698,2,44.82494303385417,-73.16375325520833,-59.825350645200004,-0.1938186306,4.0773697104,-59.825350645200004,-0.1938186306,4.0773697104,-6.034737666443999,0.15851952874199998,-0.246789555344,-6.034737666443999,0.15851952874199998,-0.246789555344,-0.4553,0.40484,-1.28818,-0.4553,0.40484,-1.28818,-59.825350645200004,-0.1938186306,4.0773697104,-6.034737666443999,0.15851952874199998,-0.246789555344,-0.4553,0.40484,-1.28818,-7.53152,63.076480000000004,23.536,0.990421909696521,17.005
5723,0,608513,-8585,211,543,-19640,312,-917,-785,698,-2221,-8585,211,543,-19640,312,-917,-785,698,-2221,16,2096,896,17.47,0.9913348137182334,16.55,0.99026893659018,4449.49658203125,-7309.8251953125,37.09999847412109,1,12,0.6800000071525574,12.22624969482422,3,0,0.0,0.0,0.0,0.0,76.21143805244844,0.0,0.0,111.60672703594156,3.8979080154,1.5146567057999998,61.627146063,0.3487778604030609,0.6603874564170837,0.2765457332134247,-0.6047849655151367,2,44.82494303385417,-73.16375325520833,-61.627146063000005,1.5146567058,3.8979080154,-61.627146063000005,1.5146567058,3.8979080154,-5.998696617519999,0.095294976816,-0.28008171070599996,-5.998696617519999,0.095294976816,-0.28008171070599996,-0.4553,0.40484,-1.28818,-0.4553,0.40484,-1.28818,-61.627146063000005,1.5146567058,3.8979080154,-5.998696617519999,0.095294976816,-0.28008171070599996,-0.4553,0.40484,-1.28818,0.47072,61.664320000000004,26.36032,0.9908018751542067,17.009999999999998
5724,0,608529,-8419,3,448,-19665,215,-920,-785,698,-2221,-8419,3,448,-19665,215,-920,-785,698,-2221,-48,2064,944,17.47,0.9910486059708856,16.54,0.9896373056994818,4449.49658203125,-7309.8251953125,37.09999847412109,1,12,0.6800000071525574,12.22624969482422,3,0,0.0,0.0,0.0,0.0,77.91791363752674,0.0,0.0,112.4190055014764,3.2159535744,0.0215354034,60.4355204082,0.3193862438201904,0.6726919412612915,0.2479677349328994,-0.6196693778038025,2,44.82494303385417,-73.16375325520833,-60.435520408200006,0.0215354034,3.2159535744000003,-60.435520408200006,0.0215354034,3.2159535744000003,-6.00633243297,0.06566801287,-0.28099800855999996,-6.00633243297,0.06566801287,-0.28099800855999996,-0.4553,0.40484,-1.28818,-0.4553,0.40484,-1.28818,-60.435520408200006,0.0215354034,3.2159535744000003,-6.00633243297,0.06566801287,-0.28099800855999996,-0.4553,0.40484,-1.28818,-1.41216,60.72288,27.77248,0.9903429558351837,17.005
5725,0,608544,-8703,616,332,-19719,107,-959,-785,698,-2221,-8703,616,332,-19719,107,-959,-785,698,-2221,-128,2176,832,17.48,0.9905452751048606,16.54,0.9897853441894892,4449.49658203125,-7309.8251953125,37.09999847412109,1,12,0.6800000071525574,12.229999542236328,3,0,0.0,0.0,0.0,0.0,79.62697193099277,0.0,0.0,113.20302320391684,2.3832513096,4.4219361648,62.4742052634,0.2892615795135498,0.6838235855102539,0.2187723219394683,-0.6331286430358887,2,44.82494303385417,-73.16375325520833,-62.4742052634,4.4219361648,2.3832513096000003,-62.4742052634,4.4219361648,2.3832513096000003,-6.022825794341999,0.032681290126,-0.29290988066199997,-6.022825794341999,0.032681290126,-0.29290988066199997,-0.4553,0.40484,-1.28818,-0.4553,0.40484,-1.28818,-62.4742052634,4.4219361648,2.3832513096000003,-6.022825794341999,0.032681290126,-0.29290988066199997,-0.4553,0.40484,-1.28818,-3.76576,64.01792,24.47744,0.9901653096471749,17.009999999999998
5726,0,608560,-7945,517,-18,-20020,-18,-903,-785,698,-2221,-7945,517,-18,-20020,-18,-903,-785,698,-2221,-64,2048,880,17.47,0.990446582778189,16.54,0.9896866518628176,4449.49658203125,-7309.8251953125,37.09999847412109,1,12,0.6800000071525574,12.231249809265137,3,0,0.0,0.0,0.0,0.0,81.31636121389303,0.0,0.0,113.98362259374107,-0.1292124204,3.7112678526,57.032926671,0.2582448124885559,0.693816602230072,0.1884833127260208,-0.645292341709137,2,44.82494303385417,-73.16375325520833,-57.032926671000006,3.7112678526000002,-0.1292124204,-57.032926671000006,3.7112678526000002,-0.1292124204,-6.11476101236,-0.005497787124,-0.275805654054,-6.11476101236,-0.005497787124,-0.275805654054,-0.4553,0.40484,-1.28818,-0.4553,0.40484,-1.28818,-57.032926671000006,3.7112678526000002,-0.1292124204,-6.11476101236,-0.005497787124,-0.275805654054,-0.4553,0.40484,-1.28818,-1.88288,60.25216,25.8896,0.9900666173205033,17.005
5727,0,608576,-7117,-321,421,-20133,-46,-918,-785,698,-2221,-7117,-321,421,-20133,-46,-918,-785,698,-2221,-160,1824,832,17.48,0.9904959289415248,16.54,0.9897853441894892,4449.49658203125,-7309.8251953125,37.09999847412109,1,12,0.6800000071525574,12.228750228881836,3,0,0.0,0.0,0.0,0.0,82.93910234796996,0.0,0.0,114.59784005355584,3.0221349438,-2.3042881638,51.0891553326,0.2264969944953918,0.7024244070053101,0.1576172858476638,-0.6560913920402527,2,44.82494303385417,-73.16375325520833,-51.0891553326,-2.3042881638,3.0221349438000003,-51.0891553326,-2.3042881638,3.0221349438000003,-6.149274898193999,-0.014049900427999999,-0.280387143324,-6.149274898193999,-0.014049900427999999,-0.280387143324,-0.4553,0.40484,-1.28818,-0.4553,0.40484,-1.28818,-51.0891553326,-2.3042881638,3.0221349438000003,-6.149274898193999,-0.014049900427999999,-0.280387143324,-0.4553,0.40484,-1.28818,-4.7072,53.66208,24.47744,0.990140636565507,17.009999999999998
5728,0,608591,-6612,-617,969,-20182,-133,-878,-785,698,-2221,-6612,-617,969,-20182,-133,-878,-785,698,-2221,-16,1632,960,17.47,0.99019985196151,16.54,0.989153713298791,4449.49658203125,-7309.8251953125,37.09999847412109,1,12,0.6800000071525574,12.228750228881836,3,0,0.0,0.0,0.0,0.0,84.6433158005509,0.0,0.0,115.2010670996566,6.955935298199999,-4.429114632599999,47.4640290936,0.1942829638719558,0.7096450924873352,0.126227393746376,-0.6653755903244019,2,44.82494303385417,-73.16375325520833,-47.464029093600004,-4.4291146326,6.9559352982,-47.464029093600004,-4.4291146326,6.9559352982,-6.164241096475999,-0.040622538193999996,-0.268169838604,-6.164241096475999,-0.040622538193999996,-0.268169838604,-0.4553,0.40484,-1.28818,-0.4553,0.40484,-1.28818,-47.464029093600004,-4.4291146326,6.9559352982,-6.164241096475999,-0.040622538193999996,-0.268169838604,-0.4553,0.40484,-1.28818,-0.47072,48.01344,28.2432,0.9896767826301505,17.005
5729,0,608607,-5182,-235,567,-20355,-178,-729,-785,698,-2221,-5182,-235,567,-20355,-178,-729,-785,698,-2221,-400,1584,848,17.48,0.9898346903528252,16.54,0.9889168517147792,4449.49658203125,-7309.8251953125,37.09999847412109,1,12,0.6800000071525574,12.220000267028809,3,0,0.0,0.0,0.0,0.0,86.38120532920526,0.0,0.0,115.77655820798196,4.0701912426,-1.686939933,37.1988201396,0.1616372615098953,0.7153715491294861,0.0940344482660293,-0.6732566356658936,2,44.82494303385417,-73.16375325520833,-37.1988201396,-1.6869399330000001,4.0701912426,-37.1988201396,-1.6869399330000001,4.0701912426,-6.21708093939,-0.054367006004,-0.222660378522,-6.21708093939,-0.054367006004,-0.222660378522,-0.4553,0.40484,-1.28818,-0.4553,0.40484,-1.28818,-37.1988201396,-1.6869399330000001,4.0701912426,-6.21708093939,-0.054367006004,-0.222660378522,-0.4553,0.40484,-1.28818,-11.768,46.60128,24.94816,0.9893757710338023,17.009999999999998
5730,0,608623,-3976,295,792,-20808,-126,-700,-756,78,-2649,-3976,295,792,-20808,-126,-700,-756,78,-2649,32,1120,992,17.48,0.9898445595854922,16.55,0.9884924747100912,4449.49658203125,-7309.8251953125,37.09999847412109,1,12,0.6800000071525574,12.21500015258789,3,0,0.0,0.0,0.0,0.0,88.12538138178046,0.0,0.0,116.1955335691884,5.685346497599999,2.117648001,28.5415879728,0.1279670000076294,0.7194978594779968,0.0608632937073707,-0.6798844933509827,2,44.82494303385417,-73.16375325520833,-28.541587972800002,2.117648001,5.6853464976,-28.541587972800002,2.117648001,5.6853464976,-6.355441915344,-0.038484509868,-0.2138028326,-6.355441915344,-0.038484509868,-0.2138028326,-0.43848,0.04524,-1.5364200000000001,-0.43848,0.04524,-1.5364200000000001,-28.541587972800002,2.117648001,5.6853464976,-6.355441915344,-0.038484509868,-0.2138028326,-0.43848,0.04524,-1.5364200000000001,0.94144,32.9504,29.18464,0.9891685171477917,17.015
5731,0,608639,-3445,-516,839,-20967,-125,-572,-756,78,-2649,-3445,-516,839,-20967,-125,-572,-756,78,-2649,32,896,1072,17.47,0.989962990377498,16.54,0.98853195164076,4449.49658203125,-7309.8251953125,37.09999847412109,1,12,0.6800000071525574,12.213749885559082,3,0,0.0,0.0,0.0,0.0,89.79442717481137,0.0,0.0,116.3965799786972,6.0227344842,-3.7040893848,24.729821571,0.0939642786979675,0.7219437956809998,0.0270906798541545,-0.6850065588951111,2,44.82494303385417,-73.16375325520833,-24.729821571000002,-3.7040893848,6.0227344842,-24.729821571000002,-3.7040893848,6.0227344842,-6.404005701606,-0.03817907725,-0.174707457496,-6.404005701606,-0.03817907725,-0.174707457496,-0.43848,0.04524,-1.5364200000000001,-0.43848,0.04524,-1.5364200000000001,-24.729821571000002,-3.7040893848,6.0227344842,-6.404005701606,-0.03817907725,-0.174707457496,-0.43848,0.04524,-1.5364200000000001,0.94144,26.36032,31.538240000000002,0.989247471009129,17.005
5732,0,608654,-2518,1383,260,-20781,-49,-472,-756,78,-2649,-2518,1383,260,-20781,-49,-472,-756,78,-2649,-16,800,960,17.48,0.9890747594374536,16.55,0.988354305452751,4449.49658203125,-7309.8251953125,37.09999847412109,1,12,0.6800000071525574,12.21875,3,0,0.0,0.0,0.0,0.0,91.55653587208732,0.0,0.0,116.63785836218985,1.866401628,9.9278209674,18.0753819204,0.0601967871189117,0.722571074962616,-0.0065777227282524,-0.6886392831802368,2,44.82494303385417,-73.16375325520833,-18.0753819204,9.9278209674,1.866401628,-18.0753819204,9.9278209674,1.866401628,-6.347195234658,-0.014966198282,-0.144164195696,-6.347195234658,-0.014966198282,-0.144164195696,-0.43848,0.04524,-1.5364200000000001,-0.43848,0.04524,-1.5364200000000001,-18.0753819204,9.9278209674,1.866401628,-6.347195234658,-0.014966198282,-0.144164195696,-0.43848,0.04524,-1.5364200000000001,-0.47072,23.536,28.2432,0.9887145324451023,17.015
5733,0,608671,-2018,-67,770,-21079,20,-494,-756,78,-2649,-2018,-67,770,-21079,20,-494,-756,78,-2649,-160,688,912,17.48,0.9891635825314582,16.55,0.9882556131260796,4449.49658203125,-7309.8251953125,37.09999847412109,1,12,0.6800000071525574,12.2162504196167,3,0,0.0,0.0,0.0,0.0,93.26346620508568,0.0,0.0,116.71571597556463,5.527420206,-0.4809573425999999,14.486148020399998,0.0257847271859645,0.7214115262031555,-0.0406793504953384,-0.6908297538757324,2,44.82494303385417,-73.16375325520833,-14.4861480204,-0.4809573426,5.527420206,-14.4861480204,-0.4809573426,5.527420206,-6.438214154822,0.0061086523599999994,-0.15088371329199998,-6.438214154822,0.0061086523599999994,-0.15088371329199998,-0.43848,0.04524,-1.5364200000000001,-0.43848,0.04524,-1.5364200000000001,-14.4861480204,-0.4809573426,5.527420206,-6.438214154822,0.0061086523599999994,-0.15088371329199998,-0.43848,0.04524,-1.5364200000000001,-4.7072,20.24096,26.83104,0.9887095978287689,17.015
5734,0,608686,-1797,-397,1278,-21066,6,-354,-756,78,-2649,-1797,-397,1278,-21066,6,-354,-756,78,-2649,-192,432,1040,17.47,0.9891931902294596,16.54,0.9877128053293855,4449.49658203125,-7309.8251953125,37.09999847412109,1,12,0.6800000071525574,12.210000038146973,3,0,0.0,0.0,0.0,0.0,94.9841769739152,0.0,0.0,116.75337871616476,9.174081848399998,-2.8498517166,12.8997066366,-0.0084374574944376,0.7185707092285156,-0.0748861581087112,-0.6913588047027588,2,44.82494303385417,-73.16375325520833,-12.899706636600001,-2.8498517166,9.1740818484,-12.899706636600001,-2.8498517166,9.1740818484,-6.434243530788,0.001832595708,-0.108123146772,-6.434243530788,0.001832595708,-0.108123146772,-0.43848,0.04524,-1.5364200000000001,-0.43848,0.04524,-1.5364200000000001,-12.899706636600001,-2.8498517166,9.1740818484,-6.434243530788,0.001832595708,-0.108123146772,-0.43848,0.04524,-1.5364200000000001,-5.64864,12.70944,30.5968,0.9884529977794225,17.005
5735,0,608701,-1274,-116,1000,-21579,85,-358,-756,78,-2649,-1274,-116,1000,-21579,85,-358,-756,78,-2649,64,320,1104,17.48,0.9888082901554404,16.54,0.9875746360720454,4449.49658203125,-7309.8251953125,37.09999847412109,1,12,0.6800000071525574,12.22249984741211,3,0,0.0,0.0,0.0,0.0,96.71899330626282,0.0,0.0,116.78189238965956,7.178467799999999,-0.8327022648,9.1453679772,-0.0434438250958919,0.7137870788574219,-0.1097513288259506,-0.6903444528579712,2,44.82494303385417,-73.16375325520833,-9.145367977200001,-0.8327022648,7.1784678,-9.145367977200001,-0.8327022648,7.1784678,-6.590930463822,0.02596177253,-0.109344877244,-6.590930463822,0.02596177253,-0.109344877244,-0.43848,0.04524,-1.5364200000000001,-0.43848,0.04524,-1.5364200000000001,-9.145367977200001,-0.8327022648,7.1784678,-6.590930463822,0.02596177253,-0.109344877244,-0.43848,0.04524,-1.5364200000000001,1.88288,9.4144,32.47968,0.988191463113743,17.009999999999998
5736,0,608717,-710,341,620,-21778,251,-324,-756,78,-2649,-710,341,620,-21778,251,-324,-756,78,-2649,48,304,1120,17.48,0.987979274611399,16.54,0.9870811744386874,4449.49658203125,-7309.8251953125,37.09999847412109,1,12,0.6800000071525574,12.220000267028809,3,0,0.0,0.0,0.0,0.0,98.57769187400945,0.0,0.0,116.88763778793968,4.450650036,2.4478575198,5.096712138,-0.0785591229796409,0.7069187164306641,-0.1447387039661407,-0.6878555417060852,2,44.82494303385417,-73.16375325520833,-5.096712138,2.4478575198,4.450650036,-5.096712138,2.4478575198,4.450650036,-6.651711554804,0.07666358711799999,-0.09896016823199999,-6.651711554804,0.07666358711799999,-0.09896016823199999,-0.43848,0.04524,-1.5364200000000001,-0.43848,0.04524,-1.5364200000000001,-5.096712138,2.4478575198,4.450650036,-6.651711554804,0.07666358711799999,-0.09896016823199999,-0.43848,0.04524,-1.5364200000000001,1.41216,8.94368,32.9504,0.9875302245250432,17.009999999999998
5737,0,608732,-390,616,822,-21516,328,-296,-756,78,-2649,-390,616,822,-21516,328,-296,-756,78,-2649,240,128,1200,17.48,0.9879397976807304,16.55,0.9874858129780408,4449.49658203125,-7309.8251953125,37.09999847412109,1,12,0.6800000071525574,12.229999542236328,3,0,0.0,0.0,0.0,0.0,100.32417354294256,0.0,0.0,116.80954699010886,5.900700531599999,4.4219361648,2.799602442,-0.112996369600296,0.6982671022415161,-0.1790011972188949,-0.6838226914405823,2,44.82494303385417,-73.16375325520833,-2.7996024420000003,4.4219361648,5.9007005316,-2.7996024420000003,4.4219361648,5.9007005316,-6.571688208887999,0.10018189870399999,-0.090408054928,-6.571688208887999,0.10018189870399999,-0.090408054928,-0.43848,0.04524,-1.5364200000000001,-0.43848,0.04524,-1.5364200000000001,-2.7996024420000003,4.4219361648,5.9007005316,-6.571688208887999,0.10018189870399999,-0.090408054928,-0.43848,0.04524,-1.5364200000000001,7.0608,3.76576,35.304,0.9877128053293855,17.015
