Loc,time,ax,ay,az,temp,pressure,alt,avalt,avaltdelta,state,wx_raw,wy_raw,wz_raw,pyro
1699584, 342640, -0.07, -1.02, -0.06, 1336.98, 102747.63, 1.00, 0.93, 0, 1, 14, 38, -9, 34
1699648, 342675, -0.07, -1.02, -0.06, 1336.78, 102745.67, 1.16, 0.93, 0, 1, 7, 51, -15, 34
1699712, 342710, -0.07, -1.02, -0.06, 1336.86, 102748.83, 0.90, 0.94, 0, 1, 9, 63, -20, 34
1699776, 342745, -0.07, -1.02, -0.06, 1336.55, 102748.94, 0.89, 0.95, 0, 1, 10, 51, -12, 34
1699840, 342775, -0.07, -1.02, -0.06, 1336.49, 102745.03, 1.21, 0.96, 0, 1, 11, 39, -14, 34
1699904, 342808, -0.07, -1.02, -0.06, 1336.55, 102750.67, 0.75, 0.98, 0, 1, 15, 30, -15, 34
1699968, 342841, -0.07, -1.02, -0.06, 1336.78, 102750.89, 0.73, 0.96, 0, 1, 12, 29, -12, 34
1700032, 342874, -0.07, -1.02, -0.06, 1336.60, 102747.94, 0.97, 0.96, 0, 1, 7, 26, -16, 34
1700096, 342906, -0.07, -1.02, -0.06, 1336.92, 102748.38, 0.94, 0.97, 0, 1, 7, 57, -21, 34
1700160, 342939, -0.07, -1.02, -0.06, 1336.89, 102747.44, 1.01, 0.97, 0, 1, 7, 70, -18, 34
1700224, 342974, -0.07, -1.02, -0.06, 1336.86, 102748.53, 0.92, 0.97, 0, 1, 5, 39, -18, 34
1700288, 343009, -0.07, -1.02, -0.06, 1336.78, 102747.42, 1.01, 0.96, 0, 1, 9, 56, -16, 34
1700352, 343044, -0.07, -1.02, -0.06, 1336.43, 102747.52, 1.01, 0.96, 0, 1, 10, 49, -15, 34
1700416, 343074, -0.07, -1.02, -0.06, 1336.43, 102749.25, 0.86, 0.97, 0, 1, 10, 40, -18, 34
1700480, 343107, -0.07, -1.02, -0.06, 1336.72, 102749.35, 0.86, 0.94, 0, 1, 13, 63, -15, 34
1700544, 343140, -0.07, -1.02, -0.06, 1336.72, 102747.89, 0.98, 0.93, 0, 1, 4, 62, -19, 34
1700608, 343173, -0.07, -1.02, -0.06, 1336.86, 102745.05, 1.21, 0.95, 0, 1, 5, 59, -17, 34
1700672, 343205, -0.07, -1.02, -0.06, 1337.09, 102745.02, 1.21, 0.97, 0, 1, 6, 57, -13, 34
1700736, 343238, -0.07, -1.02, -0.06, 1337.03, 102752.97, 0.56, 0.96, 0, 1, 9, 38, -10, 34
1700800, 343273, -0.08, -1.02, -0.06, 1337.03, 102750.94, 0.72, 0.94, 0, 1, 6, 40, -12, 34
1700864, 343308, -0.07, -1.02, -0.06, 1336.92, 102750.41, 0.77, 0.94, 0, 1, 13, 51, -14, 34
1700928, 343343, -0.08, -1.02, -0.06, 1336.69, 102747.55, 1.00, 0.93, 0, 1, 9, 60, -17, 34
1700992, 343373, -0.07, -1.02, -0.06, 1336.89, 102743.67, 1.32, 0.93, 0, 1, 4, 58, -14, 34
1701056, 343406, -0.07, -1.02, -0.06, 1336.72, 102744.71, 1.24, 0.95, 0, 1, 9, 49, -19, 34
1701120, 343441, -0.07, -1.02, -0.06, 1336.89, 102748.02, 0.96, 0.96, 0, 1, 15, 29, -18, 34
1701184, 343472, -0.07, -1.02, -0.06, 1336.86, 102746.22, 1.11, 0.95, 0, 1, 10, 39, -15, 34
1701248, 343504, -0.07, -1.02, -0.06, 1337.26, 102747.42, 1.01, 0.97, 0, 1, 8, 41, -13, 34
1701312, 343537, -0.07, -1.02, -0.06, 1337.06, 102750.71, 0.75, 0.98, 0, 1, 10, 51, -17, 34
1701376, 343572, -0.07, -1.02, -0.06, 1336.95, 102746.41, 1.10, 0.97, 0, 1, 9, 58, -17, 34
1701440, 343607, -0.07, -1.02, -0.06, 1336.83, 102748.19, 0.95, 0.98, 0, 1, 5, 53, -15, 34
1701504, 343640, -0.07, -1.02, -0.06, 1336.92, 102747.21, 1.03, 0.98, 0, 1, 12, 38, -12, 34
1701568, 343670, -0.07, -1.02, -0.06, 1336.98, 102748.78, 0.90, 0.98, 0, 1, 10, 34, -16, 34
1701632, 343703, -0.07, -1.02, -0.06, 1336.92, 102748.96, 0.89, 0.98, 0, 1, 12, 45, -13, 34
1701696, 343738, -0.07, -1.02, -0.06, 1337.01, 102745.08, 1.21, 0.97, 0, 1, 12, 56, -13, 34
1701760, 343769, -0.07, -1.02, -0.06, 1336.86, 102748.53, 0.92, 0.99, 0, 1, 7, 69, -14, 34
1701824, 343801, -0.07, -1.02, -0.06, 1337.09, 102748.21, 0.95, 0.99, 0, 1, 8, 59, -21, 34
1701888, 343836, -0.07, -1.02, -0.06, 1337.01, 102750.88, 0.73, 0.99, 0, 1, 8, 53, -18, 34
1701952, 343871, -0.07, -1.02, -0.06, 1336.60, 102747.07, 1.04, 0.97, 0, 1, 6, 47, -18, 34
1702016, 343906, -0.07, -1.02, -0.06, 1336.66, 102742.83, 1.39, 0.96, 0, 1, 6, 46, -12, 34
1702080, 343939, -0.07, -1.02, -0.06, 1336.83, 102749.92, 0.81, 1.00, 0, 1, 7, 53, -17, 34
1702144, 343969, -0.07, -1.02, -0.06, 1336.83, 102742.97, 1.38, 1.00, 0, 1, 6, 59, -16, 34
1702208, 344002, -0.07, -1.02, -0.06, 1336.92, 102745.77, 1.15, 1.03, 0, 1, 3, 54, -13, 34
1702272, 344037, -0.06, -1.02, -0.06, 1337.12, 102752.91, 0.56, 1.04, 0, 1, 9, 52, -19, 34
1702336, 344068, -0.07, -1.02, -0.06, 1337.18, 102754.49, 0.43, 1.00, 0, 1, 11, 45, -21, 34
1702400, 344100, -0.07, -1.03, -0.06, 1337.15, 102751.24, 0.70, 0.96, 0, 1, 9, 41, -18, 34
1702464, 344135, -0.07, -1.02, -0.06, 1336.86, 102745.35, 1.18, 0.95, 0, 1, 14, 52, -19, 34
1702528, 344170, -0.07, -1.02, -0.06, 1336.52, 102750.33, 0.78, 0.95, 0, 1, 12, 48, -20, 34
1702592, 344203, -0.07, -1.02, -0.06, 1336.63, 102745.10, 1.20, 0.94, 0, 1, 6, 52, -17, 34
1702656, 344236, -0.07, -1.02, -0.06, 1336.83, 102747.89, 0.98, 0.97, 0, 1, 7, 53, -14, 34
1702720, 344268, -0.07, -1.02, -0.06, 1336.75, 102743.89, 1.31, 0.96, 0, 1, 16, 44, -18, 34
1702784, 344303, -0.07, -1.02, -0.06, 1336.78, 102750.03, 0.80, 0.98, 0, 1, 10, 46, -17, 34
1702848, 344336, -0.07, -1.02, -0.06, 1336.83, 102749.35, 0.86, 0.97, 0, 1, 8, 49, -18, 34
1702912, 344367, -0.07, -1.02, -0.06, 1336.80, 102750.71, 0.75, 0.96, 0, 1, 9, 53, -17, 34
1702976, 344399, -0.07, -1.02, -0.06, 1336.83, 102749.63, 0.83, 0.96, 0, 1, 13, 53, -13, 34
1703040, 344434, -0.07, -1.02, -0.06, 1336.75, 102749.41, 0.85, 0.94, 0, 1, 12, 44, -14, 34
1703104, 344469, -0.07, -1.02, -0.06, 1336.66, 102745.44, 1.18, 0.93, 0, 1, 11, 49, -11, 34
1703168, 344502, -0.07, -1.02, -0.06, 1336.52, 102748.60, 0.92, 0.95, 0, 1, 10, 46, -16, 34
1703232, 344535, -0.07, -1.02, -0.06, 1336.75, 102747.66, 0.99, 0.95, 0, 1, 11, 48, -18, 34
1703296, 344567, -0.07, -1.02, -0.06, 1336.52, 102750.91, 0.73, 0.95, 0, 1, 11, 52, -13, 34
1703360, 344602, -0.07, -1.02, -0.06, 1336.60, 102749.10, 0.88, 0.92, 0, 1, 9, 46, -13, 34
1703424, 344635, -0.07, -1.02, -0.06, 1336.69, 102747.25, 1.03, 0.92, 0, 1, 13, 42, -15, 34
1703488, 344666, -0.07, -1.02, -0.06, 1336.69, 102746.38, 1.10, 0.90, 0, 1, 9, 49, -20, 34
1703552, 344698, -0.07, -1.02, -0.06, 1336.92, 102747.50, 1.01, 0.90, 0, 1, 8, 54, -19, 34
1703616, 344733, -0.07, -1.02, -0.06, 1336.83, 102746.74, 1.07, 0.92, 0, 1, 11, 61, -19, 34
1703680, 344768, -0.07, -1.02, -0.06, 1336.63, 102749.74, 0.82, 0.96, 0, 1, 9, 53, -13, 34
1703744, 344801, -0.07, -1.02, -0.06, 1336.63, 102744.80, 1.23, 0.96, 0, 1, 6, 44, -18, 34
1703808, 344834, -0.07, -1.02, -0.06, 1336.78, 102748.00, 0.97, 0.96, 0, 1, 9, 47, -15, 34
1703872, 344866, -0.07, -1.02, -0.06, 1336.57, 102753.39, 0.52, 0.97, 0, 1, 11, 49, -17, 34
1703936, 344901, -0.07, -1.02, -0.06, 1336.92, 102748.08, 0.96, 0.94, 0, 1, 8, 48, -13, 34
1704000, 344934, -0.07, -1.02, -0.06, 1336.75, 102745.63, 1.16, 0.94, 0, 1, 8, 66, -19, 34
1704064, 344965, -0.07, -1.02, -0.06, 1336.86, 102749.69, 0.83, 0.93, 0, 1, 6, 57, -13, 34
1704128, 344997, -0.07, -1.02, -0.06, 1337.15, 102746.60, 1.08, 0.93, 0, 1, 6, 49, -17, 34
1704192, 345032, -0.07, -1.02, -0.06, 1336.89, 102745.99, 1.13, 0.94, 0, 1, 6, 48, -16, 34
1704256, 345065, -0.07, -1.02, -0.06, 1336.63, 102744.80, 1.23, 0.96, 0, 1, 6, 46, -18, 34
1704320, 345098, -0.07, -1.02, -0.06, 1336.95, 102744.96, 1.22, 0.98, 0, 1, 7, 57, -19, 34
1704384, 345131, -0.07, -1.02, -0.06, 1337.18, 102746.94, 1.05, 1.00, 0, 1, 10, 55, -15, 34
1704448, 345165, -0.07, -1.02, -0.06, 1336.80, 102748.67, 0.91, 1.00, 0, 1, 5, 49, -17, 34
1704512, 345198, -0.07, -1.02, -0.06, 1336.75, 102745.35, 1.18, 1.00, 0, 1, 8, 54, -19, 34
1704576, 345231, -0.07, -1.02, -0.06, 1336.80, 102744.91, 1.22, 1.01, 0, 1, 11, 43, -16, 34
1704640, 345262, -0.07, -1.02, -0.06, 1336.86, 102749.69, 0.83, 1.03, 0, 1, 10, 44, -14, 34
1704704, 345294, -0.07, -1.02, -0.06, 1336.80, 102748.67, 0.91, 1.03, 0, 1, 11, 52, -15, 34
1704768, 345329, -0.07, -1.02, -0.06, 1336.98, 102749.94, 0.81, 1.02, 0, 1, 10, 37, -14, 34
1704832, 345362, -0.07, -1.02, -0.06, 1336.49, 102747.36, 1.02, 1.01, 0, 1, 15, 49, -18, 34
1704896, 345395, -0.07, -1.03, -0.06, 1336.95, 102751.05, 0.72, 1.01, 0, 1, 14, 48, -17, 34
1704960, 345427, -0.07, -1.02, -0.06, 1336.83, 102748.19, 0.95, 0.99, 0, 1, 13, 44, -16, 34
1705024, 345462, -0.07, -1.02, -0.06, 1336.83, 102750.50, 0.76, 1.00, 0, 1, 10, 49, -17, 34
1705088, 345495, -0.07, -1.02, -0.06, 1337.01, 102747.41, 1.01, 0.97, 0, 1, 14, 51, -19, 34
1705152, 345528, -0.07, -1.02, -0.06, 1336.78, 102747.42, 1.01, 0.98, 0, 1, 4, 49, -14, 34
1705216, 345561, -0.07, -1.02, -0.06, 1336.92, 102744.32, 1.27, 1.00, 0, 1, 11, 59, -15, 34
1705280, 345593, -0.07, -1.02, -0.06, 1337.06, 102748.39, 0.94, 1.02, 0, 1, 7, 46, -17, 34
1705344, 345626, -0.07, -1.02, -0.06, 1337.03, 102748.33, 0.94, 1.00, 0, 1, 8, 50, -16, 34
1705408, 345659, -0.07, -1.02, -0.06, 1336.89, 102746.28, 1.11, 1.01, 0, 1, 9, 56, -16, 34
1705472, 345692, -0.07, -1.02, -0.06, 1337.01, 102750.60, 0.75, 1.01, 0, 1, 5, 50, -20, 34
1705536, 345724, -0.07, -1.02, -0.06, 1337.03, 102746.88, 1.06, 0.99, 0, 1, 9, 59, -18, 34
1705600, 345757, -0.07, -1.02, -0.06, 1337.35, 102747.32, 1.02, 0.98, 0, 1, 9, 62, -14, 34
1705664, 345790, -0.07, -1.02, -0.06, 1337.12, 102748.85, 0.90, 0.97, 0, 1, 8, 50, -18, 34
1705728, 345825, -0.07, -1.02, -0.06, 1336.80, 102748.39, 0.94, 0.97, 0, 1, 12, 51, -16, 34
1705792, 345860, -0.07, -1.02, -0.06, 1336.80, 102748.97, 0.89, 0.97, 0, 1, 5, 47, -18, 34
1705856, 345890, -0.07, -1.02, -0.06, 1336.95, 102745.53, 1.17, 0.95, 0, 1, 11, 55, -22, 34
1705920, 345923, -0.07, -1.02, -0.06, 1337.12, 102747.39, 1.02, 0.95, 0, 1, 10, 55, -15, 34
1705984, 345956, -0.07, -1.02, -0.06, 1337.15, 102752.67, 0.58, 0.96, 0, 1, 13, 43, -11, 34
1706048, 345989, -0.07, -1.02, -0.06, 1336.92, 102745.19, 1.20, 0.94, 0, 1, 11, 51, -16, 34
1706112, 346023, -0.07, -1.02, -0.06, 1337.03, 102746.02, 1.13, 0.96, 0, 1, 8, 41, -18, 34
1706176, 346056, -0.07, -1.02, -0.06, 1336.89, 102750.05, 0.80, 0.97, 0, 1, 9, 41, -13, 34
1706240, 346089, -0.07, -1.02, -0.06, 1336.75, 102750.57, 0.76, 0.97, 0, 1, 12, 44, -14, 34
1706304, 346124, -0.07, -1.02, -0.06, 1336.63, 102749.74, 0.82, 0.96, 0, 1, 11, 49, -17, 34
1706368, 346159, -0.07, -1.02, -0.06, 1336.80, 102741.72, 1.48, 0.97, 0, 1, 11, 53, -18, 34
1706432, 346189, -0.07, -1.02, -0.06, 1336.86, 102747.08, 1.04, 0.99, 0, 1, 10, 45, -17, 34
1706496, 346222, -0.07, -1.02, -0.06, 1336.95, 102748.72, 0.91, 0.99, 0, 1, 6, 46, -15, 34
1706560, 346255, -0.07, -1.02, -0.06, 1336.72, 102748.19, 0.95, 0.97, 0, 1, 9, 45, -19, 34
1706624, 346288, -0.07, -1.02, -0.06, 1337.01, 102748.57, 0.92, 0.97, 0, 1, 5, 47, -15, 34
1706688, 346322, -0.07, -1.02, -0.06, 1337.03, 102746.02, 1.13, 0.97, 0, 1, 1, 61, -17, 34
1706752, 346355, -0.07, -1.02, -0.06, 1336.95, 102750.46, 0.77, 0.97, 0, 1, 6, 55, -15, 34
1706816, 346388, -0.07, -1.02, -0.06, 1336.86, 102746.50, 1.09, 0.97, 0, 1, 7, 53, -18, 34
1706880, 346423, -0.07, -1.02, -0.06, 1336.86, 102747.66, 0.99, 0.98, 0, 1, 4, 56, -18, 34
1706944, 346458, -0.07, -1.02, -0.06, 1336.83, 102746.44, 1.09, 0.97, 0, 1, 8, 44, -14, 34
1707008, 346488, -0.07, -1.02, -0.06, 1336.83, 102747.60, 1.00, 0.98, 0, 1, 8, 50, -18, 34
1707072, 346521, -0.07, -1.02, -0.06, 1336.98, 102746.75, 1.07, 0.99, 0, 1, 5, 56, -11, 34
1707136, 346554, -0.07, -1.02, -0.06, 1336.95, 102749.30, 0.86, 1.00, 0, 1, 7, 58, -21, 34
1707200, 346587, -0.07, -1.02, -0.06, 1337.09, 102747.03, 1.05, 0.98, 0, 1, 11, 53, -16, 34
1707264, 346621, -0.07, -1.02, -0.06, 1336.75, 102747.96, 0.97, 0.98, 0, 1, 10, 40, -20, 34
1707328, 346652, -0.07, -1.02, -0.06, 1337.03, 102752.10, 0.63, 1.00, 0, 1, 8, 46, -17, 34
1707392, 346685, -0.07, -1.02, -0.06, 1337.38, 102748.00, 0.97, 0.97, 0, 1, 9, 48, -15, 34
1707456, 346720, -0.07, -1.02, -0.06, 1336.89, 102752.96, 0.56, 0.96, 0, 1, 9, 53, -18, 34
1707520, 346750, -0.07, -1.02, -0.06, 1337.06, 102750.13, 0.79, 0.95, 0, 1, 16, 53, -19, 34
1707584, 346783, -0.07, -1.02, -0.06, 1337.29, 102748.07, 0.96, 0.95, 0, 1, 9, 50, -18, 34
1707648, 346818, -0.07, -1.02, -0.06, 1336.80, 102749.55, 0.84, 0.96, 0, 1, 14, 49, -15, 34
1707712, 346851, -0.07, -1.02, -0.06, 1337.12, 102752.03, 0.63, 0.93, 0, 1, 7, 40, -18, 34
1707776, 346884, -0.07, -1.02, -0.06, 1337.18, 102747.52, 1.01, 0.91, 0, 1, 11, 40, -21, 34
1707840, 346916, -0.07, -1.02, -0.06, 1337.09, 102747.63, 1.00, 0.91, 0, 1, 6, 47, -16, 34
1707904, 346949, -0.07, -1.02, -0.06, 1337.35, 102750.22, 0.78, 0.92, 0, 1, 11, 47, -14, 34
1707968, 346984, -0.07, -1.02, -0.06, 1337.01, 102745.66, 1.16, 0.91, 0, 1, 11, 48, -16, 34
1708032, 347019, -0.07, -1.02, -0.06, 1336.63, 102746.25, 1.11, 0.91, 0, 1, 9, 43, -12, 34
1708096, 347052, -0.07, -1.02, -0.06, 1337.18, 102751.58, 0.67, 0.93, 0, 1, 9, 50, -18, 34
1708160, 347082, -0.07, -1.02, -0.06, 1336.83, 102744.41, 1.26, 0.91, 0, 1, 13, 55, -16, 34
1708224, 347115, -0.07, -1.02, -0.06, 1337.24, 102747.07, 1.04, 0.92, 0, 1, 11, 48, -17, 34
1708288, 347150, -0.07, -1.02, -0.06, 1336.98, 102746.75, 1.07, 0.92, 0, 1, 7, 54, -18, 34
1708352, 347181, -0.07, -1.02, -0.06, 1337.38, 102747.71, 0.99, 0.92, 0, 1, 5, 56, -15, 34
1708416, 347213, -0.07, -1.02, -0.06, 1337.55, 102748.08, 0.96, 0.92, 0, 1, 10, 49, -13, 34
1708480, 347248, -0.07, -1.02, -0.06, 1337.06, 102746.07, 1.13, 0.92, 0, 1, 6, 60, -15, 34
1708544, 347283, -0.07, -1.02, -0.06, 1336.89, 102746.58, 1.08, 0.93, 0, 1, 7, 54, -17, 34
1708608, 347318, -0.07, -1.02, -0.06, 1336.72, 102749.05, 0.88, 0.93, 0, 1, 8, 58, -19, 34
1708672, 347351, -0.07, -1.02, -0.06, 1336.83, 102744.99, 1.21, 0.95, 0, 1, 8, 49, -17, 34
1708736, 347381, -0.07, -1.02, -0.06, 1337.01, 102746.53, 1.09, 0.96, 0, 1, 10, 42, -19, 34
1708800, 347416, -0.07, -1.02, -0.06, 1337.29, 102748.07, 0.96, 0.98, 0, 1, 3, 56, -18, 34
1708864, 347449, -0.07, -1.02, -0.06, 1337.24, 102748.52, 0.92, 0.99, 0, 1, 9, 53, -17, 34
1708928, 347480, -0.07, -1.02, -0.06, 1337.35, 102747.89, 0.98, 0.99, 0, 1, 11, 58, -16, 34
1708992, 347512, -0.07, -1.02, -0.06, 1337.52, 102749.21, 0.87, 1.00, 0, 1, 13, 55, -20, 34
1709056, 347547, -0.07, -1.02, -0.06, 1337.06, 102744.03, 1.29, 1.01, 0, 1, 9, 33, -16, 34
1709120, 347582, -0.07, -1.02, -0.06, 1337.09, 102747.33, 1.02, 1.02, 0, 1, 11, 41, -16, 34
1709184, 347615, -0.07, -1.02, -0.06, 1337.06, 102749.27, 0.86, 1.02, 0, 1, 11, 43, -14, 34
1709248, 347648, -0.07, -1.02, -0.06, 1337.24, 102747.36, 1.02, 1.03, 0, 1, 12, 45, -19, 34
1709312, 347680, -0.07, -1.02, -0.06, 1337.21, 102752.53, 0.59, 1.02, 0, 1, 8, 59, -21, 34
1709376, 347715, -0.07, -1.02, -0.06, 1337.26, 102747.71, 0.99, 1.00, 0, 1, 8, 51, -11, 34
1709440, 347748, -0.07, -1.02, -0.06, 1337.06, 102744.63, 1.24, 1.01, 0, 1, 13, 42, -12, 34
1709504, 347779, -0.07, -1.02, -0.06, 1337.32, 102746.67, 1.08, 1.01, 0, 1, 11, 36, -15, 34
1709568, 347811, -0.07, -1.02, -0.06, 1337.41, 102749.24, 0.86, 1.01, 0, 1, 10, 45, -16, 34
1709632, 347846, -0.07, -1.02, -0.06, 1337.18, 102747.52, 1.01, 1.00, 0, 1, 10, 54, -18, 34
1709696, 347879, -0.07, -1.02, -0.06, 1337.12, 102750.30, 0.78, 1.00, 0, 1, 7, 59, -16, 34
1709760, 347912, -0.07, -1.02, -0.06, 1337.03, 102750.36, 0.77, 0.99, 0, 1, 9, 59, -20, 34
1709824, 347944, -0.07, -1.02, -0.06, 1337.24, 102747.94, 0.97, 0.98, 0, 1, 7, 45, -16, 34
1709888, 347979, -0.07, -1.02, -0.06, 1337.52, 102745.72, 1.15, 0.97, 0, 1, 9, 43, -16, 34
1709952, 348012, -0.07, -1.02, -0.06, 1337.21, 102746.74, 1.07, 0.98, 0, 1, 11, 45, -16, 34
1710016, 348045, -0.07, -1.02, -0.06, 1337.35, 102750.22, 0.78, 0.98, 0, 1, 15, 47, -15, 34
1710080, 348076, -0.07, -1.02, -0.06, 1337.32, 102751.03, 0.72, 0.96, 0, 1, 9, 52, -19, 34
1710144, 348108, -0.07, -1.02, -0.06, 1337.64, 102749.17, 0.87, 0.95, 0, 1, 6, 58, -12, 34
1710208, 348143, -0.07, -1.02, -0.06, 1337.12, 102745.96, 1.13, 0.95, 0, 1, 11, 51, -17, 34
1710272, 348176, -0.07, -1.02, -0.06, 1337.01, 102747.69, 0.99, 0.95, 0, 1, 11, 41, -13, 34
1710336, 348209, -0.07, -1.02, -0.06, 1337.52, 102746.88, 1.06, 0.96, 0, 1, 5, 44, -13, 34
1710400, 348241, -0.07, -1.02, -0.06, 1337.18, 102748.10, 0.96, 0.95, 0, 1, 9, 46, -17, 34
1710464, 348276, -0.07, -1.02, -0.06, 1337.32, 102746.97, 1.05, 0.95, 0, 1, 12, 48, -13, 34
1710528, 348309, -0.07, -1.02, -0.06, 1337.35, 102747.32, 1.02, 0.96, 0, 1, 7, 58, -17, 34
1710592, 348342, -0.07, -1.02, -0.06, 1337.12, 102750.60, 0.75, 0.96, 0, 1, 13, 62, -19, 34
1710656, 348375, -0.07, -1.02, -0.06, 1337.18, 102749.25, 0.86, 0.96, 0, 1, 5, 48, -17, 34
1710720, 348409, -0.07, -1.02, -0.06, 1337.47, 102750.80, 0.74, 0.96, 0, 1, 9, 46, -14, 34
1710784, 348442, -0.07, -1.02, -0.06, 1337.35, 102746.44, 1.09, 0.93, 0, 1, 8, 51, -15, 34
1710848, 348475, -0.07, -1.02, -0.06, 1337.26, 102751.47, 0.68, 0.93, 0, 1, 10, 48, -19, 34
1710912, 348506, -0.07, -1.02, -0.06, 1337.47, 102750.50, 0.76, 0.92, 0, 1, 7, 62, -19, 34
1710976, 348538, -0.07, -1.02, -0.06, 1337.49, 102746.50, 1.09, 0.91, 0, 1, 7, 62, -17, 34
1711040, 348571, -0.06, -1.02, -0.06, 1337.64, 102748.60, 0.92, 0.93, 0, 1, 10, 49, -20, 34
1711104, 348604, -0.07, -1.02, -0.06, 1337.49, 102750.86, 0.73, 0.93, 0, 1, 11, 50, -13, 34
1711168, 348637, -0.07, -1.02, -0.06, 1337.29, 102751.83, 0.65, 0.92, 0, 1, 12, 46, -15, 34
1711232, 348669, -0.07, -1.02, -0.06, 1337.64, 102748.30, 0.94, 0.90, 0, 1, 12, 49, -16, 34
1711296, 348702, -0.07, -1.02, -0.06, 1337.67, 102753.30, 0.53, 0.89, 0, 1, 9, 59, -22, 34
1711360, 348735, -0.07, -1.02, -0.06, 1337.61, 102745.60, 1.17, 0.88, 0, 1, 12, 51, -15, 34
1711424, 348770, -0.07, -1.02, -0.06, 1337.47, 102746.74, 1.07, 0.90, 0, 1, 12, 48, -16, 34
1711488, 348805, -0.07, -1.02, -0.06, 1337.35, 102749.92, 0.81, 0.91, 0, 1, 12, 45, -14, 34
1711552, 348835, -0.07, -1.02, -0.06, 1337.67, 102747.22, 1.03, 0.89, 0, 1, 14, 41, -15, 34
1711616, 348868, -0.07, -1.02, -0.06, 1337.35, 102745.86, 1.14, 0.90, 0, 1, 11, 50, -19, 34
1711680, 348901, -0.07, -1.02, -0.06, 1337.41, 102748.66, 0.91, 0.90, 0, 1, 13, 52, -18, 34
1711744, 348934, -0.07, -1.02, -0.06, 1337.55, 102750.99, 0.72, 0.90, 0, 1, 12, 53, -16, 34
1711808, 348968, -0.07, -1.02, -0.06, 1337.24, 102745.33, 1.19, 0.88, 0, 1, 9, 53, -15, 34
1711872, 348999, -0.07, -1.02, -0.06, 1337.75, 102748.28, 0.94, 0.89, 0, 1, 10, 38, -21, 34
1711936, 349032, -0.08, -1.02, -0.06, 1337.52, 102746.02, 1.13, 0.90, 0, 1, 14, 39, -18, 34
1712000, 349065, -0.07, -1.02, -0.06, 1337.44, 102751.61, 0.67, 0.91, 0, 1, 11, 52, -16, 34
1712064, 349097, -0.07, -1.02, -0.06, 1337.64, 102744.53, 1.25, 0.91, 0, 1, 12, 47, -19, 34
1712128, 349130, -0.07, -1.02, -0.06, 1337.90, 102747.42, 1.01, 0.92, 0, 1, 11, 63, -20, 34
1712192, 349163, -0.06, -1.02, -0.06, 1337.64, 102747.72, 0.99, 0.93, 0, 1, 7, 59, -16, 34
1712256, 349198, -0.07, -1.02, -0.06, 1337.67, 102749.24, 0.86, 0.94, 0, 1, 9, 54, -12, 34
1712320, 349233, -0.07, -1.02, -0.06, 1337.47, 102747.03, 1.05, 0.93, 0, 1, 12, 52, -17, 34
1712384, 349263, -0.07, -1.02, -0.06, 1337.78, 102749.21, 0.87, 0.94, 0, 1, 13, 44, -20, 34
1712448, 349296, -0.07, -1.02, -0.06, 1337.47, 102746.74, 1.07, 0.95, 0, 1, 6, 51, -17, 34
1712512, 349329, -0.07, -1.02, -0.06, 1337.61, 102747.05, 1.04, 0.97, 0, 1, 9, 55, -17, 34
1712576, 349364, -0.07, -1.02, -0.06, 1337.87, 102750.85, 0.73, 0.97, 0, 1, 11, 46, -12, 34
1712640, 349394, -0.07, -1.02, -0.06, 1337.87, 102747.36, 1.02, 0.98, 0, 1, 8, 52, -13, 34
1712704, 349427, -0.07, -1.02, -0.06, 1337.75, 102745.97, 1.13, 0.98, 0, 1, 11, 43, -14, 34
1712768, 349462, -0.07, -1.02, -0.06, 1337.58, 102753.08, 0.55, 0.98, 0, 1, 8, 49, -15, 34
1712832, 349497, -0.07, -1.02, -0.06, 1337.41, 102748.66, 0.91, 0.97, 0, 1, 9, 44, -15, 34
1712896, 349532, -0.07, -1.02, -0.06, 1337.44, 102744.36, 1.27, 0.96, 0, 1, 11, 44, -17, 34
1712960, 349562, -0.07, -1.02, -0.06, 1337.47, 102749.64, 0.83, 0.97, 0, 1, 7, 45, -13, 34
1713024, 349595, -0.07, -1.02, -0.06, 1337.67, 102749.24, 0.86, 0.96, 0, 1, 6, 44, -17, 34
1713088, 349628, -0.07, -1.02, -0.06, 1337.52, 102751.52, 0.68, 0.97, 0, 1, 11, 50, -17, 34
1713152, 349663, -0.07, -1.02, -0.06, 1337.35, 102750.50, 0.76, 0.94, 0, 1, 10, 53, -25, 34
1713216, 349693, -0.07, -1.02, -0.06, 1337.90, 102748.88, 0.90, 0.93, 0, 1, 13, 54, -17, 34
1713280, 349726, -0.07, -1.02, -0.06, 1337.84, 102752.53, 0.59, 0.92, 0, 1, 5, 54, -20, 34
1713344, 349761, -0.07, -1.02, -0.06, 1337.84, 102751.67, 0.67, 0.92, 0, 1, 8, 51, -17, 34
1713408, 349796, -0.07, -1.02, -0.06, 1337.24, 102748.22, 0.95, 0.89, 0, 1, 9, 51, -15, 34
1713472, 349829, -0.07, -1.02, -0.06, 1337.47, 102744.41, 1.26, 0.89, 0, 1, 9, 54, -20, 34
1713536, 349859, -0.07, -1.02, -0.06, 1337.32, 102746.10, 1.12, 0.90, 0, 1, 4, 51, -19, 34
1713600, 349892, -0.07, -1.02, -0.06, 1337.69, 102749.02, 0.88, 0.91, 0, 1, 11, 47, -21, 34
1713664, 349927, -0.07, -1.02, -0.06, 1337.55, 102748.08, 0.96, 0.90, 0, 1, 7, 55, -18, 34
1713728, 349958, -0.07, -1.02, -0.06, 1337.78, 102748.05, 0.96, 0.91, 0, 1, 8, 55, -10, 34
1713792, 349990, -0.07, -1.02, -0.06, 1337.69, 102746.69, 1.08, 0.90, 0, 1, 6, 46, -13, 34
1713856, 350025, -0.06, -1.02, -0.06, 1337.52, 102744.27, 1.27, 0.91, 0, 1, 6, 45, -15, 34
1713920, 350060, -0.07, -1.02, -0.06, 1337.64, 102751.78, 0.66, 0.93, 0, 1, 11, 45, -18, 34
1713984, 350093, -0.07, -1.02, -0.06, 1337.55, 102749.25, 0.86, 0.91, 0, 1, 10, 46, -14, 34
1714048, 350126, -0.07, -1.02, -0.06, 1337.61, 102746.17, 1.12, 0.90, 0, 1, 6, 52, -18, 34
1714112, 350158, -0.07, -1.02, -0.06, 1337.64, 102746.27, 1.11, 0.93, 0, 1, 11, 47, -12, 34
1714176, 350193, -0.07, -1.02, -0.06, 1337.72, 102748.22, 0.95, 0.94, 0, 1, 13, 47, -21, 34
1714240, 350226, -0.07, -1.02, -0.06, 1337.75, 102746.55, 1.09, 0.92, 0, 1, 13, 46, -18, 34
1714304, 350259, -0.07, -1.02, -0.06, 1337.41, 102750.99, 0.72, 0.94, 0, 1, 10, 51, -20, 34
1714368, 350289, -0.07, -1.02, -0.06, 1337.92, 102749.00, 0.89, 0.93, 0, 1, 11, 52, -16, 34
1714432, 350322, -0.07, -1.02, -0.06, 1338.15, 102751.52, 0.68, 0.94, 0, 1, 8, 41, -18, 34
1714496, 350357, -0.07, -1.02, -0.06, 1337.55, 102750.11, 0.79, 0.94, 0, 1, 12, 48, -15, 34
1714560, 350390, -0.07, -1.02, -0.06, 1337.72, 102750.85, 0.73, 0.93, 0, 1, 14, 44, -22, 34
1714624, 350423, -0.07, -1.02, -0.06, 1337.78, 102746.88, 1.06, 0.94, 0, 1, 8, 49, -20, 34
1714688, 350455, -0.07, -1.02, -0.06, 1337.69, 102749.60, 0.83, 0.96, 0, 1, 8, 52, -20, 34
1714752, 350490, -0.07, -1.02, -0.06, 1337.78, 102745.42, 1.18, 0.95, 0, 1, 8, 48, -18, 34
1714816, 350523, -0.07, -1.02, -0.06, 1337.87, 102744.46, 1.26, 0.95, 0, 1, 9, 48, -12, 34
1714880, 350554, -0.07, -1.02, -0.06, 1337.75, 102748.00, 0.97, 0.95, 0, 1, 9, 47, -14, 34
1714944, 350586, -0.06, -1.02, -0.06, 1337.87, 102747.64, 1.00, 0.96, 0, 1, 10, 53, -15, 34
1715008, 350621, -0.07, -1.02, -0.06, 1337.64, 102745.11, 1.20, 0.96, 0, 1, 4, 52, -17, 34
1715072, 350654, -0.07, -1.02, -0.06, 1337.92, 102745.52, 1.17, 0.97, 0, 1, 7, 59, -15, 34
1715136, 350687, -0.07, -1.02, -0.06, 1337.95, 102747.03, 1.05, 0.98, 0, 1, 7, 55, -16, 34
1715200, 350720, -0.07, -1.02, -0.06, 1338.01, 102744.52, 1.25, 0.97, 0, 1, 8, 56, -16, 34
1715264, 350754, -0.07, -1.02, -0.06, 1337.81, 102748.97, 0.89, 1.00, 0, 1, 6, 51, -15, 34
1715328, 350787, -0.07, -1.02, -0.06, 1337.87, 102752.88, 0.57, 1.00, 0, 1, 9, 49, -17, 34
1715392, 350820, -0.07, -1.02, -0.06, 1337.64, 102744.53, 1.25, 0.97, 0, 1, 11, 44, -12, 34
1715456, 350851, -0.07, -1.02, -0.06, 1338.13, 102747.96, 0.97, 0.98, 0, 1, 11, 48, -13, 34
1715520, 350883, -0.08, -1.02, -0.06, 1338.10, 102749.92, 0.81, 0.98, 0, 1, 12, 49, -13, 34
1715584, 350918, -0.07, -1.02, -0.06, 1338.15, 102745.44, 1.18, 0.96, 0, 1, 12, 50, -16, 34
1715648, 350951, -0.07, -1.02, -0.06, 1337.78, 102747.75, 0.99, 0.99, 0, 1, 11, 53, -20, 34
1715712, 350984, -0.07, -1.02, -0.06, 1337.98, 102745.91, 1.14, 0.99, 0, 1, 15, 40, -17, 34
1715776, 351016, -0.07, -1.02, -0.06, 1337.90, 102747.71, 0.99, 1.01, 0, 1, 13, 43, -14, 34
1715840, 351051, -0.07, -1.02, -0.06, 1337.84, 102747.89, 0.98, 1.02, 0, 1, 12, 44, -16, 34
1715904, 351084, -0.07, -1.02, -0.06, 1337.98, 102748.82, 0.90, 1.04, 0, 1, 13, 44, -18, 34
1715968, 351117, -0.07, -1.02, -0.06, 1338.10, 102743.25, 1.36, 1.03, 0, 1, 8, 50, -19, 34
1716032, 351150, -0.07, -1.02, -0.06, 1338.04, 102749.53, 0.84, 1.05, 0, 1, 5, 52, -14, 34
1716096, 351182, -0.07, -1.02, -0.06, 1338.27, 102748.91, 0.89, 1.04, 0, 1, 10, 49, -14, 34
1716160, 351215, -0.07, -1.02, -0.06, 1338.07, 102746.99, 1.05, 1.02, 0, 1, 9, 48, -15, 34
1716224, 351248, -0.07, -1.02, -0.06, 1338.07, 102745.83, 1.14, 1.02, 0, 1, 7, 46, -17, 34
1716288, 351281, -0.07, -1.02, -0.06, 1338.07, 102741.47, 1.50, 1.03, 0, 1, 6, 52, -15, 34
1716352, 351313, -0.07, -1.02, -0.06, 1338.15, 102746.60, 1.08, 1.05, 0, 1, 9, 53, -18, 34
1716416, 351348, -0.07, -1.02, -0.06, 1338.04, 102746.05, 1.13, 1.04, 0, 1, 7, 53, -14, 34
1716480, 351381, -0.07, -1.02, -0.06, 1337.81, 102743.46, 1.34, 1.04, 0, 1, 4, 52, -13, 34
1716544, 351414, -0.07, -1.02, -0.06, 1338.10, 102744.13, 1.28, 1.05, 0, 1, 7, 52, -20, 34
1716608, 351447, -0.07, -1.02, -0.06, 1338.07, 102745.53, 1.17, 1.07, 0, 1, 4, 54, -16, 34
1716672, 351481, -0.07, -1.02, -0.06, 1338.18, 102747.82, 0.98, 1.10, 0, 1, 8, 51, -23, 34
1716736, 351514, -0.07, -1.02, -0.06, 1338.10, 102748.19, 0.95, 1.09, 0, 1, 11, 49, -19, 34
1716800, 351547, -0.07, -1.02, -0.06, 1338.24, 102748.27, 0.94, 1.08, 0, 1, 12, 49, -20, 34
1716864, 351582, -0.07, -1.02, -0.06, 1337.78, 102748.05, 0.96, 1.09, 0, 1, 9, 43, -21, 34
1716928, 351617, -0.07, -1.02, -0.06, 1337.92, 102744.94, 1.22, 1.08, 0, 1, 10, 49, -13, 34
1716992, 351647, -0.07, -1.02, -0.06, 1338.10, 102751.67, 0.67, 1.09, 0, 1, 8, 53, -22, 34
1717056, 351680, -0.07, -1.02, -0.06, 1337.92, 102746.97, 1.05, 1.07, 0, 1, 12, 46, -23, 34
1717120, 351713, -0.07, -1.02, -0.06, 1337.92, 102746.97, 1.05, 1.07, 0, 1, 11, 45, -17, 34
1717184, 351746, -0.07, -1.02, -0.06, 1337.98, 102750.27, 0.78, 1.08, 0, 1, 9, 40, -16, 34
1717248, 351778, -0.07, -1.02, -0.06, 1338.18, 102745.78, 1.15, 1.07, 0, 1, 7, 43, -15, 34
1717312, 351811, -0.07, -1.02, -0.06, 1337.92, 102748.71, 0.91, 1.06, 0, 1, 10, 52, -17, 34
1717376, 351846, -0.07, -1.02, -0.06, 1338.21, 102749.35, 0.86, 1.06, 0, 1, 14, 44, -16, 34
1717440, 351881, -0.07, -1.02, -0.06, 1337.90, 102746.85, 1.06, 1.06, 0, 1, 10, 55, -14, 34
1717504, 351911, -0.07, -1.02, -0.06, 1338.41, 102744.85, 1.23, 1.06, 0, 1, 8, 52, -15, 34
1717568, 351944, -0.07, -1.02, -0.06, 1338.30, 102748.10, 0.96, 1.07, 0, 1, 12, 46, -12, 34
1717632, 351977, -0.07, -1.02, -0.06, 1338.38, 102747.42, 1.01, 1.04, 0, 1, 7, 54, -15, 34
1717696, 352012, -0.07, -1.02, -0.06, 1337.72, 102745.33, 1.19, 1.04, 0, 1, 7, 58, -14, 34
1717760, 352047, -0.07, -1.02, -0.06, 1338.10, 102746.46, 1.09, 1.04, 0, 1, 5, 53, -18, 34
1717824, 352077, -0.07, -1.02, -0.06, 1338.47, 102751.41, 0.69, 1.03, 0, 1, 9, 50, -15, 34
1717888, 352110, -0.07, -1.02, -0.06, 1338.13, 102747.67, 0.99, 1.00, 0, 1, 8, 52, -16, 34
1717952, 352143, -0.07, -1.02, -0.06, 1338.36, 102745.63, 1.16, 0.99, 0, 1, 11, 52, -19, 34
1718016, 352176, -0.07, -1.02, -0.06, 1338.33, 102745.53, 1.17, 1.00, 0, 1, 13, 51, -20, 34
1718080, 352208, -0.07, -1.02, -0.06, 1338.30, 102744.63, 1.24, 1.01, 0, 1, 12, 52, -24, 34
1718144, 352241, -0.07, -1.02, -0.06, 1338.47, 102751.41, 0.69, 1.02, 0, 1, 11, 46, -20, 34
1718208, 352276, -0.07, -1.02, -0.06, 1338.27, 102745.42, 1.18, 1.01, 0, 1, 7, 45, -13, 34
1718272, 352311, -0.07, -1.02, -0.06, 1338.07, 102745.24, 1.19, 1.01, 0, 1, 2, 46, -16, 34
1718336, 352346, -0.07, -1.02, -0.06, 1338.15, 102751.52, 0.68, 1.03, 0, 1, 11, 48, -13, 34
1718400, 352376, -0.07, -1.02, -0.06, 1338.36, 102752.28, 0.62, 1.01, 0, 1, 9, 49, -12, 34
1718464, 352409, -0.07, -1.02, -0.06, 1338.36, 102748.24, 0.95, 0.99, 0, 1, 7, 45, -12, 34
1718528, 352444, -0.06, -1.02, -0.06, 1338.15, 102746.30, 1.11, 1.00, 0, 1, 10, 52, -12, 34
1718592, 352475, -0.07, -1.02, -0.06, 1338.21, 102750.22, 0.78, 1.00, 0, 1, 15, 46, -12, 34
1718656, 352507, -0.07, -1.02, -0.06, 1338.44, 102746.08, 1.12, 0.99, 0, 1, 8, 44, -11, 34
1718720, 352540, -0.07, -1.02, -0.06, 1338.47, 102745.02, 1.21, 1.01, 0, 1, 6, 51, -16, 34
1718784, 352575, -0.07, -1.02, -0.06, 1338.15, 102745.44, 1.18, 1.01, 0, 1, 12, 47, -15, 34
1718848, 352610, -0.07, -1.02, -0.06, 1338.15, 102743.41, 1.34, 1.01, 0, 1, 14, 54, -11, 34
1718912, 352643, -0.07, -1.02, -0.06, 1337.87, 102748.82, 0.90, 1.03, 0, 1, 12, 51, -15, 34
1718976, 352673, -0.07, -1.02, -0.06, 1338.27, 102746.30, 1.11, 1.02, 0, 1, 6, 50, -17, 34
1719040, 352706, -0.07, -1.02, -0.06, 1338.41, 102747.47, 1.01, 1.02, 0, 1, 9, 50, -17, 34
1719104, 352741, -0.07, -1.02, -0.06, 1338.33, 102752.50, 0.60, 1.02, 0, 1, 11, 46, -20, 34
1719168, 352772, -0.07, -1.02, -0.06, 1338.56, 102753.35, 0.53, 1.01, 0, 1, 10, 52, -15, 34
1719232, 352804, -0.07, -1.02, -0.06, 1338.53, 102745.44, 1.18, 0.99, 0, 1, 6, 52, -20, 34
1719296, 352839, -0.07, -1.02, -0.06, 1338.33, 102744.08, 1.29, 0.99, 0, 1, 6, 50, -17, 34
1719360, 352874, -0.07, -1.02, -0.06, 1338.10, 102743.55, 1.33, 0.99, 0, 1, 3, 49, -18, 34
1719424, 352909, -0.07, -1.02, -0.06, 1338.10, 102746.46, 1.09, 1.00, 0, 1, 10, 51, -20, 34
1719488, 352942, -0.07, -1.02, -0.06, 1338.13, 102745.07, 1.21, 1.02, 0, 1, 9, 51, -12, 34
1719552, 352972, -0.07, -1.02, -0.06, 1338.36, 102747.36, 1.02, 1.02, 0, 1, 10, 49, -15, 34
1719616, 353005, -0.07, -1.02, -0.06, 1338.41, 102741.38, 1.51, 1.01, 0, 1, 13, 47, -19, 34
1719680, 353040, -0.07, -1.02, -0.06, 1338.50, 102743.94, 1.30, 1.05, 0, 1, 8, 41, -14, 34
1719744, 353071, -0.07, -1.02, -0.06, 1338.70, 102745.83, 1.14, 1.09, 0, 1, 13, 42, -15, 34
1719808, 353103, -0.07, -1.02, -0.06, 1338.44, 102746.36, 1.10, 1.10, 0, 1, 4, 50, -14, 34
1719872, 353138, -0.07, -1.02, -0.06, 1338.38, 102748.88, 0.90, 1.10, 0, 1, 11, 48, -16, 34
1719936, 353173, -0.07, -1.02, -0.06, 1338.27, 102745.14, 1.20, 1.10, 0, 1, 11, 49, -15, 34
1720000, 353208, -0.07, -1.02, -0.06, 1338.15, 102746.02, 1.13, 1.11, 0, 1, 9, 51, -16, 34
1720064, 353241, -0.07, -1.02, -0.06, 1338.24, 102750.30, 0.78, 1.10, 0, 1, 5, 50, -17, 34
1720128, 353271, -0.07, -1.02, -0.06, 1338.70, 102746.11, 1.12, 1.08, 0, 1, 12, 50, -17, 34
1720192, 353304, -0.07, -1.02, -0.06, 1338.36, 102745.63, 1.16, 1.07, 0, 1, 7, 50, -19, 34
1720256, 353339, -0.07, -1.02, -0.06, 1338.70, 102744.08, 1.29, 1.08, 0, 1, 9, 53, -19, 34
1720320, 353370, -0.07, -1.02, -0.06, 1338.70, 102750.75, 0.74, 1.09, 0, 1, 10, 46, -19, 34
1720384, 353402, -0.07, -1.02, -0.06, 1338.73, 102747.63, 1.00, 1.08, 0, 1, 13, 53, -16, 34
1720448, 353437, -0.07, -1.02, -0.06, 1338.67, 102750.41, 0.77, 1.10, 0, 1, 9, 54, -20, 34
1720512, 353472, -0.07, -1.02, -0.06, 1338.53, 102746.30, 1.11, 1.11, 0, 1, 8, 46, -17, 34
1720576, 353505, -0.07, -1.02, -0.06, 1337.98, 102749.10, 0.88, 1.11, 0, 1, 5, 56, -17, 34
1720640, 353538, -0.07, -1.02, -0.06, 1338.56, 102751.89, 0.65, 1.09, 0, 1, 10, 50, -17, 34
1720704, 353570, -0.07, -1.02, -0.06, 1338.27, 102747.46, 1.01, 1.05, 0, 1, 10, 41, -10, 34
1720768, 353605, -0.07, -1.02, -0.06, 1338.38, 102745.39, 1.18, 1.05, 0, 1, 10, 54, -17, 34
1720832, 353638, -0.07, -1.02, -0.06, 1338.53, 102746.88, 1.06, 1.05, 0, 1, 7, 47, -18, 34
1720896, 353669, -0.07, -1.02, -0.06, 1338.81, 102747.27, 1.03, 1.05, 0, 1, 9, 46, -15, 34
1720960, 353701, -0.07, -1.02, -0.06, 1338.67, 102741.71, 1.48, 1.03, 0, 1, 12, 49, -13, 34
1721024, 353736, -0.07, -1.02, -0.06, 1338.47, 102747.35, 1.02, 1.04, 0, 1, 11, 44, -14, 34
1721088, 353771, -0.07, -1.02, -0.06, 1338.33, 102749.30, 0.86, 1.03, 0, 1, 8, 52, -12, 34
1721152, 353804, -0.07, -1.02, -0.06, 1338.41, 102747.75, 0.99, 1.02, 0, 1, 9, 51, -13, 34
1721216, 353837, -0.07, -1.02, -0.06, 1338.24, 102746.24, 1.11, 1.02, 0, 1, 9, 44, -14, 34
1721280, 353869, -0.07, -1.02, -0.06, 1338.38, 102745.67, 1.16, 1.02, 0, 1, 8, 51, -15, 34
1721344, 353904, -0.07, -1.02, -0.06, 1338.50, 102748.58, 0.92, 1.02, 0, 1, 14, 49, -14, 34
1721408, 353937, -0.07, -1.02, -0.06, 1338.38, 102746.55, 1.09, 1.03, 0, 1, 12, 48, -14, 34
1721472, 353968, -0.07, -1.02, -0.06, 1338.59, 102746.16, 1.12, 1.02, 0, 1, 11, 51, -13, 34
1721536, 354000, -0.07, -1.02, -0.06, 1338.96, 102748.14, 0.95, 1.02, 0, 1, 12, 44, -18, 34
1721600, 354035, -0.07, -1.02, -0.06, 1338.70, 102751.33, 0.69, 1.01, 0, 1, 14, 50, -16, 34
1721664, 354070, -0.07, -1.02, -0.06, 1338.56, 102750.16, 0.79, 1.00, 0, 1, 11, 56, -16, 34
1721728, 354103, -0.07, -1.02, -0.06, 1338.93, 102753.03, 0.55, 0.99, 0, 1, 8, 52, -20, 34
1721792, 354136, -0.07, -1.02, -0.06, 1338.90, 102745.44, 1.18, 0.98, 0, 1, 7, 49, -18, 34
1721856, 354168, -0.07, -1.02, -0.06, 1338.50, 102746.25, 1.11, 0.99, 0, 1, 9, 45, -12, 34
1721920, 354203, -0.07, -1.02, -0.06, 1338.84, 102749.36, 0.86, 1.00, 0, 1, 8, 47, -11, 34
1721984, 354236, -0.07, -1.02, -0.06, 1339.02, 102744.52, 1.25, 1.01, 0, 1, 16, 56, -16, 34
1722048, 354267, -0.07, -1.02, -0.06, 1338.84, 102748.78, 0.90, 1.02, 0, 1, 12, 52, -18, 34
1722112, 354299, -0.07, -1.02, -0.06, 1338.96, 102750.17, 0.79, 1.01, 0, 1, 14, 49, -14, 34
1722176, 354334, -0.07, -1.02, -0.06, 1338.76, 102746.53, 1.09, 0.99, 0, 1, 12, 51, -11, 34
1722240, 354367, -0.07, -1.02, -0.06, 1338.70, 102747.28, 1.03, 0.99, 0, 1, 13, 42, -17, 34
1722304, 354400, -0.07, -1.02, -0.06, 1338.96, 102749.32, 0.86, 0.97, 0, 1, 12, 47, -10, 34
1722368, 354433, -0.07, -1.02, -0.06, 1338.76, 102747.41, 1.01, 0.96, 0, 1, 13, 48, -13, 34
1722432, 354467, -0.07, -1.02, -0.06, 1338.64, 102745.97, 1.13, 0.97, 0, 1, 7, 48, -18, 34
1722496, 354500, -0.07, -1.02, -0.06, 1338.79, 102745.47, 1.17, 0.98, 0, 1, 13, 52, -18, 34
1722560, 354533, -0.07, -1.02, -0.06, 1339.02, 102745.97, 1.13, 0.98, 0, 1, 11, 51, -18, 34
1722624, 354564, -0.07, -1.02, -0.06, 1339.25, 102750.57, 0.76, 0.98, 0, 1, 10, 48, -19, 34
1722688, 354596, -0.07, -1.02, -0.06, 1339.02, 102747.42, 1.01, 0.97, 0, 1, 6, 46, -21, 34
1722752, 354631, -0.07, -1.02, -0.06, 1338.76, 102750.89, 0.73, 0.97, 0, 1, 13, 44, -19, 34
1722816, 354664, -0.07, -1.02, -0.06, 1338.99, 102750.85, 0.73, 0.95, 0, 1, 11, 53, -17, 34
1722880, 354697, -0.07, -1.02, -0.06, 1338.76, 102748.86, 0.90, 0.94, 0, 1, 10, 48, -20, 34
1722944, 354729, -0.07, -1.02, -0.06, 1339.07, 102747.30, 1.03, 0.95, 0, 1, 7, 45, -19, 34
1723008, 354764, -0.07, -1.02, -0.06, 1338.93, 102749.55, 0.84, 0.96, 0, 1, 9, 53, -16, 34
1723072, 354797, -0.07, -1.02, -0.06, 1338.99, 102745.33, 1.19, 0.98, 0, 1, 10, 61, -17, 34
1723136, 354830, -0.07, -1.02, -0.06, 1338.76, 102750.89, 0.73, 0.98, 0, 1, 9, 57, -18, 34
1723200, 354863, -0.06, -1.02, -0.06, 1338.79, 102745.77, 1.15, 0.96, 0, 1, 7, 54, -11, 34
1723264, 354895, -0.07, -1.02, -0.06, 1339.04, 102748.08, 0.96, 0.97, 0, 1, 9, 41, -14, 34
1723328, 354928, -0.07, -1.02, -0.06, 1338.87, 102753.78, 0.49, 0.96, 0, 1, 7, 52, -15, 34
1723392, 354961, -0.07, -1.02, -0.06, 1338.87, 102746.53, 1.09, 0.94, 0, 1, 10, 52, -13, 34
1723456, 354994, -0.07, -1.02, -0.06, 1338.90, 102744.57, 1.25, 0.95, 0, 1, 9, 52, -12, 34
1723520, 355026, -0.07, -1.02, -0.06, 1339.25, 102745.64, 1.16, 0.96, 0, 1, 11, 51, -14, 34
1723584, 355059, -0.07, -1.02, -0.06, 1339.25, 102743.61, 1.33, 0.97, 0, 1, 10, 43, -15, 34
1723648, 355092, -0.07, -1.02, -0.06, 1339.10, 102743.02, 1.38, 0.99, 0, 1, 6, 43, -18, 34
1723712, 355125, -0.07, -1.02, -0.06, 1339.16, 102745.46, 1.18, 1.01, 0, 1, 14, 46, -15, 34
1723776, 355160, -0.07, -1.02, -0.06, 1339.16, 102747.49, 1.01, 1.01, 0, 1, 14, 47, -21, 34
1723840, 355190, -0.07, -1.02, -0.06, 1339.30, 102749.86, 0.81, 1.00, 0, 1, 14, 52, -17, 34
1723904, 355223, -0.07, -1.02, -0.06, 1338.87, 102745.96, 1.13, 0.99, 0, 1, 8, 53, -13, 34
1723968, 355256, -0.07, -1.02, -0.06, 1339.19, 102748.13, 0.96, 1.00, 0, 1, 12, 51, -16, 34
1724032, 355289, -0.07, -1.02, -0.06, 1339.16, 102747.49, 1.01, 1.00, 0, 1, 10, 48, -17, 34
1724096, 355323, -0.07, -1.02, -0.06, 1338.99, 102744.46, 1.26, 1.02, 0, 1, 10, 49, -17, 34
1724160, 355356, -0.07, -1.02, -0.06, 1339.19, 102744.94, 1.22, 1.04, 0, 1, 10, 52, -18, 34
1724224, 355389, -0.07, -1.02, -0.06, 1339.13, 102745.10, 1.20, 1.06, 0, 1, 9, 57, -18, 34
1724288, 355424, -0.07, -1.02, -0.06, 1339.02, 102746.55, 1.09, 1.07, 0, 1, 13, 51, -11, 34
1724352, 355459, -0.07, -1.02, -0.06, 1338.96, 102745.83, 1.14, 1.08, 0, 1, 9, 53, -15, 34
1724416, 355489, -0.07, -1.02, -0.06, 1339.22, 102743.85, 1.31, 1.08, 0, 1, 7, 48, -15, 34
1724480, 355522, -0.07, -1.02, -0.06, 1339.36, 102750.57, 0.76, 1.11, 0, 1, 10, 48, -19, 34
1724544, 355555, -0.07, -1.02, -0.06, 1338.99, 102743.30, 1.35, 1.09, 0, 1, 8, 52, -19, 34
1724608, 355588, -0.06, -1.02, -0.06, 1338.84, 102744.44, 1.26, 1.11, 0, 1, 5, 55, -14, 34
1724672, 355622, -0.07, -1.02, -0.06, 1339.13, 102743.94, 1.30, 1.14, 0, 1, 9, 45, -14, 34
1724736, 355655, -0.07, -1.02, -0.06, 1339.39, 102746.60, 1.08, 1.15, 0, 1, 11, 42, -17, 34
1724800, 355688, -0.07, -1.02, -0.06, 1339.53, 102747.17, 1.04, 1.15, 0, 1, 13, 39, -18, 34
1724864, 355723, -0.07, -1.02, -0.06, 1339.22, 102746.74, 1.07, 1.14, 0, 1, 12, 47, -15, 34
1724928, 355758, -0.07, -1.02, -0.06, 1338.90, 102748.05, 0.96, 1.13, 0, 1, 8, 49, -16, 34
1724992, 355788, -0.07, -1.02, -0.06, 1338.84, 102749.08, 0.88, 1.11, 0, 1, 13, 48, -18, 34
1725056, 355821, -0.07, -1.02, -0.06, 1338.90, 102744.27, 1.27, 1.09, 0, 1, 8, 50, -20, 34
1725120, 355854, -0.07, -1.02, -0.06, 1339.25, 102750.57, 0.76, 1.10, 0, 1, 10, 43, -22, 34
1725184, 355887, -0.07, -1.02, -0.06, 1339.36, 102749.99, 0.80, 1.10, 0, 1, 13, 46, -21, 34
1725248, 355919, -0.07, -1.02, -0.06, 1339.27, 102747.74, 0.99, 1.09, 0, 1, 11, 47, -17, 34
1725312, 355952, -0.07, -1.02, -0.06, 1339.25, 102748.83, 0.90, 1.09, 0, 1, 7, 51, -13, 34
1725376, 355987, -0.07, -1.02, -0.06, 1339.22, 102748.77, 0.90, 1.08, 0, 1, 8, 54, -17, 34
1725440, 356022, -0.07, -1.02, -0.06, 1338.96, 102747.28, 1.03, 1.06, 0, 1, 10, 51, -14, 34
1725504, 356057, -0.07, -1.02, -0.06, 1338.93, 102746.66, 1.08, 1.05, 0, 1, 8, 50, -15, 34
1725568, 356087, -0.07, -1.02, -0.06, 1339.22, 102748.49, 0.93, 1.05, 0, 1, 13, 52, -14, 34
1725632, 356120, -0.07, -1.02, -0.06, 1339.22, 102743.55, 1.33, 1.04, 0, 1, 7, 57, -16, 34
1725696, 356153, -0.07, -1.02, -0.06, 1339.25, 102748.83, 0.90, 1.05, 0, 1, 6, 56, -18, 34
1725760, 356186, -0.07, -1.02, -0.06, 1339.42, 102747.50, 1.01, 1.03, 0, 1, 10, 57, -16, 34
1725824, 356218, -0.07, -1.02, -0.06, 1339.02, 102750.91, 0.73, 1.04, 0, 1, 13, 50, -13, 34
1725888, 356251, -0.07, -1.02, -0.06, 1339.56, 102750.14, 0.79, 1.01, 0, 1, 7, 48, -20, 34
1725952, 356286, -0.07, -1.02, -0.06, 1339.13, 102750.91, 0.73, 0.99, 0, 1, 8, 44, -14, 34
1726016, 356321, -0.07, -1.02, -0.06, 1339.19, 102751.32, 0.69, 0.96, 0, 1, 10, 53, -17, 34
1726080, 356356, -0.07, -1.02, -0.06, 1339.27, 102745.41, 1.18, 0.94, 0, 1, 10, 52, -16, 34
1726144, 356386, -0.07, -1.02, -0.06, 1339.50, 102753.80, 0.49, 0.95, 0, 1, 11, 55, -15, 34
1726208, 356419, -0.07, -1.02, -0.06, 1339.16, 102750.96, 0.72, 0.92, 0, 1, 11, 47, -18, 34
1726272, 356454, -0.06, -1.02, -0.06, 1339.27, 102748.32, 0.94, 0.90, 0, 1, 10, 49, -21, 34
1726336, 356485, -0.07, -1.02, -0.06, 1339.45, 102749.02, 0.88, 0.91, 0, 1, 12, 45, -19, 34
1726400, 356517, -0.07, -1.02, -0.06, 1339.65, 102748.63, 0.91, 0.89, 0, 1, 13, 48, -14, 34
1726464, 356550, -0.07, -1.02, -0.06, 1339.62, 102748.57, 0.92, 0.90, 0, 1, 13, 47, -18, 34
1726528, 356585, -0.07, -1.02, -0.06, 1339.39, 102750.08, 0.80, 0.90, 0, 1, 15, 47, -13, 34
1726592, 356620, -0.07, -1.02, -0.06, 1339.25, 102746.50, 1.09, 0.89, 0, 1, 9, 50, -21, 34
1726656, 356653, -0.07, -1.02, -0.06, 1339.16, 102752.71, 0.58, 0.90, 0, 1, 8, 44, -17, 34
1726720, 356683, -0.07, -1.02, -0.06, 1339.16, 102748.64, 0.91, 0.89, 0, 1, 10, 49, -15, 34
1726784, 356716, -0.07, -1.02, -0.06, 1339.62, 102747.11, 1.04, 0.88, 0, 1, 12, 52, -18, 34
1726848, 356751, -0.07, -1.02, -0.06, 1339.39, 102747.47, 1.01, 0.88, 0, 1, 11, 56, -12, 34
1726912, 356782, -0.07, -1.02, -0.06, 1339.59, 102747.61, 1.00, 0.88, 0, 1, 8, 54, -14, 34
1726976, 356814, -0.07, -1.02, -0.06, 1339.53, 102744.86, 1.22, 0.87, 0, 1, 7, 52, -19, 34
1727040, 356849, -0.07, -1.02, -0.06, 1339.36, 102745.35, 1.18, 0.88, 0, 1, 12, 49, -18, 34
1727104, 356884, -0.07, -1.02, -0.06, 1339.59, 102750.80, 0.74, 0.89, 0, 1, 15, 53, -15, 34
1727168, 356917, -0.07, -1.02, -0.06, 1339.62, 102749.14, 0.87, 0.89, 0, 1, 10, 58, -19, 34
1727232, 356947, -0.07, -1.02, -0.06, 1339.56, 102748.69, 0.91, 0.90, 0, 1, 6, 52, -17, 34
1727296, 356980, -0.07, -1.02, -0.06, 1339.91, 102750.96, 0.72, 0.90, 0, 1, 9, 54, -18, 34
1727360, 357015, -0.07, -1.02, -0.06, 1339.70, 102744.13, 1.28, 0.91, 0, 1, 7, 50, -16, 34
1727424, 357050, -0.07, -1.02, -0.06, 1339.33, 102746.16, 1.12, 0.91, 0, 1, 12, 48, -15, 34
1727488, 357083, -0.07, -1.02, -0.06, 1339.65, 102748.05, 0.96, 0.94, 0, 1, 11, 52, -20, 34
1727552, 357113, -0.07, -1.02, -0.06, 1340.02, 102748.33, 0.94, 0.95, 0, 1, 14, 52, -18, 34
1727616, 357148, -0.07, -1.02, -0.06, 1339.68, 102743.75, 1.32, 0.95, 0, 1, 10, 45, -18, 34
1727680, 357181, -0.06, -1.02, -0.06, 1340.16, 102746.64, 1.08, 0.98, 0, 1, 12, 48, -14, 34
1727744, 357214, -0.07, -1.02, -0.06, 1339.68, 102746.94, 1.05, 0.98, 0, 1, 8, 47, -18, 34
1727808, 357244, -0.07, -1.02, -0.06, 1340.05, 102750.42, 0.77, 0.99, 0, 1, 9, 52, -15, 34
1727872, 357277, -0.07, -1.02, -0.06, 1340.05, 102749.85, 0.82, 0.99, 0, 1, 13, 48, -17, 34
1727936, 357312, -0.07, -1.02, -0.06, 1339.65, 102744.57, 1.25, 0.98, 0, 1, 9, 48, -14, 34
1728000, 357345, -0.07, -1.02, -0.06, 1339.76, 102745.97, 1.13, 1.01, 0, 1, 6, 42, -14, 34
1728064, 357378, -0.07, -1.02, -0.06, 1339.68, 102746.94, 1.05, 1.02, 0, 1, 9, 46, -15, 34
1728128, 357410, -0.07, -1.02, -0.06, 1339.73, 102741.85, 1.47, 1.02, 0, 1, 10, 49, -17, 34
1728192, 357445, -0.07, -1.02, -0.06, 1339.85, 102748.22, 0.95, 1.04, 0, 1, 10, 52, -13, 34
1728256, 357478, -0.07, -1.02, -0.06, 1339.88, 102743.64, 1.32, 1.04, 0, 1, 11, 55, -18, 34
1728320, 357509, -0.07, -1.02, -0.06, 1339.96, 102740.64, 1.57, 1.05, 0, 1, 8, 53, -21, 34
1728384, 357541, -0.07, -1.02, -0.06, 1340.05, 102744.05, 1.29, 1.07, 0, 1, 8, 46, -15, 34
1728448, 357576, -0.07, -1.02, -0.06, 1339.62, 102744.50, 1.25, 1.09, 0, 1, 7, 53, -15, 34
1728512, 357611, -0.07, -1.02, -0.06, 1339.82, 102745.25, 1.19, 1.11, 0, 1, 12, 51, -15, 34
1728576, 357644, -0.07, -1.02, -0.06, 1339.85, 102743.00, 1.38, 1.13, 0, 1, 12, 52, -19, 34
1728640, 357677, -0.07, -1.02, -0.06, 1339.88, 102752.33, 0.61, 1.16, 0, 1, 13, 53, -22, 34
1728704, 357709, -0.07, -1.02, -0.06, 1339.85, 102745.32, 1.19, 1.13, 0, 1, 9, 51, -19, 34
1728768, 357744, -0.07, -1.02, -0.06, 1339.85, 102747.64, 1.00, 1.13, 0, 1, 15, 54, -15, 34
1728832, 357777, -0.07, -1.02, -0.06, 1339.82, 102744.08, 1.29, 1.13, 0, 1, 8, 44, -18, 34
1728896, 357808, -0.07, -1.02, -0.06, 1339.99, 102741.88, 1.47, 1.15, 0, 1, 15, 48, -16, 34
1728960, 357840, -0.07, -1.02, -0.06, 1340.11, 102743.28, 1.35, 1.16, 0, 1, 10, 52, -16, 34
1729024, 357875, -0.07, -1.02, -0.06, 1340.02, 102747.17, 1.04, 1.17, 0, 1, 13, 43, -21, 34
1729088, 357908, -0.07, -1.02, -0.06, 1339.85, 102747.07, 1.04, 1.17, 0, 1, 13, 55, -18, 34
1729152, 357941, -0.07, -1.02, -0.06, 1340.25, 102748.30, 0.94, 1.18, 0, 1, 14, 46, -16, 34
1729216, 357974, -0.07, -1.02, -0.06, 1340.19, 102747.57, 1.00, 1.19, 0, 1, 8, 43, -14, 34
1729280, 358008, -0.07, -1.02, -0.06, 1340.11, 102746.75, 1.07, 1.18, 0, 1, 10, 54, -15, 34
1729344, 358041, -0.07, -1.02, -0.06, 1340.28, 102744.28, 1.27, 1.17, 0, 1, 12, 54, -14, 34
1729408, 358074, -0.07, -1.02, -0.06, 1340.34, 102747.32, 1.02, 1.18, 0, 1, 16, 54, -12, 34
1729472, 358105, -0.07, -1.03, -0.06, 1340.39, 102741.36, 1.51, 1.16, 0, 1, 11, 50, -21, 34
1729536, 358137, -0.07, -1.02, -0.06, 1340.77, 102748.05, 0.96, 1.19, 0, 1, 13, 45, -23, 34
1729600, 358172, -0.07, -1.02, -0.06, 1340.57, 102746.11, 1.12, 1.17, 0, 1, 8, 50, -17, 34
1729664, 358205, -0.07, -1.02, -0.06, 1340.37, 102744.19, 1.28, 1.15, 0, 1, 9, 51, -17, 34
1729728, 358238, -0.07, -1.03, -0.06, 1340.57, 102748.74, 0.91, 1.15, 0, 1, 7, 58, -13, 34
1729792, 358270, -0.07, -1.02, -0.06, 1340.68, 102749.00, 0.89, 1.13, 0, 1, 5, 57, -14, 34
1729856, 358305, -0.07, -1.02, -0.06, 1340.31, 102747.82, 0.98, 1.12, 0, 1, 10, 50, -19, 34
1729920, 358338, -0.07, -1.02, -0.06, 1340.51, 102746.27, 1.11, 1.10, 0, 1, 10, 44, -18, 34
1729984, 358371, -0.07, -1.02, -0.06, 1340.80, 102747.82, 0.98, 1.12, 0, 1, 10, 44, -16, 34
1730048, 358404, -0.07, -1.02, -0.06, 1340.28, 102749.50, 0.84, 1.11, 0, 1, 10, 46, -16, 34
1730112, 358436, -0.07, -1.02, -0.06, 1340.62, 102746.22, 1.11, 1.10, 0, 1, 8, 56, -20, 34
1730176, 358471, -0.07, -1.02, -0.06, 1340.62, 102744.49, 1.26, 1.10, 0, 1, 10, 58, -21, 34
1730240, 358504, -0.07, -1.02, -0.06, 1340.45, 102750.21, 0.78, 1.08, 0, 1, 9, 53, -18, 34
1730304, 358537, -0.07, -1.02, -0.06, 1340.59, 102746.17, 1.12, 1.06, 0, 1, 11, 42, -14, 34
1730368, 358569, -0.07, -1.02, -0.06, 1340.65, 102749.21, 0.87, 1.06, 0, 1, 7, 42, -14, 34
1730432, 358604, -0.07, -1.02, -0.06, 1340.54, 102742.86, 1.39, 1.05, 0, 1, 7, 50, -22, 34
1730496, 358637, -0.07, -1.02, -0.06, 1340.57, 102749.32, 0.86, 1.07, 0, 1, 10, 49, -16, 34
1730560, 358670, -0.07, -1.02, -0.06, 1340.54, 102748.10, 0.96, 1.07, 0, 1, 7, 57, -15, 34
1730624, 358703, -0.06, -1.02, -0.06, 1340.57, 102746.99, 1.05, 1.06, 0, 1, 10, 51, -15, 34
1730688, 358735, -0.07, -1.02, -0.06, 1340.68, 102745.52, 1.17, 1.05, 0, 1, 12, 45, -17, 34
1730752, 358768, -0.07, -1.02, -0.06, 1340.42, 102746.35, 1.10, 1.06, 0, 1, 6, 49, -14, 34
1730816, 358801, -0.07, -1.02, -0.06, 1340.45, 102742.38, 1.43, 1.04, 0, 1, 9, 50, -19, 34
1730880, 358834, -0.07, -1.02, -0.06, 1340.54, 102746.92, 1.05, 1.06, 0, 1, 9, 53, -16, 34
1730944, 358866, -0.07, -1.02, -0.06, 1341.03, 102748.92, 0.89, 1.06, 0, 1, 11, 50, -13, 34
1731008, 358899, -0.07, -1.02, -0.06, 1341.08, 102748.77, 0.90, 1.04, 0, 1, 12, 41, -10, 34
1731072, 358932, -0.07, -1.02, -0.06, 1340.94, 102749.27, 0.86, 1.04, 0, 1, 8, 45, -16, 34
1731136, 358967, -0.07, -1.02, -0.06, 1340.91, 102749.52, 0.84, 1.04, 0, 1, 8, 52, -19, 34
1731200, 359002, -0.07, -1.02, -0.06, 1340.82, 102742.64, 1.41, 1.03, 0, 1, 13, 57, -16, 34
1731264, 359032, -0.07, -1.02, -0.06, 1341.20, 102745.25, 1.19, 1.04, 0, 1, 11, 50, -19, 34
1731328, 359065, -0.07, -1.02, -0.06, 1340.82, 102744.38, 1.26, 1.05, 0, 1, 8, 50, -19, 34
1731392, 359098, -0.07, -1.02, -0.06, 1340.97, 102745.61, 1.16, 1.08, 0, 1, 13, 40, -17, 34
1731456, 359131, -0.07, -1.02, -0.06, 1341.14, 102746.57, 1.08, 1.08, 0, 1, 13, 40, -14, 34
1731520, 359165, -0.07, -1.02, -0.06, 1341.00, 102745.67, 1.16, 1.07, 0, 1, 11, 55, -18, 34
1731584, 359196, -0.07, -1.02, -0.06, 1341.23, 102746.21, 1.12, 1.09, 0, 1, 10, 59, -17, 34
1731648, 359229, -0.07, -1.02, -0.06, 1341.34, 102751.11, 0.71, 1.09, 0, 1, 12, 54, -17, 34
1731712, 359264, -0.07, -1.02, -0.06, 1341.43, 102747.82, 0.98, 1.08, 0, 1, 5, 50, -16, 34
1731776, 359294, -0.07, -1.02, -0.06, 1341.54, 102748.67, 0.91, 1.06, 0, 1, 11, 38, -14, 34
1731840, 359327, -0.07, -1.02, -0.06, 1341.46, 102745.85, 1.14, 1.06, 0, 1, 13, 50, -19, 34
1731904, 359360, -0.07, -1.02, -0.06, 1341.51, 102747.46, 1.01, 1.07, 0, 1, 10, 55, -13, 34
1731968, 359395, -0.07, -1.02, -0.06, 1341.28, 102746.33, 1.10, 1.07, 0, 1, 11, 58, -18, 34
1732032, 359430, -0.07, -1.02, -0.06, 1341.34, 102749.38, 0.85, 1.07, 0, 1, 10, 57, -23, 34
1732096, 359460, -0.07, -1.02, -0.06, 1341.17, 102746.64, 1.08, 1.05, 0, 1, 9, 50, -21, 34
1732160, 359493, -0.07, -1.02, -0.06, 1341.43, 102749.57, 0.84, 1.04, 0, 1, 12, 45, -18, 34
1732224, 359526, -0.07, -1.02, -0.06, 1341.31, 102742.63, 1.41, 1.03, 0, 1, 12, 46, -17, 34
1732288, 359561, -0.07, -1.02, -0.06, 1341.43, 102748.39, 0.94, 1.05, 0, 1, 10, 38, -16, 34
1732352, 359591, -0.07, -1.02, -0.06, 1341.63, 102746.85, 1.06, 1.05, 0, 1, 7, 47, -18, 34
1732416, 359624, -0.07, -1.02, -0.06, 1341.46, 102746.72, 1.07, 1.06, 0, 1, 7, 57, -13, 34
1732480, 359657, -0.07, -1.02, -0.06, 1341.48, 102744.75, 1.23, 1.07, 0, 1, 6, 48, -16, 34
1732544, 359692, -0.07, -1.02, -0.06, 1341.51, 102741.07, 1.54, 1.07, 0, 1, 9, 47, -11, 34
1732608, 359727, -0.07, -1.02, -0.06, 1341.43, 102749.27, 0.86, 1.08, 0, 1, 8, 48, -18, 34
1732672, 359757, -0.07, -1.02, -0.06, 1341.46, 102750.49, 0.76, 1.06, 0, 1, 12, 52, -17, 34
1732736, 359790, -0.07, -1.02, -0.06, 1341.31, 102748.42, 0.93, 1.04, 0, 1, 9, 54, -15, 34
1732800, 359823, -0.07, -1.02, -0.06, 1341.31, 102749.88, 0.81, 1.04, 0, 1, 7, 47, -16, 34
1732864, 359856, -0.07, -1.02, -0.06, 1341.46, 102747.30, 1.03, 1.02, 0, 1, 11, 46, -22, 34
1732928, 359888, -0.07, -1.02, -0.06, 1341.86, 102746.50, 1.09, 1.01, 0, 1, 12, 43, -15, 34
1732992, 359921, -0.07, -1.02, -0.06, 1341.66, 102746.33, 1.10, 1.03, 0, 1, 13, 46, -16, 34
1733056, 359956, -0.07, -1.02, -0.06, 1341.40, 102747.17, 1.04, 1.04, 0, 1, 9, 53, -16, 34
1733120, 359991, -0.07, -1.02, -0.06, 1341.31, 102746.97, 1.05, 1.05, 0, 1, 7, 53, -14, 34
1733184, 360026, -0.07, -1.02, -0.06, 1341.17, 102747.22, 1.03, 1.04, 0, 1, 10, 46, -16, 34
1733248, 360056, -0.07, -1.02, -0.06, 1341.31, 102747.27, 1.03, 1.04, 0, 1, 14, 43, -16, 34
1733312, 360089, -0.07, -1.02, -0.06, 1341.34, 102745.32, 1.19, 1.04, 0, 1, 13, 43, -13, 34
1733376, 360122, -0.07, -1.02, -0.06, 1341.48, 102747.66, 0.99, 1.05, 0, 1, 10, 43, -17, 34
1733440, 360155, -0.07, -1.02, -0.06, 1341.14, 102747.44, 1.01, 1.05, 0, 1, 12, 52, -16, 34
1733504, 360187, -0.07, -1.02, -0.06, 1341.60, 102745.05, 1.21, 1.06, 0, 1, 10, 60, -16, 34
1733568, 360220, -0.07, -1.02, -0.06, 1341.77, 102752.39, 0.61, 1.05, 0, 1, 9, 54, -21, 34
1733632, 360255, -0.07, -1.02, -0.07, 1341.11, 102745.64, 1.16, 1.03, 0, 1, 7, 43, -18, 34
1733696, 360290, -0.07, -1.02, -0.06, 1341.08, 102748.49, 0.93, 1.04, 0, 1, 14, 38, -18, 34
1733760, 360325, -0.07, -1.02, -0.05, 1340.91, 102748.64, 0.91, 1.03, 0, 1, 13, 40, -20, 34
1733824, 360355, -0.07, -1.02, -0.06, 1341.23, 102745.91, 1.14, 1.01, 0, 1, 8, 57, -17, 34
1733888, 360388, -0.07, -1.02, -0.06, 1341.20, 102746.13, 1.12, 0.99, 0, 1, 12, 61, -16, 34
1733952, 360421, -0.07, -1.02, -0.06, 1341.31, 102745.52, 1.17, 1.01, 0, 1, 10, 60, -22, 34
1734016, 360454, -0.07, -1.02, -0.06, 1341.20, 102742.07, 1.45, 1.03, 0, 1, 10, 51, -16, 34
1734080, 360486, -0.06, -1.02, -0.06, 1341.60, 102747.66, 0.99, 1.05, 0, 1, 10, 36, -19, 34
1734144, 360519, -0.07, -1.02, -0.05, 1341.63, 102743.08, 1.37, 1.06, 0, 1, 11, 30, -16, 34
1734208, 360554, -0.07, -1.02, -0.05, 1340.94, 102739.41, 1.67, 1.08, 0, 1, 11, 43, -13, 34
1734272, 360589, -0.07, -1.02, -0.06, 1341.05, 102746.96, 1.05, 1.11, 0, 1, 6, 70, -15, 34
1734336, 360624, -0.07, -1.02, -0.06, 1341.08, 102742.39, 1.43, 1.11, 0, 1, 8, 67, -24, 34
1734400, 360654, -0.06, -1.02, -0.07, 1341.26, 102744.52, 1.25, 1.13, 0, 1, 10, 58, -15, 34
1734464, 360687, -0.07, -1.02, -0.06, 1341.14, 102750.05, 0.80, 1.14, 0, 1, 12, 28, -10, 34
1734528, 360720, -0.07, -1.02, -0.06, 1341.28, 102743.44, 1.34, 1.12, 0, 1, 11, 26, -10, 34
1734592, 360755, -0.07, -1.02, -0.06, 1341.40, 102749.78, 0.82, 1.14, 0, 1, 13, 47, -16, 34
1734656, 360785, -0.07, -1.02, -0.06, 1341.28, 102750.11, 0.79, 1.12, 0, 1, 8, 73, -19, 34
1734720, 360818, -0.07, -1.02, -0.06, 1341.46, 102746.14, 1.12, 1.11, 0, 1, 6, 67, -19, 34
1734784, 360853, -0.06, -1.02, -0.07, 1341.34, 102752.27, 0.62, 1.12, 0, 1, 12, 50, -19, 34
1734848, 360888, -0.07, -1.02, -0.06, 1341.05, 102746.66, 1.08, 1.09, 0, 1, 13, 39, -15, 34
1734912, 360923, -0.07, -1.02, -0.06, 1341.03, 102743.99, 1.29, 1.11, 0, 1, 10, 29, -15, 34
1734976, 360953, -0.07, -1.02, -0.05, 1341.34, 102748.50, 0.92, 1.12, 0, 1, 8, 30, -15, 34
1735040, 360986, -0.07, -1.02, -0.06, 1341.28, 102747.21, 1.03, 1.12, 0, 1, 5, 65, -17, 34
1735104, 361021, -0.07, -1.02, -0.06, 1341.05, 102742.89, 1.39, 1.12, 0, 1, 9, 74, -21, 34
1735168, 361054, -0.07, -1.02, -0.06, 1341.20, 102744.38, 1.26, 1.14, 0, 1, 6, 60, -22, 34
1735232, 361084, -0.06, -1.02, -0.06, 1341.71, 102748.19, 0.95, 1.14, 0, 1, 12, 40, -21, 34
1735296, 361117, -0.07, -1.02, -0.06, 1341.34, 102742.11, 1.45, 1.13, 0, 1, 10, 35, -15, 34
1735360, 361152, -0.07, -1.02, -0.06, 1341.05, 102740.86, 1.55, 1.13, 0, 1, 11, 39, -15, 34
1735424, 361187, -0.07, -1.02, -0.06, 1341.17, 102744.03, 1.29, 1.16, 0, 1, 5, 61, -18, 34
1735488, 361220, -0.07, -1.02, -0.06, 1341.37, 102750.00, 0.80, 1.16, 0, 1, 7, 71, -18, 34
1735552, 361250, -0.07, -1.02, -0.06, 1341.37, 102743.92, 1.30, 1.11, 0, 1, 6, 59, -19, 34
1735616, 361283, -0.06, -1.02, -0.07, 1341.48, 102748.53, 0.92, 1.12, 0, 1, 6, 50, -13, 34
1735680, 361318, -0.07, -1.02, -0.06, 1341.48, 102744.17, 1.28, 1.10, 0, 1, 9, 37, -12, 34
1735744, 361349, -0.07, -1.02, -0.06, 1341.48, 102748.24, 0.95, 1.10, 0, 1, 11, 32, -16, 34
1735808, 361381, -0.07, -1.02, -0.06, 1341.43, 102740.57, 1.58, 1.11, 0, 1, 12, 58, -16, 34
1735872, 361416, -0.07, -1.02, -0.06, 1341.17, 102747.80, 0.98, 1.12, 0, 1, 9, 56, -17, 34
1735936, 361451, -0.07, -1.02, -0.06, 1340.88, 102750.03, 0.80, 1.13, 0, 1, 7, 55, -20, 34
1736000, 361486, -0.07, -1.02, -0.06, 1340.82, 102744.38, 1.26, 1.13, 0, 1, 6, 53, -19, 34
1736064, 361519, -0.07, -1.02, -0.06, 1341.34, 102742.11, 1.45, 1.14, 0, 1, 13, 37, -14, 34
1736128, 361549, -0.07, -1.02, -0.06, 1341.26, 102747.42, 1.01, 1.18, 0, 1, 13, 43, -16, 34
1736192, 361582, -0.07, -1.02, -0.06, 1341.43, 102746.08, 1.12, 1.17, 0, 1, 10, 52, -18, 34
1736256, 361617, -0.07, -1.02, -0.06, 1341.26, 102748.88, 0.90, 1.17, 0, 1, 10, 58, -17, 34
1736320, 361648, -0.07, -1.02, -0.06, 1341.17, 102746.35, 1.10, 1.16, 0, 1, 11, 55, -21, 34
1736384, 361680, -0.07, -1.02, -0.06, 1341.46, 102746.14, 1.12, 1.17, 0, 1, 13, 51, -16, 34
1736448, 361715, -0.07, -1.03, -0.06, 1341.00, 102747.41, 1.01, 1.15, 0, 1, 13, 45, -16, 34
1736512, 361750, -0.07, -1.02, -0.06, 1341.40, 102747.47, 1.01, 1.14, 0, 1, 12, 48, -16, 34
1736576, 361785, -0.07, -1.02, -0.06, 1341.11, 102748.25, 0.95, 1.15, 0, 1, 6, 49, -17, 34
1736640, 361818, -0.07, -1.02, -0.06, 1341.34, 102745.32, 1.19, 1.12, 0, 1, 6, 53, -15, 34
1736704, 361848, -0.07, -1.02, -0.06, 1341.60, 102744.75, 1.23, 1.10, 0, 1, 7, 55, -16, 34
1736768, 361883, -0.07, -1.02, -0.06, 1341.34, 102747.92, 0.97, 1.10, 0, 1, 13, 54, -14, 34
1736832, 361916, -0.07, -1.02, -0.06, 1341.08, 102747.33, 1.02, 1.11, 0, 1, 12, 45, -22, 34
1736896, 361949, -0.07, -1.02, -0.06, 1341.11, 102745.94, 1.14, 1.09, 0, 1, 9, 41, -18, 34
1736960, 361981, -0.07, -1.02, -0.06, 1341.17, 102748.96, 0.89, 1.10, 0, 1, 9, 54, -14, 34
1737024, 362014, -0.07, -1.02, -0.06, 1341.26, 102742.78, 1.40, 1.08, 0, 1, 7, 61, -17, 34
1737088, 362049, -0.07, -1.02, -0.06, 1341.17, 102744.61, 1.24, 1.11, 0, 1, 9, 56, -20, 34
1737152, 362082, -0.07, -1.02, -0.06, 1341.28, 102749.52, 0.84, 1.09, 0, 1, 9, 57, -15, 34
1737216, 362113, -0.07, -1.02, -0.06, 1341.46, 102747.30, 1.03, 1.08, 0, 1, 6, 42, -18, 34
1737280, 362145, -0.07, -1.02, -0.06, 1341.31, 102745.24, 1.19, 1.09, 0, 1, 6, 48, -19, 34
1737344, 362180, -0.07, -1.02, -0.06, 1341.51, 102746.00, 1.13, 1.09, 0, 1, 14, 51, -19, 34
1737408, 362215, -0.07, -1.02, -0.06, 1341.51, 102748.33, 0.94, 1.07, 0, 1, 5, 56, -18, 34
1737472, 362248, -0.06, -1.02, -0.06, 1340.97, 102748.50, 0.92, 1.07, 0, 1, 7, 61, -15, 34
1737536, 362280, -0.06, -1.02, -0.06, 1341.26, 102747.14, 1.04, 1.06, 0, 1, 12, 54, -15, 34
1737600, 362313, -0.07, -1.02, -0.06, 1341.37, 102750.30, 0.78, 1.07, 0, 1, 14, 42, -14, 34
1737664, 362348, -0.07, -1.02, -0.06, 1341.34, 102745.60, 1.17, 1.05, 0, 1, 11, 49, -17, 34
1737728, 362381, -0.07, -1.02, -0.06, 1341.48, 102744.75, 1.23, 1.05, 0, 1, 8, 44, -17, 34
1737792, 362412, -0.07, -1.02, -0.06, 1341.40, 102746.02, 1.13, 1.07, 0, 1, 8, 49, -16, 34
1737856, 362444, -0.07, -1.02, -0.06, 1341.54, 102748.67, 0.91, 1.07, 0, 1, 14, 54, -13, 34
1737920, 362479, -0.07, -1.02, -0.06, 1341.43, 102743.47, 1.34, 1.07, 0, 1, 10, 39, -17, 34
1737984, 362514, -0.07, -1.02, -0.06, 1341.46, 102746.72, 1.07, 1.08, 0, 1, 10, 49, -14, 34
1738048, 362547, -0.07, -1.02, -0.06, 1341.40, 102742.25, 1.44, 1.07, 0, 1, 8, 41, -14, 34
1738112, 362579, -0.07, -1.02, -0.06, 1341.46, 102747.88, 0.98, 1.09, 0, 1, 11, 40, -17, 34
1738176, 362612, -0.07, -1.02, -0.06, 1341.54, 102742.28, 1.43, 1.09, 0, 1, 10, 56, -18, 34
1738240, 362647, -0.07, -1.02, -0.06, 1341.54, 102743.16, 1.36, 1.10, 0, 1, 11, 50, -21, 34
1738304, 362680, -0.07, -1.02, -0.06, 1341.63, 102743.66, 1.32, 1.13, 0, 1, 10, 54, -15, 34
1738368, 362711, -0.07, -1.02, -0.06, 1341.54, 102748.67, 0.91, 1.13, 0, 1, 11, 56, -15, 34
1738432, 362743, -0.07, -1.02, -0.06, 1341.66, 102748.36, 0.94, 1.11, 0, 1, 4, 46, -16, 34
1738496, 362778, -0.07, -1.02, -0.06, 1341.71, 102751.67, 0.67, 1.11, 0, 1, 7, 52, -20, 34
1738560, 362811, -0.07, -1.02, -0.06, 1341.63, 102752.36, 0.61, 1.10, 0, 1, 7, 46, -15, 34
1738624, 362844, -0.07, -1.02, -0.06, 1341.28, 102748.36, 0.94, 1.07, 0, 1, 8, 59, -19, 34
1738688, 362876, -0.07, -1.02, -0.06, 1341.54, 102748.96, 0.89, 1.06, 0, 1, 6, 69, -18, 34
1738752, 362911, -0.07, -1.02, -0.06, 1341.69, 102751.89, 0.65, 1.05, 0, 1, 8, 48, -17, 34
1738816, 362946, -0.07, -1.02, -0.06, 1341.20, 102744.67, 1.24, 1.04, 0, 1, 11, 40, -7, 34
1738880, 362979, -0.07, -1.02, -0.06, 1341.05, 102745.78, 1.15, 1.05, 0, 1, 9, 46, -11, 34
1738944, 363012, -0.07, -1.02, -0.06, 1341.51, 102745.71, 1.15, 1.07, 0, 1, 7, 46, -17, 34
1739008, 363044, -0.07, -1.02, -0.06, 1341.40, 102746.60, 1.08, 1.07, 0, 1, 7, 59, -18, 34
1739072, 363079, -0.07, -1.02, -0.06, 1341.34, 102747.05, 1.04, 1.06, 0, 1, 10, 45, -15, 34
1739136, 363112, -0.07, -1.02, -0.06, 1341.31, 102742.05, 1.46, 1.06, 0, 1, 10, 43, -13, 34
1739200, 363145, -0.07, -1.02, -0.06, 1341.57, 102744.38, 1.26, 1.08, 0, 1, 14, 37, -13, 34
1739264, 363177, -0.07, -1.02, -0.06, 1341.11, 102742.16, 1.45, 1.08, 0, 1, 9, 36, -14, 34
1739328, 363210, -0.07, -1.02, -0.06, 1341.66, 102747.78, 0.98, 1.10, 0, 1, 13, 60, -19, 34
1739392, 363243, -0.07, -1.02, -0.06, 1341.66, 102744.88, 1.22, 1.08, 0, 1, 11, 57, -19, 34
1739456, 363276, -0.07, -1.02, -0.06, 1341.63, 102747.42, 1.01, 1.09, 0, 1, 6, 44, -18, 34
1739520, 363309, -0.07, -1.02, -0.06, 1341.54, 102747.22, 1.03, 1.07, 0, 1, 11, 53, -22, 34
1739584, 363343, -0.07, -1.02, -0.06, 1341.63, 102745.39, 1.18, 1.05, 0, 1, 17, 38, -15, 34
1739648, 363376, -0.07, -1.02, -0.06, 1341.31, 102748.13, 0.96, 1.04, 0, 1, 15, 45, -18, 34
1739712, 363409, -0.07, -1.02, -0.06, 1341.77, 102748.05, 0.96, 1.05, 0, 1, 11, 60, -18, 34
1739776, 363440, -0.07, -1.02, -0.06, 1341.40, 102747.75, 0.99, 1.05, 0, 1, 5, 59, -21, 34
1739840, 363472, -0.06, -1.02, -0.06, 1342.00, 102745.66, 1.16, 1.06, 0, 1, 9, 60, -17, 34
1739904, 363507, -0.07, -1.02, -0.06, 1341.69, 102749.00, 0.89, 1.09, 0, 1, 8, 42, -18, 34
1739968, 363540, -0.07, -1.02, -0.06, 1341.57, 102751.63, 0.67, 1.09, 0, 1, 9, 40, -12, 34
1740032, 363573, -0.07, -1.02, -0.06, 1341.71, 102743.55, 1.33, 1.08, 0, 1, 12, 58, -14, 34
1740096, 363606, -0.07, -1.02, -0.06, 1341.63, 102748.58, 0.92, 1.11, 0, 1, 11, 66, -20, 34
1740160, 363640, -0.07, -1.02, -0.06, 1341.63, 102742.78, 1.40, 1.09, 0, 1, 10, 64, -21, 34
1740224, 363673, -0.06, -1.02, -0.07, 1341.46, 102749.61, 0.83, 1.11, 0, 1, 9, 53, -15, 34
1740288, 363706, -0.07, -1.02, -0.06, 1341.57, 102745.53, 1.17, 1.09, 0, 1, 11, 39, -12, 34
1740352, 363739, -0.07, -1.02, -0.06, 1341.74, 102746.52, 1.09, 1.10, 0, 1, 14, 40, -12, 34
1740416, 363771, -0.07, -1.02, -0.06, 1341.57, 102745.83, 1.14, 1.10, 0, 1, 13, 47, -15, 34
1740480, 363804, -0.07, -1.02, -0.06, 1341.71, 102746.75, 1.07, 1.08, 0, 1, 10, 55, -12, 34
1740544, 363837, -0.07, -1.02, -0.06, 1341.92, 102743.75, 1.32, 1.07, 0, 1, 9, 50, -17, 34
1740608, 363872, -0.07, -1.02, -0.06, 1341.48, 102746.78, 1.07, 1.07, 0, 1, 10, 37, -18, 34
1740672, 363905, -0.07, -1.02, -0.06, 1341.46, 102746.72, 1.07, 1.07, 0, 1, 8, 35, -12, 34
1740736, 363937, -0.07, -1.02, -0.06, 1341.80, 102749.58, 0.84, 1.06, 0, 1, 13, 34, -19, 34
1740800, 363970, -0.07, -1.02, -0.06, 1342.00, 102749.72, 0.82, 1.05, 0, 1, 16, 40, -17, 34
1740864, 364003, -0.07, -1.02, -0.06, 1342.09, 102741.82, 1.47, 1.04, 0, 1, 13, 65, -16, 34
1740928, 364036, -0.07, -1.02, -0.06, 1342.03, 102743.72, 1.32, 1.06, 0, 1, 14, 55, -15, 34
1740992, 364070, -0.06, -1.02, -0.06, 1341.92, 102743.75, 1.32, 1.08, 0, 1, 8, 51, -16, 34
1741056, 364103, -0.06, -1.02, -0.06, 1341.83, 102744.11, 1.29, 1.09, 0, 1, 12, 46, -16, 34
1741120, 364136, -0.07, -1.02, -0.06, 1341.94, 102747.57, 1.00, 1.11, 0, 1, 11, 47, -13, 34
1741184, 364171, -0.07, -1.02, -0.06, 1341.43, 102746.66, 1.08, 1.10, 0, 1, 7, 51, -16, 34
1741248, 364206, -0.07, -1.02, -0.06, 1341.69, 102748.13, 0.96, 1.11, 0, 1, 4, 70, -22, 34
1741312, 364236, -0.06, -1.02, -0.06, 1341.71, 102747.03, 1.05, 1.13, 0, 1, 6, 62, -15, 34
1741376, 364269, -0.07, -1.02, -0.06, 1342.20, 102745.27, 1.19, 1.11, 0, 1, 5, 53, -16, 34
1741440, 364302, -0.06, -1.02, -0.07, 1342.12, 102743.64, 1.32, 1.12, 0, 1, 9, 41, -13, 34
1741504, 364335, -0.07, -1.02, -0.06, 1341.80, 102740.30, 1.60, 1.12, 0, 1, 8, 37, -10, 34
1741568, 364369, -0.07, -1.02, -0.06, 1342.03, 102746.91, 1.06, 1.16, 0, 1, 10, 52, -15, 34
1741632, 364402, -0.07, -1.02, -0.06, 1341.97, 102744.74, 1.23, 1.15, 0, 1, 3, 59, -17, 34
1741696, 364435, -0.07, -1.02, -0.06, 1341.94, 102744.10, 1.29, 1.16, 0, 1, 8, 55, -20, 34
1741760, 364470, -0.07, -1.02, -0.07, 1342.03, 102741.97, 1.46, 1.17, 0, 1, 9, 49, -18, 34
1741824, 364505, -0.07, -1.02, -0.06, 1341.97, 102739.80, 1.64, 1.19, 0, 1, 20, 25, -17, 34
1741888, 364535, -0.07, -1.02, -0.06, 1341.63, 102746.27, 1.11, 1.20, 0, 1, 14, 33, -14, 34
1741952, 364568, -0.08, -1.02, -0.06, 1341.77, 102743.41, 1.34, 1.21, 0, 1, 12, 33, -15, 34
1742016, 364601, -0.07, -1.02, -0.06, 1341.66, 102744.30, 1.27, 1.22, 0, 1, 10, 51, -12, 34
1742080, 364634, -0.07, -1.02, -0.06, 1341.80, 102747.27, 1.03, 1.24, 0, 1, 13, 63, -22, 34
1742144, 364668, -0.07, -1.02, -0.06, 1342.03, 102750.97, 0.72, 1.25, 0, 1, 11, 53, -19, 34
1742208, 364701, -0.07, -1.02, -0.06, 1341.89, 102747.44, 1.01, 1.21, 0, 1, 9, 39, -21, 34
1742272, 364734, -0.07, -1.02, -0.06, 1342.03, 102744.58, 1.25, 1.20, 0, 1, 15, 39, -18, 34
1742336, 364769, -0.07, -1.02, -0.06, 1342.03, 102751.55, 0.68, 1.19, 0, 1, 14, 39, -15, 34
1742400, 364804, -0.07, -1.02, -0.06, 1341.80, 102745.24, 1.19, 1.16, 0, 1, 11, 45, -20, 34
1742464, 364834, -0.07, -1.02, -0.06, 1341.71, 102741.52, 1.50, 1.17, 0, 1, 8, 68, -16, 34
1742528, 364867, -0.07, -1.02, -0.06, 1341.97, 102743.57, 1.33, 1.20, 0, 1, 10, 64, -18, 34
1742592, 364900, -0.07, -1.02, -0.06, 1341.80, 102741.75, 1.48, 1.21, 0, 1, 8, 55, -14, 34
1742656, 364933, -0.06, -1.02, -0.06, 1342.15, 102748.91, 0.89, 1.24, 0, 1, 12, 51, -13, 34
1742720, 364967, -0.07, -1.02, -0.06, 1341.94, 102750.47, 0.76, 1.22, 0, 1, 7, 46, -10, 34
1742784, 365000, -0.07, -1.02, -0.06, 1342.00, 102743.92, 1.30, 1.19, 0, 1, 6, 45, -12, 34
1742848, 365033, -0.07, -1.02, -0.06, 1341.94, 102746.41, 1.10, 1.18, 0, 1, 8, 69, -15, 34
1742912, 365068, -0.07, -1.02, -0.06, 1342.17, 102743.17, 1.36, 1.18, 0, 1, 6, 66, -20, 34
1742976, 365103, -0.07, -1.02, -0.07, 1341.92, 102749.27, 0.86, 1.19, 0, 1, 14, 48, -15, 34
1743040, 365133, -0.06, -1.02, -0.07, 1342.17, 102748.39, 0.94, 1.16, 0, 1, 9, 37, -12, 34
1743104, 365166, -0.07, -1.02, -0.06, 1341.86, 102744.75, 1.23, 1.14, 0, 1, 12, 41, -15, 34
1743168, 365199, -0.07, -1.02, -0.06, 1341.86, 102746.50, 1.09, 1.12, 0, 1, 15, 45, -18, 34
1743232, 365232, -0.07, -1.02, -0.06, 1342.09, 102745.30, 1.19, 1.12, 0, 1, 13, 54, -23, 34
1743296, 365266, -0.07, -1.02, -0.06, 1342.09, 102745.30, 1.19, 1.11, 0, 1, 13, 55, -13, 34
1743360, 365299, -0.07, -1.02, -0.06, 1342.06, 102748.42, 0.93, 1.11, 0, 1, 15, 35, -19, 34
1743424, 365332, -0.07, -1.02, -0.06, 1341.94, 102742.35, 1.43, 1.10, 0, 1, 17, 28, -17, 34
1743488, 365367, -0.07, -1.03, -0.05, 1342.03, 102748.36, 0.94, 1.14, 0, 1, 11, 46, -18, 34
1743552, 365402, -0.07, -1.02, -0.06, 1341.89, 102744.83, 1.23, 1.13, 0, 1, 8, 44, -19, 34
1743616, 365432, -0.07, -1.02, -0.06, 1341.77, 102747.17, 1.04, 1.13, 0, 1, 4, 58, -19, 34
1743680, 365465, -0.06, -1.02, -0.06, 1342.03, 102744.00, 1.29, 1.15, 0, 1, 11, 66, -15, 34
1743744, 365498, -0.07, -1.02, -0.06, 1342.00, 102746.24, 1.11, 1.15, 0, 1, 10, 46, -18, 34
1743808, 365531, -0.07, -1.02, -0.06, 1342.17, 102747.82, 0.98, 1.13, 0, 1, 9, 53, -16, 34
1743872, 365565, -0.07, -1.02, -0.06, 1342.26, 102746.27, 1.11, 1.12, 0, 1, 11, 60, -17, 34
1743936, 365596, -0.07, -1.02, -0.06, 1342.15, 102748.03, 0.96, 1.10, 0, 1, 8, 57, -18, 34
1744000, 365629, -0.07, -1.02, -0.06, 1342.46, 102746.47, 1.09, 1.10, 0, 1, 7, 63, -13, 34
1744064, 365664, -0.07, -1.02, -0.06, 1342.03, 102744.88, 1.22, 1.12, 0, 1, 7, 58, -18, 34
1744128, 365694, -0.07, -1.02, -0.07, 1342.32, 102745.28, 1.19, 1.11, 0, 1, 10, 45, -17, 34
1744192, 365727, -0.07, -1.02, -0.07, 1342.00, 102741.89, 1.47, 1.12, 0, 1, 10, 41, -15, 34
1744256, 365760, -0.07, -1.02, -0.06, 1342.15, 102746.88, 1.06, 1.12, 0, 1, 13, 40, -14, 34
1744320, 365795, -0.07, -1.02, -0.06, 1341.94, 102746.99, 1.05, 1.13, 0, 1, 12, 44, -18, 34
1744384, 365830, -0.08, -1.02, -0.06, 1341.86, 102746.78, 1.07, 1.14, 0, 1, 10, 46, -16, 34
1744448, 365860, -0.07, -1.02, -0.06, 1342.03, 102745.75, 1.15, 1.13, 0, 1, 12, 52, -17, 34
1744512, 365893, -0.07, -1.02, -0.06, 1342.09, 102740.08, 1.62, 1.14, 0, 1, 16, 43, -22, 34
1744576, 365926, -0.07, -1.02, -0.06, 1342.12, 102744.50, 1.25, 1.16, 0, 1, 11, 35, -15, 34
1744640, 365961, -0.07, -1.02, -0.06, 1342.35, 102741.57, 1.50, 1.16, 0, 1, 13, 32, -17, 34
1744704, 365991, -0.07, -1.02, -0.05, 1342.40, 102744.28, 1.27, 1.19, 0, 1, 15, 34, -20, 34
1744768, 366024, -0.07, -1.02, -0.06, 1342.29, 102746.61, 1.08, 1.18, 0, 1, 12, 61, -22, 34
1744832, 366059, -0.07, -1.02, -0.05, 1342.15, 102743.69, 1.32, 1.19, 0, 1, 10, 65, -20, 34
1744896, 366094, -0.07, -1.02, -0.06, 1342.03, 102744.88, 1.22, 1.19, 0, 1, 8, 43, -17, 34
1744960, 366129, -0.07, -1.02, -0.06, 1341.83, 102745.28, 1.19, 1.20, 0, 1, 11, 55, -16, 34
1745024, 366159, -0.07, -1.02, -0.06, 1341.94, 102742.92, 1.38, 1.20, 0, 1, 9, 35, -16, 34
1745088, 366192, -0.07, -1.02, -0.06, 1341.74, 102737.82, 1.80, 1.21, 0, 1, 6, 55, -18, 34
1745152, 366225, -0.07, -1.02, -0.06, 1342.09, 102742.97, 1.38, 1.25, 0, 1, 2, 81, -17, 34
1745216, 366260, -0.06, -1.02, -0.06, 1341.94, 102742.92, 1.38, 1.26, 0, 1, 11, 68, -17, 34
1745280, 366290, -0.06, -1.02, -0.07, 1341.97, 102746.17, 1.12, 1.29, 0, 1, 9, 58, -16, 34
1745344, 366323, -0.06, -1.02, -0.07, 1342.15, 102745.13, 1.20, 1.29, 0, 1, 13, 38, -9, 34
1745408, 366356, -0.07, -1.02, -0.06, 1342.12, 102748.86, 0.90, 1.29, 0, 1, 16, 29, -9, 34
1745472, 366391, -0.07, -1.02, -0.06, 1341.83, 102748.75, 0.90, 1.27, 0, 1, 11, 45, -13, 34
1745536, 366426, -0.07, -1.02, -0.06, 1341.83, 102742.08, 1.45, 1.24, 0, 1, 12, 61, -21, 34
1745600, 366456, -0.07, -1.02, -0.06, 1341.97, 102747.05, 1.04, 1.26, 0, 1, 14, 52, -20, 34
1745664, 366489, -0.06, -1.02, -0.07, 1342.00, 102745.08, 1.21, 1.26, 0, 1, 14, 49, -16, 34
1745728, 366522, -0.07, -1.02, -0.06, 1341.97, 102744.74, 1.23, 1.27, 0, 1, 18, 29, -14, 34
1745792, 366555, -0.07, -1.02, -0.06, 1342.09, 102746.16, 1.12, 1.27, 0, 1, 13, 15, -16, 34
1745856, 366587, -0.08, -1.02, -0.05, 1342.17, 102741.14, 1.53, 1.25, 0, 1, 13, 26, -13, 34
1745920, 366620, -0.08, -1.02, -0.06, 1342.23, 102750.58, 0.76, 1.26, 0, 1, 9, 34, -21, 34
1745984, 366655, -0.07, -1.02, -0.06, 1342.03, 102743.72, 1.32, 1.22, 0, 1, 10, 72, -18, 34
1746048, 366690, -0.06, -1.02, -0.06, 1341.63, 102744.52, 1.25, 1.23, 0, 1, 13, 49, -14, 34
1746112, 366725, -0.07, -1.02, -0.06, 1341.77, 102743.11, 1.37, 1.24, 0, 1, 15, 38, -21, 34
1746176, 366755, -0.07, -1.02, -0.06, 1342.00, 102741.02, 1.54, 1.24, 0, 1, 6, 50, -16, 34
1746240, 366788, -0.07, -1.02, -0.05, 1341.94, 102743.22, 1.36, 1.25, 0, 1, 8, 51, -20, 34
1746304, 366823, -0.07, -1.02, -0.06, 1341.77, 102746.60, 1.08, 1.26, 0, 1, 7, 73, -17, 34
1746368, 366854, -0.06, -1.02, -0.06, 1342.03, 102744.30, 1.27, 1.25, 0, 1, 3, 70, -12, 34
1746432, 366886, -0.06, -1.02, -0.06, 1342.06, 102742.91, 1.38, 1.22, 0, 1, 8, 47, -15, 34
1746496, 366917, -0.07, -1.02, -0.06, 1342.20, 102747.60, 1.00, 1.22, 0, 1, 8, 50, -11, 34
1746560, 366952, -0.07, -1.02, -0.06, 1342.15, 102743.69, 1.32, 1.20, 0, 1, 5, 45, -16, 34
1746624, 366987, -0.07, -1.02, -0.06, 1341.97, 102741.83, 1.47, 1.21, 0, 1, 6, 55, -18, 34
1746688, 367020, -0.07, -1.02, -0.06, 1342.26, 102739.60, 1.66, 1.23, 0, 1, 13, 62, -18, 34
1746752, 367050, -0.07, -1.02, -0.06, 1342.32, 102742.08, 1.45, 1.26, 0, 1, 10, 51, -11, 34
1746816, 367083, -0.07, -1.02, -0.06, 1342.26, 102747.42, 1.01, 1.29, 0, 1, 10, 43, -17, 34
1746880, 367118, -0.07, -1.02, -0.06, 1342.00, 102741.32, 1.51, 1.27, 0, 1, 12, 44, -15, 34
1746944, 367149, -0.08, -1.02, -0.06, 1342.60, 102743.89, 1.31, 1.29, 0, 1, 7, 46, -22, 34
1747008, 367181, -0.07, -1.02, -0.06, 1342.38, 102744.22, 1.28, 1.30, 0, 1, 9, 48, -20, 34
1747072, 367216, -0.07, -1.02, -0.06, 1342.15, 102739.63, 1.65, 1.30, 0, 1, 11, 47, -17, 34
1747136, 367251, -0.07, -1.02, -0.06, 1342.12, 102744.22, 1.28, 1.33, 0, 1, 10, 46, -14, 34
1747200, 367286, -0.07, -1.02, -0.06, 1341.63, 102740.75, 1.56, 1.31, 0, 1, 14, 42, -15, 34
1747264, 367319, -0.07, -1.02, -0.06, 1341.80, 102741.47, 1.50, 1.35, 0, 1, 14, 45, -20, 34
1747328, 367349, -0.07, -1.02, -0.06, 1342.12, 102745.38, 1.18, 1.36, 0, 1, 6, 47, -17, 34
1747392, 367382, -0.06, -1.02, -0.06, 1341.97, 102740.67, 1.57, 1.36, 0, 1, 12, 51, -16, 34
1747456, 367417, -0.06, -1.02, -0.06, 1342.06, 102740.60, 1.57, 1.37, 0, 1, 10, 40, -16, 34
1747520, 367448, -0.07, -1.02, -0.06, 1342.00, 102742.77, 1.40, 1.37, 0, 1, 8, 45, -11, 34
1747584, 367480, -0.07, -1.02, -0.06, 1342.26, 102741.33, 1.51, 1.37, 0, 1, 13, 54, -17, 34
1747648, 367515, -0.07, -1.02, -0.06, 1341.94, 102748.16, 0.95, 1.39, 0, 1, 7, 57, -15, 34
1747712, 367550, -0.06, -1.02, -0.06, 1341.89, 102742.52, 1.42, 1.38, 0, 1, 11, 54, -14, 34
1747776, 367585, -0.07, -1.02, -0.06, 1341.77, 102748.05, 0.96, 1.38, 0, 1, 4, 49, -14, 34
1747840, 367618, -0.07, -1.02, -0.06, 1341.69, 102746.39, 1.10, 1.38, 0, 1, 7, 43, -14, 34
1747904, 367648, -0.07, -1.02, -0.06, 1341.97, 102748.50, 0.92, 1.37, 0, 1, 10, 55, -17, 34
1747968, 367683, -0.07, -1.02, -0.06, 1342.00, 102744.50, 1.25, 1.34, 0, 1, 8, 61, -19, 34
1748032, 367716, -0.07, -1.02, -0.06, 1341.92, 102746.08, 1.12, 1.32, 0, 1, 9, 57, -17, 34
1748096, 367747, -0.06, -1.02, -0.06, 1342.15, 102741.36, 1.51, 1.30, 0, 1, 13, 41, -16, 34
1748160, 367779, -0.07, -1.02, -0.06, 1342.35, 102742.14, 1.45, 1.33, 0, 1, 9, 44, -14, 34
1748224, 367814, -0.07, -1.02, -0.06, 1342.15, 102741.36, 1.51, 1.32, 0, 1, 7, 47, -13, 34
1748288, 367849, -0.07, -1.02, -0.06, 1341.92, 102740.57, 1.58, 1.34, 0, 1, 14, 53, -17, 34
1748352, 367884, -0.07, -1.02, -0.06, 1341.80, 102745.24, 1.19, 1.35, 0, 1, 11, 54, -17, 34
1748416, 367917, -0.06, -1.02, -0.06, 1341.77, 102742.25, 1.44, 1.33, 0, 1, 8, 48, -23, 34
1748480, 367947, -0.07, -1.02, -0.06, 1342.17, 102740.86, 1.55, 1.34, 0, 1, 12, 43, -19, 34
1748544, 367980, -0.07, -1.02, -0.06, 1341.94, 102746.41, 1.10, 1.34, 0, 1, 13, 34, -15, 34
1748608, 368015, -0.07, -1.02, -0.06, 1341.86, 102744.17, 1.28, 1.31, 0, 1, 8, 44, -14, 34
1748672, 368046, -0.07, -1.02, -0.06, 1342.03, 102739.66, 1.65, 1.32, 0, 1, 15, 55, -17, 34
1748736, 368078, -0.07, -1.02, -0.06, 1342.23, 102747.38, 1.02, 1.32, 0, 1, 9, 56, -20, 34
1748800, 368113, -0.07, -1.02, -0.06, 1341.77, 102740.50, 1.58, 1.30, 0, 1, 11, 47, -15, 34
1748864, 368148, -0.07, -1.02, -0.06, 1342.20, 102748.46, 0.93, 1.31, 0, 1, 5, 47, -11, 34
1748928, 368183, -0.07, -1.02, -0.06, 1342.06, 102744.94, 1.22, 1.28, 0, 1, 11, 38, -12, 34
1748992, 368216, -0.07, -1.02, -0.06, 1341.86, 102745.63, 1.16, 1.29, 0, 1, 13, 50, -20, 34
1749056, 368246, -0.07, -1.02, -0.06, 1342.17, 102745.21, 1.20, 1.28, 0, 1, 8, 56, -19, 34
1749120, 368279, -0.07, -1.02, -0.06, 1342.09, 102746.16, 1.12, 1.29, 0, 1, 6, 60, -18, 34
1749184, 368314, -0.07, -1.02, -0.06, 1342.23, 102744.77, 1.23, 1.29, 0, 1, 6, 58, -14, 34
1749248, 368345, -0.07, -1.02, -0.06, 1342.12, 102739.58, 1.66, 1.30, 0, 1, 10, 49, -13, 34
1749312, 368377, -0.07, -1.02, -0.06, 1342.32, 102743.25, 1.36, 1.32, 0, 1, 11, 45, -14, 34
1749376, 368412, -0.07, -1.02, -0.06, 1342.23, 102747.38, 1.02, 1.34, 0, 1, 11, 44, -12, 34
1749440, 368447, -0.07, -1.02, -0.06, 1342.00, 102746.24, 1.11, 1.31, 0, 1, 9, 56, -19, 34
1749504, 368482, -0.07, -1.02, -0.06, 1341.89, 102743.10, 1.37, 1.30, 0, 1, 10, 60, -21, 34
1749568, 368515, -0.07, -1.02, -0.06, 1341.80, 102743.78, 1.31, 1.29, 0, 1, 10, 46, -16, 34
1749632, 368545, -0.07, -1.02, -0.06, 1342.00, 102742.47, 1.42, 1.27, 0, 1, 12, 43, -12, 34
1749696, 368578, -0.07, -1.02, -0.06, 1342.20, 102745.27, 1.19, 1.29, 0, 1, 15, 43, -15, 34
1749760, 368613, -0.07, -1.02, -0.06, 1342.26, 102748.60, 0.92, 1.27, 0, 1, 13, 36, -15, 34
1749824, 368644, -0.07, -1.02, -0.06, 1342.40, 102746.32, 1.10, 1.24, 0, 1, 11, 44, -17, 34
1749888, 368676, -0.07, -1.02, -0.06, 1342.58, 102744.39, 1.26, 1.24, 0, 1, 14, 53, -18, 34
1749952, 368711, -0.07, -1.02, -0.06, 1341.94, 102743.80, 1.31, 1.24, 0, 1, 11, 46, -17, 34
1750016, 368746, -0.07, -1.02, -0.06, 1342.15, 102743.39, 1.34, 1.22, 0, 1, 8, 39, -14, 34
1750080, 368781, -0.07, -1.02, -0.06, 1341.97, 102743.57, 1.33, 1.24, 0, 1, 15, 41, -16, 34
1750144, 368814, -0.07, -1.02, -0.06, 1342.15, 102745.42, 1.18, 1.23, 0, 1, 8, 48, -18, 34
1750208, 368844, -0.07, -1.02, -0.06, 1342.32, 102746.72, 1.07, 1.24, 0, 1, 10, 50, -15, 34
1750272, 368879, -0.07, -1.02, -0.06, 1342.40, 102746.60, 1.08, 1.23, 0, 1, 9, 50, -14, 34
1750336, 368912, -0.07, -1.02, -0.06, 1342.43, 102747.55, 1.00, 1.23, 0, 1, 14, 47, -13, 34
1750400, 368943, -0.07, -1.02, -0.06, 1342.26, 102743.36, 1.35, 1.22, 0, 1, 13, 45, -15, 34
1750464, 368975, -0.07, -1.02, -0.06, 1342.52, 102743.38, 1.34, 1.23, 0, 1, 10, 51, -18, 34
1750528, 369010, -0.07, -1.02, -0.06, 1342.26, 102744.53, 1.25, 1.24, 0, 1, 13, 54, -18, 34
1750592, 369045, -0.07, -1.02, -0.06, 1342.17, 102744.05, 1.29, 1.22, 0, 1, 10, 56, -19, 34
1750656, 369078, -0.07, -1.02, -0.06, 1342.38, 102743.92, 1.30, 1.21, 0, 1, 8, 49, -19, 34
1750720, 369111, -0.07, -1.02, -0.06, 1342.15, 102743.39, 1.34, 1.23, 0, 1, 12, 39, -11, 34
1750784, 369141, -0.07, -1.02, -0.06, 1342.38, 102743.35, 1.35, 1.24, 0, 1, 10, 44, -18, 34
1750848, 369176, -0.07, -1.02, -0.06, 1342.43, 102743.50, 1.33, 1.24, 0, 1, 18, 43, -20, 34
1750912, 369209, -0.07, -1.02, -0.06, 1342.43, 102745.24, 1.19, 1.24, 0, 1, 14, 49, -19, 34
1750976, 369240, -0.07, -1.02, -0.06, 1342.09, 102745.30, 1.19, 1.23, 0, 1, 7, 53, -23, 34
1751040, 369272, -0.07, -1.02, -0.06, 1342.43, 102742.05, 1.46, 1.23, 0, 1, 10, 46, -16, 34
1751104, 369307, -0.07, -1.02, -0.06, 1342.26, 102741.33, 1.51, 1.25, 0, 1, 10, 42, -13, 34
1751168, 369342, -0.07, -1.02, -0.06, 1342.40, 102743.99, 1.29, 1.28, 0, 1, 15, 46, -16, 34
1751232, 369375, -0.07, -1.02, -0.06, 1342.20, 102744.39, 1.26, 1.28, 0, 1, 10, 39, -20, 34
1751296, 369408, -0.07, -1.02, -0.06, 1342.35, 102743.30, 1.35, 1.27, 0, 1, 9, 37, -17, 34
1751360, 369440, -0.07, -1.02, -0.06, 1342.09, 102741.24, 1.52, 1.27, 0, 1, 9, 51, -17, 34
1751424, 369475, -0.07, -1.02, -0.06, 1342.46, 102743.86, 1.31, 1.28, 0, 1, 9, 44, -15, 34
1751488, 369508, -0.07, -1.02, -0.06, 1342.15, 102745.13, 1.20, 1.29, 0, 1, 10, 50, -19, 34
1751552, 369539, -0.07, -1.02, -0.06, 1342.29, 102742.55, 1.41, 1.30, 0, 1, 9, 62, -20, 34
1751616, 369571, -0.07, -1.02, -0.06, 1342.55, 102744.35, 1.27, 1.31, 0, 1, 4, 55, -15, 34
1751680, 369606, -0.07, -1.02, -0.06, 1342.32, 102739.77, 1.64, 1.33, 0, 1, 8, 52, -14, 34
1751744, 369641, -0.07, -1.02, -0.06, 1342.00, 102744.78, 1.23, 1.34, 0, 1, 8, 60, -15, 34
1751808, 369674, -0.07, -1.02, -0.06, 1342.29, 102748.36, 0.94, 1.34, 0, 1, 7, 46, -19, 34
1751872, 369707, -0.07, -1.02, -0.06, 1342.46, 102744.44, 1.26, 1.32, 0, 1, 9, 62, -20, 34
1751936, 369739, -0.07, -1.02, -0.06, 1342.23, 102745.07, 1.21, 1.32, 0, 1, 12, 66, -20, 34
1752000, 369774, -0.06, -1.02, -0.06, 1342.46, 102750.53, 0.76, 1.31, 0, 1, 7, 42, -18, 34
1752064, 369807, -0.07, -1.02, -0.06, 1342.29, 102742.27, 1.44, 1.28, 0, 1, 10, 50, -16, 34
1752128, 369838, -0.07, -1.02, -0.06, 1342.43, 102742.91, 1.38, 1.29, 0, 1, 9, 50, -11, 34
1752192, 369870, -0.07, -1.02, -0.06, 1342.23, 102738.39, 1.75, 1.29, 0, 1, 10, 39, -16, 34
1752256, 369905, -0.07, -1.02, -0.06, 1342.35, 102744.75, 1.23, 1.32, 0, 1, 11, 55, -17, 34
1752320, 369940, -0.07, -1.02, -0.06, 1342.20, 102746.72, 1.07, 1.32, 0, 1, 10, 49, -21, 34
1752384, 369973, -0.07, -1.02, -0.06, 1342.23, 102745.35, 1.18, 1.30, 0, 1, 11, 41, -16, 34
1752448, 370006, -0.07, -1.02, -0.06, 1342.40, 102741.67, 1.48, 1.29, 0, 1, 12, 42, -14, 34
1752512, 370038, -0.07, -1.02, -0.06, 1342.35, 102749.69, 0.83, 1.30, 0, 1, 14, 39, -13, 34
1752576, 370073, -0.07, -1.02, -0.06, 1342.58, 102744.99, 1.21, 1.27, 0, 1, 12, 49, -13, 34
1752640, 370106, -0.07, -1.02, -0.06, 1342.46, 102744.74, 1.23, 1.27, 0, 1, 12, 44, -15, 34
1752704, 370137, -0.07, -1.02, -0.06, 1342.63, 102746.88, 1.06, 1.25, 0, 1, 9, 49, -16, 34
1752768, 370169, -0.07, -1.02, -0.06, 1342.60, 102740.99, 1.54, 1.24, 0, 1, 11, 47, -13, 34
1752832, 370204, -0.07, -1.02, -0.06, 1342.40, 102743.99, 1.29, 1.26, 0, 1, 13, 48, -20, 34
1752896, 370239, -0.07, -1.02, -0.06, 1342.23, 102741.30, 1.52, 1.25, 0, 1, 10, 47, -17, 34
1752960, 370272, -0.07, -1.02, -0.06, 1342.17, 102742.60, 1.41, 1.26, 0, 1, 7, 53, -20, 34
1753024, 370305, -0.07, -1.02, -0.06, 1342.52, 102742.22, 1.44, 1.25, 0, 1, 8, 52, -15, 34
1753088, 370337, -0.07, -1.02, -0.06, 1342.32, 102743.53, 1.33, 1.26, 0, 1, 10, 44, -15, 34
1753152, 370372, -0.07, -1.02, -0.06, 1342.66, 102748.10, 0.96, 1.28, 0, 1, 6, 49, -19, 34
1753216, 370405, -0.07, -1.02, -0.06, 1342.43, 102741.17, 1.53, 1.27, 0, 1, 13, 51, -17, 34
1753280, 370436, -0.07, -1.02, -0.06, 1342.83, 102742.38, 1.43, 1.28, 0, 1, 6, 53, -18, 34
1753344, 370468, -0.07, -1.02, -0.06, 1342.55, 102743.17, 1.36, 1.32, 0, 1, 15, 54, -16, 34
1753408, 370503, -0.07, -1.02, -0.06, 1342.83, 102745.27, 1.19, 1.31, 0, 1, 10, 53, -19, 34
1753472, 370538, -0.07, -1.02, -0.06, 1342.63, 102742.24, 1.44, 1.30, 0, 1, 10, 54, -18, 34
1753536, 370571, -0.07, -1.02, -0.06, 1342.35, 102740.41, 1.59, 1.29, 0, 1, 6, 40, -19, 34
1753600, 370604, -0.06, -1.02, -0.06, 1342.32, 102747.32, 1.02, 1.31, 0, 1, 8, 51, -16, 34
1753664, 370636, -0.07, -1.02, -0.06, 1342.32, 102744.41, 1.26, 1.30, 0, 1, 6, 36, -13, 34
1753728, 370671, -0.07, -1.02, -0.07, 1342.43, 102740.60, 1.57, 1.31, 0, 1, 13, 41, -14, 34
1753792, 370704, -0.07, -1.02, -0.06, 1342.66, 102743.46, 1.34, 1.31, 0, 1, 6, 53, -18, 34
1753856, 370735, -0.07, -1.02, -0.06, 1342.46, 102745.02, 1.21, 1.34, 0, 1, 8, 51, -14, 34
1753920, 370767, -0.07, -1.02, -0.06, 1342.83, 102745.27, 1.19, 1.34, 0, 1, 9, 67, -19, 34
1753984, 370802, -0.07, -1.02, -0.06, 1342.69, 102741.19, 1.52, 1.34, 0, 1, 9, 48, -19, 34
1754048, 370837, -0.07, -1.02, -0.06, 1342.69, 102740.91, 1.55, 1.36, 0, 1, 11, 46, -12, 34
1754112, 370870, -0.07, -1.02, -0.06, 1342.35, 102742.44, 1.42, 1.36, 0, 1, 9, 45, -17, 34
1754176, 370903, -0.07, -1.02, -0.06, 1342.83, 102744.11, 1.29, 1.37, 0, 1, 12, 33, -14, 34
1754240, 370935, -0.07, -1.02, -0.06, 1342.43, 102738.86, 1.72, 1.35, 0, 1, 10, 51, -18, 34
1754304, 370970, -0.07, -1.02, -0.06, 1342.46, 102743.28, 1.35, 1.37, 0, 1, 11, 59, -18, 34
1754368, 371003, -0.03, -0.99, 0.03, 1342.40, 102743.71, 1.32, 1.36, 0, 1, 14, 443, -10, 34
1754432, 371034, 0.12, -1.01, -0.01, 1342.58, 102740.63, 1.57, 1.36, 0, 1, -2, 70, 4, 34
1754496, 371066, -0.06, -1.06, -0.11, 1342.81, 102746.66, 1.08, 1.39, 0, 1, -40, -433, -37, 34
1754560, 371101, -0.12, -1.01, -0.09, 1342.78, 102744.88, 1.22, 1.37, 0, 1, 0, 35, -26, 34
1754624, 371136, -0.07, -1.02, -0.04, 1342.55, 102745.50, 1.17, 1.36, 0, 1, 49, 144, 16, 34
1754688, 371171, -0.00, -1.03, -0.05, 1342.20, 102742.96, 1.38, 1.35, 0, 1, 32, 228, -11, 34
1754752, 371204, -0.11, -1.02, -0.06, 1342.49, 102746.22, 1.11, 1.36, 0, 1, 3, -74, -33, 34
1754816, 371234, -0.03, -1.01, -0.02, 1342.52, 102741.64, 1.49, 1.34, 0, 1, 6, -135, -15, 34
1754880, 371269, -0.04, -1.02, -0.09, 1342.72, 102744.14, 1.28, 1.34, 0, 1, 14, 149, -21, 34
1754944, 371302, -0.08, -1.04, -0.06, 1342.81, 102743.77, 1.31, 1.35, 0, 1, 28, 153, -11, 34
1755008, 371333, -0.01, -1.03, -0.07, 1342.92, 102748.10, 0.96, 1.36, 0, 1, 9, 43, -11, 34
1755072, 371365, -0.06, -1.02, -0.08, 1343.01, 102744.82, 1.23, 1.32, 0, 1, 3, 47, -22, 34
1755136, 371400, -0.09, -1.03, -0.07, 1342.75, 102741.63, 1.49, 1.32, 0, 1, 20, 62, -15, 34
1755200, 371435, -0.08, -1.02, -0.07, 1342.49, 102740.72, 1.56, 1.33, 0, 1, 15, 70, -21, 34
1755264, 371468, -0.08, -1.02, -0.04, 1342.40, 102742.83, 1.39, 1.35, 0, 1, 10, -33, -18, 34
1755328, 371501, -0.08, -1.02, -0.06, 1342.58, 102739.75, 1.64, 1.35, 0, 1, 15, 28, -15, 34
1755392, 371533, -0.07, -1.02, -0.07, 1343.09, 102743.28, 1.35, 1.35, 0, 1, 19, 70, -23, 34
1755456, 371568, -0.06, -1.02, -0.05, 1342.81, 102745.21, 1.20, 1.35, 0, 1, 15, 31, -21, 34
1755520, 371601, -0.08, -1.02, -0.07, 1342.98, 102746.78, 1.07, 1.34, 0, 1, 6, 32, -16, 34
1755584, 371632, -0.06, -1.02, -0.05, 1342.89, 102738.19, 1.77, 1.31, 0, 1, 7, 87, -21, 34
1755648, 371664, -0.07, -1.03, -0.06, 1342.95, 102740.64, 1.57, 1.33, 0, 1, 7, 66, -23, 34
1755712, 371699, -0.08, -1.02, -0.07, 1342.60, 102741.57, 1.50, 1.34, 0, 1, 6, 44, -16, 34
1755776, 371734, -0.07, -1.02, -0.06, 1342.63, 102743.39, 1.34, 1.34, 0, 1, 4, 64, -14, 34
1755840, 371769, -0.06, -1.02, -0.05, 1342.40, 102741.67, 1.48, 1.35, 0, 1, 6, 43, -20, 34
1755904, 371802, -0.07, -1.02, -0.05, 1342.46, 102739.80, 1.64, 1.37, 0, 1, 1, 43, -18, 34
1755968, 371832, -0.08, -1.03, -0.06, 1342.81, 102746.96, 1.05, 1.39, 0, 1, 2, 55, -10, 34
1756032, 371867, -0.06, -1.02, -0.05, 1342.72, 102744.14, 1.28, 1.37, 0, 1, 2, 88, -11, 34
1756096, 371900, -0.07, -1.02, -0.06, 1342.98, 102738.96, 1.71, 1.38, 0, 1, 3, 87, -17, 34
1756160, 371931, -0.06, -1.02, -0.06, 1342.95, 102745.28, 1.19, 1.39, 0, 1, 4, 56, -19, 34
1756224, 371961, -0.07, -1.02, -0.07, 1343.18, 102740.02, 1.62, 1.39, 0, 1, 7, 50, -9, 34
1756288, 371996, -0.07, -1.02, -0.06, 1342.86, 102744.22, 1.28, 1.40, 0, 1, 10, 52, -13, 34
1756352, 372029, -0.07, -1.02, -0.06, 1343.32, 102743.82, 1.31, 1.42, 0, 1, 14, 27, -17, 34
1756416, 372062, -0.07, -1.02, -0.06, 1342.92, 102740.55, 1.58, 1.42, 0, 1, 10, 38, -17, 34
1756480, 372092, -0.08, -1.02, -0.07, 1343.26, 102744.85, 1.23, 1.43, 0, 1, 10, 59, -14, 34
1756544, 372125, -0.07, -1.02, -0.06, 1343.35, 102748.82, 0.90, 1.41, 0, 1, 7, 71, -11, 34
1756608, 372160, -0.07, -1.02, -0.06, 1342.72, 102740.94, 1.55, 1.39, 0, 1, 14, 22, -24, 34
1756672, 372193, -0.08, -1.02, -0.06, 1342.92, 102743.74, 1.32, 1.38, 0, 1, 11, 31, -15, 34
1756736, 372226, -0.08, -1.02, -0.05, 1343.21, 102744.42, 1.26, 1.38, 0, 1, 17, 27, -16, 34
1756800, 372258, -0.08, -1.02, -0.05, 1342.92, 102744.91, 1.22, 1.38, 0, 1, 13, 21, -20, 34
1756864, 372293, -0.08, -1.02, -0.06, 1343.21, 102743.85, 1.31, 1.39, 0, 1, 16, 50, -24, 34
1756928, 372326, -0.07, -1.02, -0.06, 1343.04, 102741.69, 1.48, 1.37, 0, 1, 13, 76, -20, 34
1756992, 372357, -0.07, -1.02, -0.06, 1343.24, 102746.22, 1.11, 1.36, 0, 1, 11, 54, -24, 34
1757056, 372389, -0.07, -1.02, -0.06, 1343.01, 102745.69, 1.16, 1.34, 0, 1, 12, 48, -26, 34
1757120, 372424, -0.06, -1.02, -0.06, 1343.29, 102744.35, 1.27, 1.33, 0, 1, 7, 46, -17, 34
1757184, 372459, -0.07, -1.02, -0.06, 1342.75, 102746.85, 1.06, 1.32, 0, 1, 7, 54, -15, 34
1757248, 372492, -0.07, -1.02, -0.06, 1342.95, 102744.41, 1.26, 1.29, 0, 1, 12, 62, -16, 34
1757312, 372525, -0.06, -1.02, -0.06, 1342.95, 102745.86, 1.14, 1.30, 0, 1, 11, 72, -22, 34
1757376, 372557, -0.07, -1.02, -0.07, 1342.58, 102741.78, 1.48, 1.30, 0, 1, 0, 53, -18, 34
1757440, 372592, -0.06, -1.02, -0.06, 1342.78, 102746.33, 1.10, 1.29, 0, 1, 5, 55, -8, 34
1757504, 372625, -0.07, -1.02, -0.06, 1342.69, 102740.61, 1.57, 1.28, 0, 1, 8, 60, -16, 34
1757568, 372656, -0.07, -1.02, -0.06, 1342.89, 102742.25, 1.44, 1.28, 0, 1, 10, 37, -15, 34
1757632, 372688, -0.07, -1.02, -0.06, 1343.26, 102745.42, 1.18, 1.29, 0, 1, 7, 51, -10, 34
1757696, 372723, -0.07, -1.02, -0.06, 1342.98, 102743.89, 1.31, 1.28, 0, 1, 10, 64, -16, 34
1757760, 372758, -0.07, -1.02, -0.06, 1342.92, 102748.10, 0.96, 1.27, 0, 1, 5, 42, -16, 34
1757824, 372791, -0.07, -1.02, -0.06, 1342.49, 102742.16, 1.45, 1.25, 0, 1, 8, 47, -17, 34
1757888, 372824, -0.07, -1.02, -0.06, 1342.86, 102746.53, 1.09, 1.28, 0, 1, 9, 53, -12, 34
1757952, 372856, -0.07, -1.02, -0.06, 1342.95, 102743.53, 1.33, 1.26, 0, 1, 11, 32, -11, 34
1758016, 372891, -0.07, -1.02, -0.06, 1343.21, 102742.39, 1.43, 1.26, 0, 1, 10, 48, -19, 34
1758080, 372924, -0.07, -1.02, -0.06, 1342.98, 102741.86, 1.47, 1.27, 0, 1, 12, 43, -14, 34
1758144, 372955, -0.08, -1.02, -0.06, 1343.24, 102743.33, 1.35, 1.28, 0, 1, 10, 56, -17, 34
1758208, 372987, -0.07, -1.02, -0.06, 1343.26, 102748.61, 0.92, 1.28, 0, 1, 14, 60, -20, 34
1758272, 373022, -0.06, -1.02, -0.06, 1343.24, 102745.64, 1.16, 1.25, 0, 1, 12, 38, -26, 34
1758336, 373057, -0.07, -1.02, -0.06, 1343.21, 102747.03, 1.05, 1.26, 0, 1, 6, 44, -19, 34
1758400, 373090, -0.07, -1.02, -0.06, 1343.06, 102745.25, 1.19, 1.25, 0, 1, 10, 43, -19, 34
1758464, 373123, -0.07, -1.02, -0.05, 1343.09, 102746.77, 1.07, 1.25, 0, 1, 8, 43, -22, 34
1758528, 373155, -0.07, -1.02, -0.06, 1343.04, 102745.75, 1.15, 1.25, 0, 1, 5, 73, -23, 34
1758592, 373190, -0.07, -1.02, -0.06, 1343.09, 102741.83, 1.47, 1.24, 0, 1, 13, 71, -20, 34
1758656, 373223, -0.06, -1.02, -0.06, 1343.21, 102745.58, 1.17, 1.26, 0, 1, 10, 58, -21, 34
1758720, 373254, -0.06, -1.02, -0.06, 1343.09, 102743.57, 1.33, 1.24, 0, 1, 7, 39, -19, 34
1758784, 373286, -0.06, -1.03, -0.06, 1343.26, 102744.55, 1.25, 1.25, 0, 1, 6, 37, -15, 34
1758848, 373321, -0.07, -1.02, -0.06, 1343.26, 102748.61, 0.92, 1.24, 0, 1, 0, 47, -13, 34
1758912, 373354, -0.07, -1.02, -0.06, 1343.12, 102746.82, 1.06, 1.21, 0, 1, 7, 65, -14, 34
1758976, 373387, -0.07, -1.02, -0.06, 1343.06, 102747.28, 1.03, 1.21, 0, 1, 2, 68, -22, 34
1759040, 373420, -0.07, -1.02, -0.06, 1343.26, 102744.85, 1.23, 1.19, 0, 1, 4, 56, -19, 34
1759104, 373454, -0.07, -1.02, -0.06, 1343.18, 102744.66, 1.24, 1.20, 0, 1, 6, 50, -16, 34
1759168, 373487, -0.07, -1.02, -0.06, 1343.47, 102745.88, 1.14, 1.19, 0, 1, 15, 38, -15, 34
1759232, 373520, -0.07, -1.03, -0.06, 1343.24, 102744.78, 1.23, 1.20, 0, 1, 11, 30, -18, 34
1759296, 373551, -0.07, -1.02, -0.06, 1343.58, 102747.33, 1.02, 1.19, 0, 1, 11, 55, -16, 34
1759360, 373583, -0.07, -1.02, -0.06, 1343.84, 102745.88, 1.14, 1.17, 0, 1, 9, 45, -18, 34
1759424, 373618, -0.07, -1.02, -0.06, 1343.35, 102740.39, 1.59, 1.16, 0, 1, 13, 46, -22, 34
1759488, 373651, -0.07, -1.02, -0.06, 1343.44, 102745.55, 1.17, 1.17, 0, 1, 19, 41, -18, 34
1759552, 373684, -0.07, -1.02, -0.06, 1343.32, 102745.57, 1.17, 1.18, 0, 1, 15, 29, -18, 34
1759616, 373716, -0.07, -1.02, -0.06, 1343.75, 102746.85, 1.06, 1.18, 0, 1, 19, 45, -17, 34
1759680, 373751, -0.07, -1.02, -0.06, 1343.24, 102747.10, 1.04, 1.18, 0, 1, 14, 39, -16, 34
1759744, 373784, -0.07, -1.02, -0.06, 1343.49, 102744.52, 1.25, 1.17, 0, 1, 10, 56, -21, 34
1759808, 373817, -0.07, -1.02, -0.06, 1343.32, 102744.69, 1.24, 1.18, 0, 1, 11, 62, -23, 34
1759872, 373850, -0.06, -1.02, -0.06, 1343.44, 102742.64, 1.41, 1.19, 0, 1, 7, 38, -22, 34
1759936, 373882, -0.07, -1.02, -0.06, 1343.35, 102743.30, 1.35, 1.18, 0, 1, 7, 32, -18, 34
1760000, 373917, -0.08, -1.02, -0.06, 1343.26, 102747.16, 1.04, 1.19, 0, 1, 5, 44, -6, 34
1760064, 373950, -0.07, -1.02, -0.05, 1343.24, 102743.91, 1.30, 1.18, 0, 1, 6, 77, -12, 34
1760128, 373983, -0.07, -1.02, -0.06, 1343.49, 102746.25, 1.11, 1.18, 0, 1, 3, 48, -13, 34
1760192, 374016, -0.08, -1.02, -0.06, 1343.72, 102744.17, 1.28, 1.19, 0, 1, 6, 51, -19, 34
1760256, 374050, -0.07, -1.02, -0.06, 1343.24, 102744.78, 1.23, 1.20, 0, 1, 6, 89, -18, 34
1760320, 374083, -0.07, -1.02, -0.06, 1343.44, 102745.83, 1.14, 1.21, 0, 1, 4, 75, -22, 34
1760384, 374116, -0.06, -1.02, -0.06, 1343.64, 102743.10, 1.37, 1.21, 0, 1, 10, 38, -19, 34
1760448, 374149, -0.06, -1.02, -0.06, 1343.35, 102742.72, 1.40, 1.21, 0, 1, 5, 41, -10, 34
1760512, 374181, -0.06, -1.02, -0.06, 1343.75, 102744.82, 1.23, 1.23, 0, 1, 11, 32, -8, 34
1760576, 374214, -0.08, -1.02, -0.06, 1343.58, 102741.53, 1.50, 1.23, 0, 1, 10, 37, -8, 34
1760640, 374247, -0.08, -1.02, -0.06, 1343.72, 102743.32, 1.35, 1.25, 0, 1, 10, 31, -15, 34
1760704, 374280, -0.09, -1.02, -0.06, 1343.47, 102740.08, 1.62, 1.26, 0, 1, 4, 57, -15, 34
1760768, 374312, -0.08, -1.02, -0.05, 1343.67, 102743.16, 1.36, 1.26, 0, 1, 8, 80, -20, 34
1760832, 374347, -0.07, -1.02, -0.06, 1343.78, 102743.42, 1.34, 1.27, 0, 1, 10, 104, -29, 34
1760896, 374380, -0.06, -1.02, -0.06, 1343.90, 102739.36, 1.68, 1.28, 0, 1, 10, 51, -23, 34
1760960, 374413, -0.06, -1.02, -0.05, 1343.67, 102747.50, 1.01, 1.31, 0, 1, 12, 15, -10, 34
1761024, 374446, -0.07, -1.02, -0.06, 1343.58, 102745.30, 1.19, 1.31, 0, 1, 17, 17, -11, 34
1761088, 374478, -0.08, -1.02, -0.05, 1343.75, 102744.24, 1.28, 1.31, 0, 1, 8, 24, -15, 34
1761152, 374511, -0.08, -1.02, -0.06, 1343.81, 102745.24, 1.19, 1.31, 0, 1, 9, 3, -16, 34
1761216, 374544, -0.08, -1.02, -0.06, 1343.78, 102743.72, 1.32, 1.30, 0, 1, 6, 60, -16, 34
1761280, 374577, -0.08, -1.02, -0.06, 1343.52, 102742.55, 1.41, 1.30, 0, 1, 10, 76, -17, 34
1761344, 374609, -0.07, -1.02, -0.06, 1343.90, 102744.58, 1.25, 1.32, 0, 1, 6, 55, -23, 34
1761408, 374644, -0.07, -1.02, -0.06, 1343.70, 102739.77, 1.64, 1.31, 0, 1, 7, 106, -22, 34
1761472, 374677, -0.06, -1.02, -0.06, 1343.72, 102738.96, 1.71, 1.34, 0, 1, 9, 46, -11, 34
1761536, 374710, -0.06, -1.02, -0.05, 1343.49, 102740.16, 1.61, 1.36, 0, 1, 12, 38, -20, 34
1761600, 374743, -0.07, -1.02, -0.05, 1343.75, 102741.05, 1.54, 1.38, 0, 1, 10, 15, -8, 34
1761664, 374777, -0.07, -1.02, -0.05, 1343.70, 102746.44, 1.09, 1.40, 0, 1, 10, 49, -16, 34
1761728, 374810, -0.07, -1.02, -0.06, 1343.67, 102738.52, 1.74, 1.39, 0, 1, 5, 53, -12, 34
1761792, 374843, -0.08, -1.03, -0.04, 1343.75, 102740.47, 1.59, 1.40, 0, 1, 9, 71, -17, 34
1761856, 374874, -0.08, -1.01, -0.04, 1343.64, 102746.86, 1.06, 1.42, 0, 1, 1, 73, -14, 34
1761920, 374906, -0.07, -1.02, -0.07, 1344.10, 102743.28, 1.35, 1.40, 0, 1, 8, 92, -15, 34
1761984, 374941, -0.07, -1.03, -0.05, 1343.84, 102743.57, 1.33, 1.40, 0, 1, 10, 38, -20, 34
1762048, 374974, -0.08, -1.03, -0.07, 1343.67, 102745.77, 1.15, 1.38, 0, 1, 9, 32, -21, 34
1762112, 375007, -0.07, -1.02, -0.06, 1343.75, 102741.35, 1.51, 1.37, 0, 1, 13, 46, -12, 34
1762176, 375040, -0.05, -1.02, 0.02, 1343.90, 102748.07, 0.96, 1.38, 0, 1, 7, 68, -14, 34
1762240, 375074, -0.05, -1.04, -0.07, 1343.72, 102742.14, 1.45, 1.35, 0, 1, 0, 28, -29, 34
1762304, 375107, -0.10, -1.01, -0.02, 1343.64, 102744.83, 1.23, 1.37, 0, 1, 13, 109, -23, 34
1762368, 375140, -0.01, -1.22, 0.08, 1343.81, 102748.14, 0.95, 1.37, 0, 1, 17, -1, -23, 34
1762432, 375173, -0.02, -1.02, -0.03, 1343.64, 102733.24, 2.18, 1.35, 0, 1, -16, -130, -21, 34
1762496, 375205, -0.10, -0.99, -0.06, 1343.90, 102745.75, 1.15, 1.40, 0, 1, 16, 56, -13, 34
1762560, 375240, -0.05, -1.02, -0.05, 1343.41, 102743.16, 1.36, 1.40, 0, 1, 17, 37, -7, 34
1762624, 375273, -0.07, -1.02, -0.02, 1343.78, 102743.72, 1.32, 1.39, 0, 1, 3, 0, -10, 34
1762688, 375306, -0.09, -1.02, -0.08, 1343.58, 102742.69, 1.40, 1.40, 0, 1, 12, 54, -23, 34
1762752, 375339, -0.05, -1.02, -0.06, 1344.04, 102745.78, 1.15, 1.38, 0, 1, 16, 97, -17, 34
1762816, 375373, -0.06, -1.02, -0.06, 1343.84, 102743.27, 1.36, 1.36, 0, 1, 5, 32, -20, 34
1762880, 375406, -0.06, -1.02, -0.06, 1344.01, 102740.52, 1.58, 1.34, 0, 1, 17, 40, -16, 34
1762944, 375439, -0.06, -1.04, -0.04, 1343.78, 102737.63, 1.82, 1.35, 0, 1, 12, 26, -12, 34
1763008, 375472, -0.08, -1.03, -0.08, 1343.90, 102745.75, 1.15, 1.38, 0, 1, 6, 22, -13, 34
1763072, 375504, -0.19, -1.04, -0.11, 1344.04, 102747.22, 1.03, 1.35, 0, 1, -26, 26, -3, 34
1763136, 375539, -0.45, -10.79, -0.14, 1343.90, 102792.46, -2.68, 1.32, 0, 1, 227, -163, -103, 34
1763200, 375572, -0.20, -10.11, -0.01, 1344.13, 102774.69, -1.23, 1.14, 0, 1, 104, -216, -213, 34
1763264, 375605, -0.56, -9.19, -0.07, 1343.90, 102748.36, 0.94, 1.01, 0, 1, -76, -412, 175, 34
1763328, 375638, -0.02, -8.85, 0.34, 1344.18, 102731.02, 2.36, 0.99, 0, 1, -121, -780, 82, 34
1763392, 375670, 0.03, -8.96, 0.04, 1344.38, 102710.88, 4.01, 1.05, 0, 1, -93, -1116, -141, 34
1763456, 375703, -0.71, -8.74, 0.11, 1344.07, 102721.47, 3.14, 1.17, 0, 1, -80, -448, -54, 34
1763520, 375738, 0.55, -9.00, 0.77, 1344.15, 102699.63, 4.94, 1.28, 0, 1, 95, 288, -188, 34
1763584, 375773, 0.57, -9.21, 1.18, 1343.98, 102700.69, 4.85, 1.46, 0, 1, 68, 873, 53, 34
1763648, 375803, -0.64, -9.37, -0.30, 1344.10, 102686.42, 6.02, 1.64, 0, 1, 17, 1420, 55, 34
1763712, 375836, -0.49, -9.73, -0.12, 1344.44, 102680.88, 6.48, 1.89, 0, 1, 64, 1219, -15, 34
1763776, 375869, -0.47, -9.95, -0.01, 1344.24, 102685.05, 6.14, 2.11, 0, 1, 29, 1318, 47, 34
1763840, 375904, -0.39, -9.95, -0.10, 1344.13, 102643.30, 9.57, 2.36, 0, 1, 23, 1323, 30, 34
1763904, 375939, -0.40, -9.73, 0.05, 1343.95, 102635.36, 10.22, 2.77, 0, 1, 21, 1324, 50, 34
1763968, 375969, -0.41, -9.91, -0.28, 1344.41, 102635.52, 10.20, 3.21, 0, 1, 37, 1554, 39, 34
1764032, 376002, -0.31, -10.04, -0.05, 1344.33, 102638.85, 9.93, 3.65, 0, 1, 103, 1610, 106, 34
1764096, 376035, -0.44, -10.12, 0.03, 1344.33, 102590.11, 13.94, 4.09, 0, 1, 113, 1754, 209, 34
1764160, 376068, -0.23, -9.97, 0.01, 1344.53, 102567.67, 15.78, 4.72, 0, 1, 113, 1827, 232, 34
1764224, 376102, -0.44, -10.38, -0.25, 1344.33, 102550.66, 17.18, 5.43, 0, 1, 157, 1856, 258, 34
1764288, 376135, -0.24, -10.31, 0.09, 1344.21, 102527.77, 19.06, 6.20, 0, 1, 90, 1914, 262, 34
1764352, 376168, -0.39, -10.60, 0.04, 1344.59, 102507.74, 20.71, 7.09, 0, 1, 107, 2077, 278, 34
1764416, 376201, -0.30, -10.61, -0.03, 1344.50, 102486.92, 22.42, 8.08, 0, 1, 71, 2146, 278, 34
1764480, 376233, -0.26, -10.57, 0.16, 1344.79, 102459.21, 24.70, 9.33, 0, 1, 80, 2212, 267, 34
1764544, 376266, -0.31, -10.77, 0.11, 1344.61, 102428.89, 27.19, 10.63, 0, 1, 37, 2240, 238, 34
1764608, 376301, -0.44, -10.89, -0.12, 1344.84, 102403.92, 29.25, 11.94, 0, 1, -40, 2253, 186, 34
1764672, 376336, -0.33, -10.74, -0.14, 1344.56, 102362.94, 32.62, 13.29, 0, 1, -20, 2263, 110, 34
1764736, 376369, -0.20, -10.81, -0.04, 1344.53, 102337.64, 34.71, 14.72, 0, 1, 71, 2323, 59, 34
1764800, 376401, -0.40, -11.27, -0.15, 1344.87, 102297.52, 38.01, 16.30, 0, 1, -115, 2349, -10, 34
1764864, 376434, -0.39, -11.01, -0.15, 1344.96, 102273.92, 39.95, 17.95, 0, 1, -130, 2455, -60, 34
1764928, 376469, -0.51, -10.89, -0.00, 1344.64, 102237.82, 42.93, 19.70, 0, 1, -84, 2613, -77, 34
1764992, 376504, -0.47, -11.08, 0.17, 1344.96, 102196.19, 46.36, 21.55, 0, 1, -125, 2730, -88, 34
1765056, 376539, -0.22, -11.16, 0.26, 1344.73, 102147.78, 50.35, 23.54, 0, 1, 76, 2978, -121, 34
1765120, 376569, -0.41, -11.25, 0.05, 1345.13, 102111.88, 53.32, 25.75, 0, 1, 136, 3185, -155, 34
1765184, 376604, -0.32, -11.26, 0.22, 1344.87, 102068.66, 56.88, 27.94, 0, 1, 165, 3344, -176, 34
1765248, 376637, -0.46, -11.54, -0.15, 1345.04, 102026.38, 60.37, 30.28, 0, 1, 224, 3528, -208, 34
1765312, 376670, -0.29, -11.27, 0.02, 1345.13, 101984.53, 63.83, 32.78, 0, 1, 254, 3684, -241, 34
1765376, 376702, -0.52, -11.56, -0.31, 1345.30, 101930.99, 68.25, 35.48, 0, 1, 214, 3878, -271, 34
1765440, 376735, -0.36, -12.14, 0.05, 1345.39, 101876.96, 72.71, 38.19, 0, 1, 296, 4034, -305, 34
1765504, 376770, -0.45, -11.39, 0.06, 1345.53, 101844.47, 75.40, 41.04, 0, 1, 323, 4290, -281, 34
1765568, 376803, -0.56, -11.68, -0.12, 1345.91, 101773.13, 81.30, 43.95, 0, 1, 361, 4482, -278, 34
1765632, 376834, -0.63, -11.99, -0.26, 1345.79, 101727.30, 85.09, 47.06, 0, 1, 307, 4646, -232, 34
1765696, 376866, -0.56, -11.72, -0.08, 1345.59, 101663.89, 90.34, 50.28, 0, 1, 267, 4920, -151, 34
1765760, 376899, -0.69, -11.60, -0.17, 1345.70, 101604.71, 95.24, 53.68, 0, 1, 224, 5167, -44, 34
1765824, 376932, -0.64, -11.71, -0.37, 1345.82, 101558.53, 99.07, 57.21, 0, 1, 137, 5382, 7, 34
1765888, 376965, -0.56, -11.91, -0.24, 1345.85, 101500.60, 103.87, 60.80, 0, 1, 46, 5566, 9, 34
1765952, 376999, -0.31, -11.73, -0.03, 1346.02, 101444.14, 108.55, 64.53, 0, 1, 109, 5797, 23, 34
1766016, 377032, -0.52, -12.04, -0.04, 1345.82, 101380.42, 113.84, 68.33, 0, 1, 62, 5950, 10, 34
1766080, 377065, -0.25, -11.71, 0.05, 1345.93, 101318.35, 118.99, 72.28, 0, 1, 21, 6074, -54, 34
1766144, 377098, -0.42, -11.72, 0.04, 1345.88, 101252.96, 124.42, 76.33, 0, 1, -174, 6124, -160, 34
1766208, 377131, -0.54, -11.63, 0.11, 1346.11, 101179.21, 130.55, 80.56, 0, 1, -121, 6296, -237, 34
1766272, 377163, -0.51, -11.63, 0.18, 1346.05, 101120.17, 135.46, 84.94, 0, 1, -49, 6526, -253, 34
1766336, 377198, -0.66, -11.50, 0.02, 1345.82, 101049.16, 141.36, 89.39, 0, 1, 191, 6898, -228, 34
1766400, 377231, -0.73, -11.73, -0.00, 1345.79, 100971.64, 147.81, 93.94, 0, 1, 243, 7048, -211, 34
1766464, 377264, -0.59, -11.51, -0.03, 1345.93, 100900.05, 153.78, 98.67, 0, 1, 243, 7188, -125, 34
1766528, 377294, -0.80, -11.65, 0.00, 1346.22, 100835.74, 159.14, 103.51, 0, 2, 116, 7357, -62, 34
1766592, 377329, -0.56, -11.67, -0.25, 1346.14, 100754.00, 165.95, 108.45, 0, 2, 282, 7708, 31, 34
1766656, 377362, -0.53, -11.20, -0.15, 1345.96, 100680.52, 172.08, 113.56, 0, 2, 270, 7769, 53, 34
1766720, 377395, -0.42, -11.57, -0.02, 1346.28, 100605.80, 178.32, 118.75, 0, 2, 300, 8018, 126, 34
1766784, 377427, -0.37, -11.34, 0.05, 1345.93, 100518.00, 185.65, 124.03, 0, 2, 240, 8038, 71, 34
1766848, 377460, -0.56, -11.31, 0.01, 1345.96, 100447.58, 191.54, 129.54, 0, 2, 332, 8159, -50, 34
1766912, 377495, -0.49, -11.54, 0.02, 1346.05, 100363.05, 198.61, 135.05, 0, 2, 400, 8151, -169, 34
1766976, 377528, -0.55, -11.32, -0.02, 1345.70, 100277.58, 205.76, 140.73, 0, 2, 118, 8214, -216, 34
1767040, 377561, -0.61, -11.11, -0.02, 1345.91, 100200.02, 212.25, 146.50, 0, 2, 164, 8429, -220, 34
1767104, 377593, -0.58, -11.19, -0.02, 1345.73, 100104.17, 220.29, 152.35, 0, 2, 273, 8638, -183, 34
1767168, 377628, -0.67, -10.95, 0.10, 1345.96, 100018.83, 227.45, 158.41, 0, 2, 307, 8768, -222, 34
1767232, 377661, -0.69, -10.90, -0.02, 1346.34, 99922.80, 235.50, 164.59, 0, 2, 301, 9035, -171, 34
1767296, 377694, -0.81, -10.95, 0.03, 1345.65, 99835.10, 242.87, 170.94, 0, 2, 136, 9043, -230, 34
1767360, 377724, -0.66, -10.81, 0.02, 1345.82, 99741.75, 250.72, 177.39, 0, 2, 267, 9327, -208, 34
1767424, 377757, -0.76, -10.89, -0.22, 1346.08, 99661.69, 257.45, 183.98, 0, 2, 186, 9438, -192, 34
1767488, 377792, -0.72, -10.54, -0.11, 1346.08, 99559.30, 266.07, 190.63, 0, 2, 134, 9646, -96, 34
1767552, 377827, -0.92, -10.75, -0.07, 1345.39, 99472.49, 273.38, 197.40, 0, 2, 30, 9830, -46, 34
1767616, 377860, -0.72, -10.69, 0.18, 1345.73, 99373.47, 281.73, 204.30, 0, 2, 92, 10070, 36, 34
1767680, 377890, -0.92, -10.68, -0.13, 1345.53, 99276.99, 289.87, 211.32, 0, 2, 352, 10148, 57, 34
1767744, 377923, -0.77, -10.30, 0.11, 1345.70, 99176.16, 298.39, 218.42, 0, 2, 206, 10129, 65, 34
1767808, 377958, -0.75, -10.47, 0.16, 1345.62, 99071.25, 307.25, 225.65, 0, 2, 572, 10198, 9, 34
1767872, 377989, -0.61, -10.20, 0.09, 1345.59, 98971.67, 315.67, 233.06, 0, 2, 409, 10254, -36, 34
1767936, 378021, -0.77, -10.16, -0.20, 1345.93, 98877.89, 323.61, 240.54, 0, 2, 628, 10280, -74, 34
1768000, 378056, -0.72, -9.96, -0.11, 1345.53, 98764.41, 333.23, 248.12, 0, 2, 515, 10138, -150, 34
1768064, 378091, -0.73, -10.04, -0.14, 1345.16, 98658.30, 342.22, 255.86, 0, 2, 613, 10277, -126, 34
1768128, 378126, -0.77, -9.87, -0.08, 1345.02, 98528.88, 353.21, 263.69, 0, 2, 376, 10321, -157, 34
1768192, 378161, -0.73, -9.83, 0.05, 1345.02, 98422.13, 362.28, 271.78, 0, 2, 360, 10443, -131, 34
1768256, 378191, -0.95, -9.93, 0.04, 1345.42, 98329.07, 370.19, 279.96, 0, 2, -332, 10197, -200, 34
1768320, 378224, -0.88, -9.85, -0.25, 1345.10, 98210.30, 380.30, 288.18, 0, 2, 300, 10581, -25, 34
1768384, 378257, -0.78, -10.23, -0.29, 1345.39, 98103.03, 389.44, 296.58, 0, 2, 288, 10602, -91, 34
1768448, 378292, -0.69, -10.24, 0.06, 1345.27, 97992.53, 398.86, 305.04, 0, 2, 219, 10749, -123, 34
1768512, 378322, -0.69, -10.40, 0.12, 1345.27, 97889.85, 407.62, 313.61, 0, 2, 202, 10598, -174, 34
1768576, 378355, -0.72, -10.46, 0.16, 1345.50, 97760.39, 418.68, 322.22, 0, 2, 645, 10866, -55, 34
1768640, 378388, -0.84, -9.47, -0.25, 1345.56, 97655.22, 427.67, 331.01, 0, 2, 615, 10897, 3, 34
1768704, 378423, -0.68, -7.71, -0.40, 1345.33, 97535.22, 437.94, 339.86, 0, 2, 81, 10889, 36, 34
1768768, 378456, -0.55, -5.72, -0.32, 1345.22, 97418.63, 447.93, 348.88, 0, 2, -64, 10807, -44, 34
1768832, 378488, -0.32, -3.30, -0.17, 1345.36, 97290.74, 458.89, 357.97, 0, 2, 432, 10658, -135, 34
1768896, 378521, -0.42, -1.18, 0.11, 1345.30, 97180.10, 468.39, 367.25, 0, 2, 300, 10556, -188, 34
1768960, 378554, -0.31, 0.28, -0.15, 1345.07, 97067.35, 478.08, 376.58, 0, 2, 258, 10711, -134, 34
1769024, 378587, -0.44, 1.16, -0.18, 1345.59, 96975.92, 485.94, 385.99, 0, 2, 146, 10719, -76, 34
1769088, 378619, -0.10, 1.66, -0.25, 1345.19, 96863.66, 495.60, 395.37, 0, 2, 361, 10696, -96, 34
1769152, 378652, -0.24, 1.92, 0.05, 1345.36, 96758.44, 504.66, 404.79, 0, 2, 103, 10678, -14, 34
1769216, 378687, -0.02, 2.14, -0.05, 1345.13, 96634.36, 515.36, 414.24, 0, 2, 170, 10447, -34, 34
1769280, 378720, -0.06, 2.07, -0.12, 1344.93, 96527.16, 524.61, 423.82, 0, 2, 378, 10461, -152, 34
1769344, 378753, -0.12, 2.13, -0.16, 1345.16, 96435.44, 532.54, 433.39, 0, 2, 437, 10568, -73, 34
1769408, 378785, -0.26, 2.19, -0.18, 1345.19, 96339.49, 540.83, 442.91, 0, 2, 381, 10601, -45, 34
1769472, 378820, -0.08, 2.17, -0.05, 1345.22, 96233.08, 550.04, 452.29, 0, 2, 105, 10443, -44, 34
1769536, 378853, -0.09, 2.18, -0.13, 1345.25, 96129.28, 559.03, 461.68, 0, 2, 405, 10555, -46, 34
1769600, 378884, -0.17, 2.17, -0.13, 1345.65, 96027.50, 567.85, 471.12, 0, 2, 554, 10689, -90, 34
1769664, 378916, -0.05, 2.14, -0.17, 1345.39, 95924.55, 576.78, 480.50, 0, 2, 287, 10480, -109, 34
1769728, 378951, -0.09, 2.19, -0.22, 1345.53, 95816.92, 586.12, 489.86, 0, 2, 426, 10506, -131, 34
1769792, 378986, -0.19, 2.14, -0.13, 1345.13, 95699.74, 596.31, 499.23, 0, 2, 286, 10495, -111, 34
1769856, 379019, -0.17, 2.11, -0.13, 1345.39, 95606.61, 604.41, 508.66, 0, 2, 351, 10520, -94, 34
1769920, 379052, -0.08, 2.11, -0.11, 1345.27, 95497.00, 613.95, 517.95, 0, 2, 535, 10558, -86, 34
1769984, 379082, -0.10, 2.14, -0.19, 1345.53, 95395.14, 622.83, 527.26, 0, 2, 391, 10523, -133, 34
1770048, 379117, -0.21, 2.08, -0.20, 1345.33, 95299.02, 631.21, 536.51, 0, 2, 350, 10517, -123, 34
1770112, 379150, -0.12, 2.03, -0.22, 1345.36, 95204.21, 639.49, 545.67, 0, 2, 212, 10450, -54, 34
1770176, 379181, -0.15, 2.04, -0.14, 1345.56, 95104.27, 648.22, 554.70, 0, 2, 408, 10499, -66, 34
1770240, 379213, -0.21, 2.02, -0.24, 1345.70, 95005.66, 656.84, 563.69, 0, 2, 251, 10334, -135, 34
1770304, 379248, -0.25, 1.98, -0.23, 1345.62, 94905.71, 665.58, 572.63, 0, 2, 329, 10398, -163, 34
1770368, 379283, -0.16, 2.00, -0.06, 1345.47, 94796.60, 675.14, 581.61, 0, 2, 275, 10500, -74, 34
1770432, 379318, -0.17, 1.98, -0.04, 1345.22, 94693.94, 684.14, 590.59, 0, 2, 327, 10364, -57, 34
1770496, 379351, -0.17, 1.95, -0.13, 1345.33, 94599.64, 692.41, 599.56, 0, 2, 642, 10604, 63, 34
1770560, 379381, -0.15, 1.90, -0.14, 1345.27, 94498.85, 701.26, 608.42, 0, 2, 381, 10500, -65, 34
1770624, 379414, -0.03, 1.91, -0.05, 1345.50, 94413.46, 708.76, 617.25, 0, 2, 248, 10281, -124, 34
1770688, 379449, -0.02, 1.90, -0.11, 1345.85, 94310.64, 717.80, 626.06, 0, 2, 422, 10245, -159, 34
1770752, 379480, -0.06, 1.90, -0.17, 1345.56, 94205.60, 727.05, 634.91, 0, 2, 138, 10161, -176, 34
1770816, 379512, -0.12, 1.88, -0.20, 1345.73, 94110.53, 735.43, 643.76, 0, 2, 236, 10193, -145, 34
1770880, 379545, -0.19, 1.86, -0.22, 1345.62, 94020.67, 743.35, 652.58, 0, 2, 617, 10427, -139, 34
1770944, 379580, -0.13, 1.88, -0.33, 1345.47, 93916.21, 752.57, 661.35, 0, 2, 391, 10411, -93, 34
1771008, 379615, -0.06, 1.82, -0.03, 1345.22, 93825.74, 760.56, 670.14, 0, 2, 214, 10329, -47, 34
1771072, 379650, -0.14, 1.79, -0.05, 1345.22, 93729.42, 769.07, 678.86, 0, 2, 435, 10284, -86, 34
1771136, 379680, -0.01, 1.82, -0.04, 1345.25, 93633.16, 777.59, 687.50, 0, 2, 527, 10333, -142, 34
1771200, 379713, -0.11, 1.75, -0.01, 1345.53, 93533.71, 786.39, 696.16, 0, 2, 429, 10179, -108, 34
1771264, 379746, -0.02, 1.75, 0.00, 1345.56, 93436.89, 794.97, 704.78, 0, 2, 577, 10294, -92, 34
1771328, 379779, -0.04, 1.72, -0.19, 1345.59, 93344.71, 803.15, 713.39, 0, 2, 491, 10221, -89, 34
1771392, 379813, -0.13, 1.71, -0.26, 1345.53, 93250.00, 811.55, 721.99, 0, 2, 398, 10076, -178, 34
1771456, 379846, -0.19, 1.70, -0.25, 1345.62, 93166.67, 818.96, 730.59, 0, 2, 102, 10102, -84, 34
1771520, 379879, -0.21, 1.69, -0.31, 1345.62, 93078.78, 826.77, 739.13, 0, 2, -46, 10253, -70, 34
1771584, 379910, -0.11, 1.69, -0.00, 1345.59, 92994.00, 834.31, 747.63, 0, 2, 437, 10282, -18, 34
1771648, 379942, -0.16, 1.64, 0.03, 1346.14, 92902.61, 842.45, 756.06, 0, 2, 15, 10132, -77, 34
1771712, 379977, -0.16, 1.65, 0.04, 1345.76, 92804.64, 851.18, 764.43, 0, 2, 162, 10179, -19, 34
1771776, 380012, -0.18, 1.66, 0.00, 1345.39, 92711.35, 859.50, 772.78, 0, 2, 604, 10192, -6, 34
1771840, 380045, -0.14, 1.65, -0.21, 1345.39, 92618.82, 867.75, 781.13, 0, 2, 466, 10030, -22, 34
1771904, 380078, -0.11, 1.64, -0.16, 1345.56, 92533.30, 875.39, 789.46, 0, 2, 364, 9992, -38, 34
1771968, 380110, -0.04, 1.60, -0.19, 1345.47, 92444.35, 883.34, 797.79, 0, 2, 424, 9977, -84, 34
1772032, 380143, -0.01, 1.57, 0.03, 1345.16, 92356.97, 891.16, 806.07, 0, 2, 660, 10137, -98, 34
1772096, 380178, -0.08, 1.58, -0.06, 1345.65, 92270.67, 898.89, 814.27, 0, 2, 239, 9645, -208, 34
1772160, 380211, -0.09, 1.56, -0.03, 1345.45, 92185.83, 906.49, 822.44, 0, 2, 198, 9756, -89, 34
1772224, 380241, -0.13, 1.54, -0.12, 1345.62, 92097.44, 914.41, 830.60, 0, 2, 314, 9984, -14, 34
1772288, 380274, -0.11, 1.56, -0.08, 1345.82, 92017.19, 921.61, 838.69, 0, 2, 378, 9949, -1, 34
1772352, 380309, -0.17, 1.53, -0.15, 1345.56, 91927.61, 929.66, 846.75, 0, 2, 221, 9958, -59, 34
1772416, 380344, -0.07, 1.51, -0.08, 1345.47, 91829.10, 938.51, 854.78, 0, 2, 277, 9933, -71, 34
1772480, 380379, -0.09, 1.50, -0.12, 1345.33, 91746.72, 945.92, 862.82, 0, 2, 189, 9824, -93, 34
1772544, 380409, -0.08, 1.49, -0.11, 1345.45, 91662.53, 953.49, 870.80, 0, 2, 401, 9885, -61, 34
1772608, 380442, -0.15, 1.46, -0.10, 1345.42, 91571.39, 961.70, 878.72, 0, 2, 542, 9888, -54, 34
1772672, 380475, -0.14, 1.48, -0.12, 1345.62, 91493.21, 968.75, 886.65, 0, 2, 196, 9732, -117, 34
1772736, 380510, -0.18, 1.43, -0.17, 1345.42, 91408.94, 976.35, 894.51, 0, 2, 221, 9793, -38, 34
1772800, 380540, -0.14, 1.46, -0.10, 1345.70, 91323.67, 984.05, 902.38, 0, 2, 364, 9740, 29, 34
1772864, 380573, -0.18, 1.43, -0.13, 1345.68, 91246.72, 991.00, 910.25, 0, 2, 129, 9880, 16, 34
1772928, 380606, -0.12, 1.43, -0.01, 1345.73, 91160.13, 998.83, 918.08, 0, 2, 240, 9805, -37, 34
1772992, 380641, -0.05, 1.42, -0.13, 1345.62, 91075.78, 1006.46, 925.90, 0, 2, 362, 9592, -120, 34
1773056, 380676, -0.02, 1.42, -0.09, 1345.45, 90985.77, 1014.61, 933.66, 0, 2, 664, 9617, -65, 34
1773120, 380706, -0.06, 1.40, -0.20, 1345.50, 90913.66, 1021.15, 941.42, 0, 2, 108, 9457, -103, 34
1773184, 380739, -0.09, 1.37, -0.12, 1345.56, 90823.86, 1029.29, 949.09, 0, 2, 202, 9439, -141, 34
1773248, 380772, -0.07, 1.32, -0.11, 1345.56, 90743.50, 1036.58, 956.78, 0, 2, 384, 9464, -111, 34
1773312, 380805, -0.10, 1.35, -0.12, 1345.68, 90662.22, 1043.96, 964.45, 0, 2, 227, 9469, -130, 34
1773376, 380837, -0.02, 1.36, -0.21, 1345.53, 90578.10, 1051.61, 972.09, 0, 2, 98, 9460, -65, 34
1773440, 380872, -0.07, 1.36, -0.16, 1345.42, 90502.16, 1058.51, 979.72, 0, 2, 110, 9403, -114, 34
1773504, 380905, -0.09, 1.35, -0.07, 1345.59, 90421.00, 1065.90, 987.32, 0, 2, 94, 9307, -150, 34
1773568, 380938, -0.16, 1.28, 0.01, 1345.50, 90341.91, 1073.10, 994.90, 0, 2, 246, 9398, -138, 34
1773632, 380968, -0.12, 1.37, 0.04, 1345.76, 90268.47, 1079.79, 1002.47, 0, 2, 117, 9404, -78, 34
1773696, 381001, -0.10, 1.37, -0.07, 1345.79, 90185.27, 1087.38, 1009.98, 0, 2, 151, 9503, -44, 34
1773760, 381036, -0.11, 1.39, -0.10, 1345.45, 90105.39, 1094.67, 1017.42, 0, 2, 361, 9522, -67, 34
1773824, 381071, -0.10, 1.32, -0.06, 1345.25, 90018.80, 1102.58, 1024.86, 0, 2, 407, 9485, -53, 34
1773888, 381104, -0.12, 1.34, 0.04, 1345.53, 89945.42, 1109.29, 1032.31, 0, 2, 451, 9531, 25, 34
1773952, 381134, 0.01, 1.32, -0.09, 1345.47, 89867.88, 1116.38, 1039.69, 0, 2, 292, 9434, -32, 34
1774016, 381167, 0.01, 1.31, 0.02, 1345.56, 89785.66, 1123.90, 1047.07, 0, 2, 510, 9311, -85, 34
1774080, 381200, -0.08, 1.32, -0.03, 1345.47, 89710.64, 1130.77, 1054.45, 0, 2, 162, 9206, -62, 34
1774144, 381235, -0.02, 1.32, -0.05, 1345.47, 89636.10, 1137.61, 1061.79, 0, 2, 165, 9148, -89, 34
1774208, 381265, -0.12, 1.28, -0.05, 1345.73, 89556.57, 1144.90, 1069.12, 0, 2, 489, 9222, -111, 34
1774272, 381298, -0.09, 1.31, -0.01, 1345.59, 89486.94, 1151.29, 1076.42, 0, 2, 537, 9157, -112, 34
1774336, 381331, -0.21, 1.30, -0.10, 1345.88, 89408.05, 1158.54, 1083.66, 0, 2, 382, 9164, -94, 34
1774400, 381366, -0.16, 1.26, -0.13, 1345.27, 89329.96, 1165.71, 1090.86, 0, 2, 222, 9192, -27, 34
1774464, 381401, -0.21, 1.27, -0.14, 1345.65, 89249.49, 1173.11, 1098.09, 0, 2, 435, 9253, 69, 34
1774528, 381431, -0.11, 1.28, -0.14, 1345.56, 89178.24, 1179.67, 1105.28, 0, 2, 216, 9105, 47, 34
1774592, 381464, -0.07, 1.22, -0.12, 1345.70, 89103.69, 1186.54, 1112.43, 0, 2, 136, 9170, 59, 34
1774656, 381497, -0.06, 1.23, -0.03, 1345.93, 89029.32, 1193.39, 1119.56, 0, 2, 325, 9088, 2, 34
1774720, 381530, 0.00, 1.21, -0.07, 1345.79, 88958.52, 1199.92, 1126.65, 0, 2, 307, 9019, -6, 34
1774784, 381564, -0.01, 1.20, 0.04, 1345.88, 88884.16, 1206.78, 1133.72, 0, 2, 448, 8935, -92, 34
1774848, 381597, -0.12, 1.19, -0.09, 1345.56, 88805.19, 1214.07, 1140.77, 0, 2, 450, 8916, -71, 34
1774912, 381630, -0.08, 1.18, -0.12, 1345.88, 88732.74, 1220.77, 1147.81, 0, 2, 425, 8941, -72, 34
1774976, 381663, -0.12, 1.18, -0.08, 1345.62, 88659.42, 1227.55, 1154.86, 0, 2, 359, 8896, -33, 34
1775040, 381696, -0.14, 1.17, -0.10, 1345.62, 88586.61, 1234.29, 1161.87, 0, 2, 278, 8874, -57, 34
1775104, 381728, -0.13, 1.17, -0.04, 1345.30, 88513.14, 1241.09, 1168.85, 0, 2, 387, 8857, -19, 34
1775168, 381763, 0.00, 1.15, -0.07, 1345.56, 88442.88, 1247.60, 1175.78, 0, 2, 298, 8864, 20, 34
1775232, 381798, -0.04, 1.12, -0.09, 1345.36, 88363.58, 1254.95, 1182.69, 0, 2, 191, 8813, -33, 34
1775296, 381831, -0.03, 1.11, -0.09, 1345.59, 88302.25, 1260.64, 1189.62, 0, 2, 196, 8704, -29, 34
1775360, 381863, -0.08, 1.12, 0.01, 1345.56, 88229.97, 1267.35, 1196.46, 0, 2, 395, 8800, -66, 34
1775424, 381898, -0.04, 1.10, 0.11, 1345.39, 88148.41, 1274.93, 1203.29, 0, 2, 251, 8736, -84, 34
1775488, 381933, -0.16, 1.08, -0.08, 1345.07, 88078.17, 1281.46, 1210.15, 0, 2, 310, 8704, -85, 34
1775552, 381968, -0.08, 1.13, -0.01, 1345.19, 88004.71, 1288.29, 1216.98, 0, 2, 342, 8731, -48, 34
1775616, 381999, -0.14, 1.07, -0.11, 1345.19, 87939.14, 1294.39, 1223.83, 0, 2, 354, 8715, -41, 34
1775680, 382031, -0.08, 1.07, -0.06, 1345.42, 87869.99, 1300.83, 1230.62, 0, 2, 311, 8657, 3, 34
1775744, 382064, -0.02, 1.05, -0.06, 1345.65, 87800.25, 1307.33, 1237.38, 0, 2, 132, 8535, -33, 34
1775808, 382099, -0.03, 1.06, -0.03, 1345.16, 87730.24, 1313.86, 1244.09, 0, 2, 225, 8574, -58, 34
1775872, 382134, -0.04, 1.05, 0.02, 1345.07, 87659.60, 1320.45, 1250.80, 0, 2, 404, 8485, -118, 34
1775936, 382169, -0.07, 1.04, -0.03, 1345.13, 87589.49, 1327.00, 1257.50, 0, 2, 316, 8482, -126, 34
1776000, 382199, -0.09, 1.03, -0.06, 1345.42, 87520.16, 1333.48, 1264.18, 0, 2, 274, 8432, -154, 34
1776064, 382232, -0.07, 1.01, -0.08, 1345.39, 87453.67, 1339.70, 1270.86, 0, 2, 304, 8443, -112, 34
1776128, 382265, -0.08, 1.04, -0.13, 1345.22, 87390.96, 1345.56, 1277.50, 0, 2, 279, 8517, -42, 34
1776192, 382298, -0.15, 1.00, -0.10, 1345.68, 87326.00, 1351.65, 1284.08, 0, 2, 346, 8509, -35, 34
1776256, 382332, -0.16, 1.02, -0.15, 1345.50, 87247.64, 1358.99, 1290.62, 0, 2, 354, 8510, -9, 34
1776320, 382365, -0.11, 0.99, -0.02, 1345.65, 87187.60, 1364.62, 1297.19, 0, 2, 248, 8433, -34, 34
1776384, 382398, -0.10, 0.98, -0.03, 1345.59, 87123.38, 1370.64, 1303.71, 0, 2, 96, 8402, -57, 34
1776448, 382431, -0.07, 0.96, -0.08, 1345.53, 87062.63, 1376.34, 1310.19, 0, 2, 183, 8411, -51, 34
1776512, 382464, -0.03, 0.96, -0.01, 1345.30, 86992.57, 1382.92, 1316.62, 0, 2, 244, 8367, -39, 34
1776576, 382496, -0.04, 0.95, 0.06, 1345.50, 86926.82, 1389.10, 1323.02, 0, 2, 233, 8285, -82, 34
1776640, 382531, -0.10, 0.96, 0.08, 1345.42, 86856.75, 1395.68, 1329.44, 0, 2, 357, 8377, -30, 34
1776704, 382566, -0.11, 0.96, -0.07, 1345.59, 86790.64, 1401.90, 1335.86, 0, 2, 416, 8299, -11, 34
1776768, 382599, -0.13, 0.93, -0.07, 1345.45, 86730.91, 1407.53, 1342.21, 0, 2, 392, 8349, 38, 34
1776832, 382631, -0.04, 0.93, -0.09, 1345.56, 86666.44, 1413.60, 1348.51, 0, 2, 385, 8262, 55, 34
1776896, 382666, -0.02, 0.92, -0.03, 1345.33, 86597.25, 1420.12, 1354.78, 0, 2, 262, 8165, 18, 34
1776960, 382701, -0.08, 0.91, 0.07, 1345.10, 86532.41, 1426.23, 1361.06, 0, 2, 330, 8145, -21, 34
1777024, 382736, -0.08, 0.90, -0.04, 1345.13, 86464.27, 1432.66, 1367.33, 0, 2, 328, 8102, -31, 34
1777088, 382771, -0.08, 0.89, 0.05, 1344.73, 86396.77, 1439.04, 1373.60, 0, 2, 388, 8116, -55, 34
1777152, 382806, -0.14, 0.89, 0.02, 1344.96, 86333.99, 1444.97, 1379.86, 0, 2, 358, 8080, -14, 34
1777216, 382836, -0.15, 0.87, -0.02, 1345.02, 86269.99, 1451.02, 1386.09, 0, 2, 342, 8041, 7, 34
1777280, 382869, -0.19, 0.90, -0.06, 1345.25, 86210.08, 1456.69, 1392.29, 0, 2, 385, 8112, 61, 34
1777344, 382902, -0.11, 0.87, 0.01, 1345.13, 86149.83, 1462.39, 1398.45, 0, 2, 270, 8116, 119, 34
1777408, 382935, -0.04, 0.88, -0.13, 1345.68, 86089.97, 1468.06, 1404.58, 0, 2, 380, 8131, 130, 34
1777472, 382969, -0.03, 0.85, -0.10, 1345.13, 86023.07, 1474.40, 1410.71, 0, 2, 299, 7985, 84, 34
1777536, 383002, -0.07, 0.84, -0.07, 1345.30, 85959.88, 1480.39, 1416.84, 0, 2, 278, 7952, 59, 34
1777600, 383035, -0.02, 0.85, -0.04, 1345.47, 85904.52, 1485.64, 1422.91, 0, 2, 237, 7855, 51, 34
1777664, 383070, -0.04, 0.83, -0.07, 1345.19, 85841.60, 1491.61, 1428.97, 0, 2, 236, 7861, -4, 34
1777728, 383102, -0.00, 0.82, -0.05, 1344.99, 85779.44, 1497.52, 1435.01, 0, 2, 207, 7806, -5, 34
1777792, 383135, -0.05, 0.84, -0.03, 1345.30, 85717.96, 1503.36, 1441.07, 0, 2, 140, 7746, -57, 34
1777856, 383170, -0.07, 0.83, -0.09, 1345.47, 85658.53, 1509.01, 1447.10, 0, 2, 136, 7774, -59, 34
1777920, 383203, -0.07, 0.83, -0.02, 1345.62, 85589.80, 1515.55, 1453.09, 0, 2, 240, 7856, -29, 34
1777984, 383236, -0.07, 0.79, -0.06, 1345.53, 85541.16, 1520.18, 1459.08, 0, 2, 333, 7882, -9, 34
1778048, 383268, -0.11, 0.79, -0.07, 1345.59, 85482.97, 1525.72, 1465.00, 0, 2, 202, 7782, -13, 34
1778112, 383303, -0.12, 0.81, 0.01, 1345.53, 85423.67, 1531.37, 1470.91, 0, 2, 218, 7781, -20, 34
1778176, 383336, -0.11, 0.78, -0.08, 1345.85, 85356.71, 1537.76, 1476.80, 0, 2, 303, 7806, -5, 34
1778240, 383369, -0.14, 0.78, -0.08, 1345.33, 85304.96, 1542.70, 1482.68, 0, 2, 230, 7722, -7, 34
1778304, 383399, -0.06, 0.75, -0.11, 1345.73, 85254.66, 1547.50, 1488.50, 0, 2, 222, 7649, -8, 34
1778368, 383432, -0.02, 0.77, -0.13, 1345.70, 85191.38, 1553.54, 1494.24, 0, 2, 246, 7633, -72, 34
1778432, 383467, -0.11, 0.76, -0.06, 1345.62, 85130.30, 1559.38, 1499.97, 0, 2, 250, 7516, -113, 34
1778496, 383502, -0.11, 0.75, -0.05, 1345.65, 85070.89, 1565.06, 1505.69, 0, 2, 201, 7473, -123, 34
1778560, 383537, -0.08, 0.75, -0.05, 1345.33, 85014.02, 1570.50, 1511.39, 0, 2, 205, 7504, -164, 34
1778624, 383567, -0.11, 0.74, -0.08, 1345.62, 84959.46, 1575.73, 1517.08, 0, 2, 280, 7532, -142, 34
1778688, 383600, -0.12, 0.73, -0.09, 1345.33, 84900.02, 1581.42, 1522.75, 0, 2, 262, 7497, -110, 34
1778752, 383633, -0.10, 0.74, -0.12, 1345.79, 84851.55, 1586.06, 1528.42, 0, 2, 222, 7538, -96, 34
1778816, 383668, -0.08, 0.73, -0.09, 1345.68, 84790.13, 1591.95, 1534.00, 0, 2, 252, 7536, -67, 34
1778880, 383698, -0.09, 0.72, -0.08, 1345.88, 84739.19, 1596.84, 1539.58, 0, 2, 221, 7527, -80, 34
1778944, 383731, -0.14, 0.73, -0.02, 1345.85, 84686.32, 1601.91, 1545.14, 0, 2, 196, 7481, -61, 34
1779008, 383764, -0.11, 0.72, -0.05, 1345.93, 84631.10, 1607.21, 1550.65, 0, 2, 208, 7461, -65, 34
1779072, 383799, -0.14, 0.68, 0.00, 1345.68, 84569.96, 1613.09, 1556.14, 0, 2, 215, 7459, -46, 34
1779136, 383834, -0.08, 0.72, -0.03, 1345.47, 84514.17, 1618.45, 1561.63, 0, 2, 268, 7443, -44, 34
1779200, 383864, -0.07, 0.70, -0.01, 1345.96, 84463.77, 1623.30, 1567.10, 0, 2, 282, 7425, -15, 34
1779264, 383897, -0.02, 0.70, -0.04, 1345.79, 84409.19, 1628.55, 1572.48, 0, 2, 221, 7394, -18, 34
1779328, 383930, -0.05, 0.68, 0.02, 1345.82, 84356.72, 1633.60, 1577.90, 0, 2, 293, 7373, -1, 34
1779392, 383963, -0.01, 0.69, 0.04, 1345.79, 84306.78, 1638.41, 1583.30, 0, 2, 305, 7369, -5, 34
1779456, 383997, -0.08, 0.67, -0.01, 1345.70, 84248.33, 1644.05, 1588.65, 0, 2, 303, 7310, -6, 34
1779520, 384028, -0.06, 0.67, 0.00, 1345.82, 84201.83, 1648.53, 1593.96, 0, 2, 315, 7299, -18, 34
1779584, 384061, -0.09, 0.66, -0.04, 1345.82, 84142.94, 1654.21, 1599.25, 0, 2, 236, 7195, -28, 34
1779648, 384094, -0.04, 0.65, -0.03, 1345.76, 84096.71, 1658.67, 1604.59, 0, 2, 263, 7200, -24, 34
1779712, 384126, -0.05, 0.64, -0.04, 1345.93, 84039.03, 1664.24, 1609.85, 0, 2, 226, 7173, -19, 34
1779776, 384159, -0.01, 0.65, -0.05, 1346.14, 83989.80, 1669.00, 1615.09, 0, 2, 264, 7124, -34, 34
1779840, 384194, -0.07, 0.65, -0.08, 1346.02, 83940.85, 1673.73, 1620.29, 0, 2, 233, 7130, -42, 34
1779904, 384227, -0.01, 0.65, -0.02, 1346.28, 83885.92, 1679.04, 1625.45, 0, 2, 297, 7085, -69, 34
1779968, 384258, -0.02, 0.63, -0.04, 1346.05, 83835.02, 1683.97, 1630.61, 0, 2, 183, 7036, -78, 34
1780032, 384290, -0.01, 0.63, -0.03, 1346.19, 83786.86, 1688.63, 1635.74, 0, 2, 235, 6970, -102, 34
1780096, 384325, -0.08, 0.62, -0.03, 1345.93, 83728.07, 1694.33, 1640.87, 0, 2, 281, 6970, -102, 34
1780160, 384360, -0.10, 0.62, -0.06, 1345.76, 83678.41, 1699.14, 1645.99, 0, 2, 247, 6918, -104, 34
1780224, 384395, -0.11, 0.61, -0.08, 1345.79, 83621.33, 1704.67, 1651.10, 0, 2, 307, 6923, -79, 34
1780288, 384428, -0.07, 0.59, -0.08, 1345.82, 83579.89, 1708.69, 1656.24, 0, 2, 307, 6915, -61, 34
1780352, 384458, -0.04, 0.60, -0.11, 1345.85, 83525.71, 1713.95, 1661.32, 0, 2, 348, 6900, -39, 34
1780416, 384491, -0.06, 0.59, -0.05, 1345.79, 83477.16, 1718.66, 1666.36, 0, 2, 264, 6884, -41, 34
1780480, 384526, -0.05, 0.60, -0.03, 1346.16, 83427.69, 1723.47, 1671.37, 0, 2, 250, 6873, -24, 34
1780544, 384557, -0.03, 0.59, -0.01, 1346.14, 83374.53, 1728.64, 1676.38, 0, 2, 207, 6867, -25, 34
1780608, 384589, -0.03, 0.60, -0.02, 1346.22, 83328.60, 1733.11, 1681.38, 0, 2, 215, 6823, -32, 34
1780672, 384622, 0.00, 0.56, 0.01, 1346.36, 83282.42, 1737.60, 1686.36, 0, 2, 255, 6801, -43, 34
1780736, 384657, -0.07, 0.56, -0.02, 1346.05, 83230.19, 1742.68, 1691.32, 0, 2, 257, 6774, -33, 34
1780800, 384692, -0.09, 0.57, -0.05, 1346.14, 83177.57, 1747.80, 1696.25, 0, 2, 281, 6770, -34, 34
1780864, 384727, -0.03, 0.56, -0.02, 1345.82, 83125.05, 1752.92, 1701.21, 0, 2, 291, 6759, -30, 34
1780928, 384757, -0.05, 0.58, -0.04, 1345.91, 83073.89, 1757.91, 1706.15, 0, 2, 298, 6779, 3, 34
1780992, 384790, -0.02, 0.55, 0.04, 1345.99, 83032.55, 1761.94, 1711.11, 0, 2, 316, 6748, 17, 34
1781056, 384823, -0.04, 0.55, -0.01, 1346.11, 82978.52, 1767.21, 1715.99, 0, 2, 368, 6721, 37, 34
1781120, 384856, -0.07, 0.55, -0.03, 1346.19, 82938.66, 1771.10, 1720.91, 0, 2, 269, 6666, 27, 34
1781184, 384890, -0.07, 0.52, -0.06, 1345.73, 82887.02, 1776.15, 1725.77, 0, 2, 306, 6668, 43, 34
1781248, 384923, -0.08, 0.53, -0.01, 1346.25, 82840.71, 1780.67, 1730.63, 0, 2, 227, 6615, 28, 34
1781312, 384956, -0.04, 0.54, -0.03, 1346.39, 82794.55, 1785.18, 1735.46, 0, 2, 184, 6605, 21, 34
1781376, 384991, -0.07, 0.54, -0.03, 1346.05, 82745.17, 1790.01, 1740.29, 0, 2, 144, 6586, -4, 34
1781440, 385024, -0.08, 0.52, -0.09, 1345.85, 82694.91, 1794.93, 1745.08, 0, 2, 99, 6536, -26, 34
1781504, 385056, -0.08, 0.53, -0.06, 1346.08, 82645.14, 1799.80, 1749.86, 0, 2, 73, 6505, -34, 34
1781568, 385089, -0.05, 0.51, -0.02, 1346.16, 82602.69, 1803.96, 1754.62, 0, 2, 112, 6502, -54, 34
1781632, 385122, -0.06, 0.50, -0.03, 1346.36, 82557.78, 1808.36, 1759.38, 0, 2, 104, 6484, -57, 34
1781696, 385155, -0.06, 0.51, 0.05, 1346.36, 82513.41, 1812.71, 1764.11, 0, 2, 109, 6460, -75, 34
1781760, 385187, -0.07, 0.51, 0.03, 1346.16, 82462.58, 1817.69, 1768.81, 0, 2, 175, 6477, -71, 34
1781824, 385222, -0.08, 0.50, 0.02, 1346.19, 82423.17, 1821.56, 1773.52, 0, 2, 204, 6449, -70, 34
1781888, 385255, -0.08, 0.50, 0.05, 1346.14, 82371.42, 1826.64, 1778.16, 0, 2, 254, 6462, -37, 34
1781952, 385286, -0.09, 0.49, 0.01, 1346.42, 82333.97, 1830.32, 1782.84, 0, 2, 297, 6433, -37, 34
