,timestamp_s,timestamp_ms,imu1_accel_x,imu1_accel_y,imu1_accel_z,imu1_gyro_x,imu1_gyro_y,imu1_gyro_z,imu1_mag_x,imu1_mag_y,imu1_mag_z,imu2_accel_x,imu2_accel_y,imu2_accel_z,imu2_gyro_x,imu2_gyro_y,imu2_gyro_z,imu2_mag_x,imu2_mag_y,imu2_mag_z,high_g_accel_x,high_g_accel_y,high_g_accel_z,baro1_temp,baro1_pres,baro2_temp,baro2_pres,gps_lat,gps_long,gps_alt,battery_voltage,pyro_cont,heading,vtg,pos_x,pos_y,pos_z,vel_x,vel_y,vel_z,q_x,q_y,q_z,q_w,state,baro_pres_avg,gps_lat_mod,gps_long_mod,imu1_accel_x_real,imu1_accel_y_real,imu1_accel_z_real,imu2_accel_x_real,imu2_accel_y_real,imu2_accel_z_real,imu1_gyro_x_real,imu1_gyro_y_real,imu1_gyro_z_real,imu2_gyro_x_real,imu2_gyro_y_real,imu2_gyro_z_real,imu1_mag_x_real,imu1_mag_y_real,imu1_mag_z_real,imu2_mag_x_real,imu2_mag_y_real,imu2_mag_z_real,imu_accel_x_avg,imu_accel_y_avg,imu_accel_z_avg,imu_gyro_x_avg,imu_gyro_y_avg,imu_gyro_z_avg,imu_mag_x_avg,imu_mag_y_avg,imu_mag_z_avg,high_g_accel_x_real,high_g_accel_y_real,high_g_accel_z_real,baro_temp_avg,baro_height
72665,7684755,0,24,1339,61,-28,84,77,-428,-3048,-1690,11,1345,27,37,1,-62,-502,-1643,821,-224,-48,-3904,32.83,1.003138415988157,30.68,1.0117443868739209,4449.45654296875,-7309.91748046875,33.0,12.761913299560549,0,0.0,0.0,0.0,0.0,31.08503607772935,0.0,0.0,0.0,0.0,0.0,0.0,0.0,13,1.0074414014310389,44.824275716145834,-73.16529134114583,0.1722832272,9.6119683842,0.43788653580000003,0.07896314580000001,9.655039191,0.1938186306,-0.034208344450000004,0.10262503335,0.09407294723750001,0.0452038837375,0.0012217265875,-0.075747048425,-0.24824,-1.76784,-0.9802,-0.29116,-0.95294,0.47618,0.1256231865,9.6335037876,0.31585258320000004,0.005497769643749997,0.05192337996875,0.009162949406250002,-0.2697,-1.36039,-0.25200999999999996,-6.59008,-1.41216,-114.85568,31.755,-131.41642667834705
72666,7684861,0,35,1346,48,-47,94,64,-428,-3048,-1690,11,1348,22,37,17,-69,-502,-1643,821,-192,-48,-3936,32.85,1.0029903774981497,30.69,1.0115963483839132,4449.45654296875,-7309.91748046875,33.0,12.761913299560549,0,0.0,0.0,0.0,0.0,32.26087614050673,0.0,0.0,0.0,0.0,0.0,0.0,0.0,13,1.0072933629410314,44.824275716145834,-73.16529134114583,0.251246373,9.6622176588,0.3445664544,0.07896314580000001,9.6765745944,0.15792629160000002,-0.0574211496125,0.114842299225,0.0781905016,0.0452038837375,0.0207693519875,-0.0842991345375,-0.24824,-1.76784,-0.9802,-0.29116,-0.95294,0.47618,0.16510475940000002,9.669396126599999,0.251246373,-0.0061086329375000005,0.06780582560625,-0.0030543164687499985,-0.2697,-1.36039,-0.25200999999999996,-5.64864,-1.41216,-115.79712,31.770000000000003,-130.1142805804678
72667,7684966,0,23,1345,56,-45,115,74,-422,-3038,-1686,6,1344,29,34,15,-58,-494,-1646,819,-256,-32,-3808,32.84,1.0031680236861584,30.69,1.0117147791759191,4449.45654296875,-7309.91748046875,33.0,12.761913299560549,0,0.0,0.0,0.0,0.0,31.08503607772935,0.0,0.0,0.0,0.0,0.0,0.0,0.0,13,1.0074414014310387,44.824275716145834,-73.16529134114583,0.1651047594,9.655039191,0.40199419680000004,0.0430708068,9.6478607232,0.2081755662,-0.0549776964375,0.14049855756250001,0.090407767475,0.041538703975,0.0183258988125,-0.07086014207500001,-0.24476,-1.76204,-0.97788,-0.28652,-0.95468,0.47502,0.1040877831,9.6514499571,0.3050848815,-0.00671949623125,0.0794122281875,0.009773812699999995,-0.26564,-1.35836,-0.25143,-7.53152,-0.94144,-112.03136,31.765,-131.4213752510158
72668,7685071,0,38,1350,54,-43,97,61,-456,-3067,-1704,12,1346,26,25,11,-68,-494,-1646,819,-288,-64,-3856,32.84,1.0031088082901554,30.69,1.0115568714532446,4449.45654296875,-7309.91748046875,33.0,12.761913299560549,0,0.0,0.0,0.0,0.0,31.94729867970644,0.0,0.0,0.0,0.0,0.0,0.0,0.0,13,1.0073328398717,44.824275716145834,-73.16529134114583,0.2727817764,9.69093153,0.3876372612,0.0861416136,9.6622176588,0.1866401628,-0.0525342432625,0.11850747898750001,0.0745253218375,0.030543164687500002,0.0134389924625,-0.08307740795,-0.26448,-1.77886,-0.98832,-0.28652,-0.95468,0.47502,0.179461695,9.6765745944,0.287138712,-0.0109955392875,0.06597323572500001,-0.004276043056249998,-0.27549999999999997,-1.36677,-0.25665,-8.47296,-1.88288,-113.44352,31.765,-130.45926408879916
72669,7685177,0,28,1350,53,-33,110,60,-456,-3067,-1704,8,1352,26,40,20,-65,-467,-1645,799,-224,-32,-3936,32.86,1.0030594621268196,30.67,1.011734517641253,4449.45654296875,-7309.91748046875,33.0,12.761913299560549,0,0.0,0.0,0.0,0.0,31.437766501389,0.0,0.0,0.0,0.0,0.0,0.0,0.0,13,1.0073969898840365,44.824275716145834,-73.16529134114583,0.20099709840000002,9.69093153,0.3804587934,0.0574277424,9.7052884656,0.1866401628,-0.0403169773875,0.13438992462500002,0.07330359525,0.048869063500000004,0.024434531750000002,-0.0794122281875,-0.26448,-1.77886,-0.98832,-0.27086,-0.9541000000000001,0.46342,0.1292124204,9.6981099978,0.2835494781,0.004276043056250001,0.07941222818750002,-0.0030543164687499985,-0.26766999999999996,-1.3664800000000001,-0.26244999999999996,-6.59008,-0.94144,-115.79712,31.765,-131.0376706576604
72670,7685282,0,34,1345,49,-31,81,69,-443,-3057,-1706,13,1344,27,44,-8,-63,-467,-1645,799,-256,-32,-3920,32.83,1.003138415988157,30.69,1.011655563779916,4449.45654296875,-7309.91748046875,33.0,12.761913299560549,0,0.0,0.0,0.0,0.0,31.437766501389,0.0,0.0,0.0,0.0,0.0,0.0,0.0,13,1.0073969898840365,44.824275716145834,-73.16529134114583,0.24406790520000002,9.655039191,0.35174492220000003,0.0933200814,9.6478607232,0.1938186306,-0.0378735242125,0.09895985358750001,0.0842991345375,0.05375596985,-0.0097738127,-0.0769687750125,-0.25694,-1.77306,-0.98948,-0.27086,-0.9541000000000001,0.46342,0.1686939933,9.6514499571,0.2727817764,0.00794122281875,0.044593020443750006,0.0036651797624999982,-0.2639,-1.36358,-0.26303,-7.53152,-0.94144,-115.3264,31.759999999999998,-131.02286352678323
72671,7685388,0,30,1345,63,-42,108,71,-443,-3057,-1706,9,1348,30,50,13,-68,-457,-1654,796,-272,-16,-3888,32.85,1.002960769800148,30.71,1.011704909943252,4449.45654296875,-7309.91748046875,33.0,12.761913299560549,0,0.0,0.0,0.0,0.0,31.94729867970644,0.0,0.0,0.0,0.0,0.0,0.0,0.0,13,1.0073328398717,44.824275716145834,-73.16529134114583,0.215354034,9.655039191,0.45224347140000004,0.0646062102,9.6765745944,0.215354034,-0.051312516675,0.13194647145000002,0.0867425877125,0.061086329375000005,0.0158824456375,-0.08307740795,-0.25694,-1.77306,-0.98948,-0.26506,-0.95932,0.46168,0.1399801221,9.665806892700001,0.33379875270000003,0.004886906350000001,0.07391445854375,0.0018325898812499991,-0.261,-1.36619,-0.2639,-8.00224,-0.47072,-114.38496,31.78,-130.46418121890437
72672,7685493,0,33,1339,52,-37,96,69,-444,-3038,-1701,10,1348,33,33,-2,-64,-457,-1654,796,-272,-96,-3872,32.85,1.0032963237108314,30.69,1.0115963483839132,4449.45654296875,-7309.91748046875,33.0,12.761913299560549,0,0.0,0.0,0.0,0.0,31.045844950912876,0.0,0.0,0.0,0.0,0.0,0.0,0.0,13,1.0074463360473724,44.824275716145834,-73.16529134114583,0.2368894374,9.6119683842,0.3732803256,0.071784678,9.6765745944,0.2368894374,-0.0452038837375,0.1172857524,0.0842991345375,0.0403169773875,-0.002443453175,-0.0781905016,-0.25752,-1.76204,-0.98658,-0.26506,-0.95932,0.46168,0.1543370577,9.6442714893,0.3050848815,-0.002443453174999999,0.0574211496125,0.0030543164687499985,-0.26129,-1.36068,-0.26245,-8.00224,-2.82432,-113.91424,31.770000000000003,-131.47005464624925
72673,7685598,0,29,1341,56,-50,115,64,-444,-3038,-1701,8,1347,28,39,20,-67,-496,-1678,780,-224,-16,-3824,32.84,1.0031285467554898,30.69,1.011655563779916,4449.45654296875,-7309.91748046875,33.0,12.761913299560549,0,0.0,0.0,0.0,0.0,31.476959913208137,0.0,0.0,0.0,0.0,0.0,0.0,0.0,13,1.007392055267703,44.824275716145834,-73.16529134114583,0.2081755662,9.626325319800001,0.40199419680000004,0.0574277424,9.6693961266,0.20099709840000002,-0.061086329375000005,0.14049855756250001,0.0781905016,0.047647336912500005,0.024434531750000002,-0.0818556813625,-0.25752,-1.76204,-0.98658,-0.28768,-0.97324,0.4524,0.1328016543,9.6478607232,0.3014956476,-0.00671949623125,0.08246654465625,-0.0018325898812499991,-0.2726,-1.36764,-0.26709,-6.59008,-0.47072,-112.50208,31.765,-130.98406729404041
72674,7685704,0,32,1345,55,-40,102,72,-425,-3057,-1686,10,1347,17,36,11,-57,-496,-1678,780,-160,-32,-3808,32.86,1.0032173698494942,30.69,1.0118036022699235,4449.45654296875,-7309.91748046875,33.0,12.761913299560549,0,0.0,0.0,0.0,0.0,30.536381093571368,0.0,0.0,0.0,0.0,0.0,0.0,0.0,13,1.0075104860597088,44.824275716145834,-73.16529134114583,0.2297109696,9.655039191,0.394815729,0.071784678,9.6693961266,0.12203395260000001,-0.048869063500000004,0.12461611192500001,0.0879643143,0.04398215715,0.0134389924625,-0.06963841548750001,-0.2465,-1.77306,-0.97788,-0.28768,-0.97324,0.4524,0.1507478238,9.6622176588,0.2584248408,-0.0024434531750000023,0.06902755219375001,0.009162949406249996,-0.26709,-1.37315,-0.26274,-4.7072,-0.94144,-112.03136,31.775,-132.04350071925992
72675,7685809,0,29,1343,52,-48,114,67,-425,-3057,-1686,9,1349,27,23,14,-75,-469,-1656,799,-224,-32,-3792,32.85,1.003207500616827,30.69,1.0114877868245744,4449.45654296875,-7309.91748046875,33.0,12.761913299560549,0,0.0,0.0,0.0,0.0,31.829710902927506,0.0,0.0,0.0,0.0,0.0,0.0,0.0,13,1.0073476437207007,44.824275716145834,-73.16529134114583,0.2081755662,9.6406822554,0.3732803256,0.0646062102,9.683753062200001,0.1938186306,-0.0586428762,0.13927683097500002,0.0818556813625,0.0280997115125,0.017104172225000002,-0.09162949406250001,-0.2465,-1.77306,-0.97788,-0.27202,-0.96048,0.46342,0.1363908882,9.6622176588,0.28354947810000003,-0.01527158234375,0.0781905016,-0.0048869063500000046,-0.25926,-1.36677,-0.25722999999999996,-6.59008,-0.94144,-111.56064,31.770000000000003,-130.59538975048648
72676,7685915,0,25,1351,46,-39,91,67,-453,-3050,-1676,7,1346,23,34,5,-70,-469,-1656,799,-208,-80,-3872,32.84,1.0034344929681718,30.68,1.0118529484332592,4449.45654296875,-7309.91748046875,33.0,12.761913299560549,0,0.0,0.0,0.0,0.0,29.47838721048582,0.0,0.0,0.0,0.0,0.0,0.0,0.0,13,1.0076437207007154,44.824275716145834,-73.16529134114583,0.179461695,9.6981099978,0.3302095188,0.050249274600000005,9.6622176588,0.1651047594,-0.047647336912500005,0.1111771194625,0.0818556813625,0.041538703975,0.0061086329375000005,-0.085520861125,-0.26274000000000003,-1.769,-0.97208,-0.27202,-0.96048,0.46342,0.1148554848,9.6801638283,0.24765713909999998,-0.003054316468750002,0.0586428762,-0.0018325898812499991,-0.26738,-1.3647399999999998,-0.25433000000000006,-6.11936,-2.3536,-113.91424,31.76,-133.21407135704368
72677,7686020,0,35,1344,49,-37,105,71,-453,-3050,-1676,11,1349,23,44,9,-62,-494,-1654,793,-208,-80,-3872,32.84,1.0031680236861584,30.68,1.0115667406859117,4449.45654296875,-7309.91748046875,33.0,12.761913299560549,0,0.0,0.0,0.0,0.0,31.672930400027106,0.0,0.0,0.0,0.0,0.0,0.0,0.0,13,1.0073673821860352,44.824275716145834,-73.16529134114583,0.251246373,9.6478607232,0.35174492220000003,0.07896314580000001,9.683753062200001,0.1651047594,-0.0452038837375,0.1282812916875,0.0867425877125,0.05375596985,0.0109955392875,-0.075747048425,-0.26274000000000003,-1.769,-0.97208,-0.28652,-0.95932,0.45994,0.16510475940000002,9.665806892700001,0.2584248408,0.004276043056250001,0.0696384154875,0.005497769643749997,-0.27463000000000004,-1.36416,-0.25607,-6.11936,-2.3536,-113.91424,31.76,-130.76540375417713
72678,7686125,0,31,1349,58,-39,97,76,-455,-3057,-1683,10,1347,24,37,13,-71,-494,-1654,793,-288,-80,-3808,32.85,1.0029903774981497,30.69,1.0117147791759191,4449.45654296875,-7309.91748046875,33.0,12.761913299560549,0,0.0,0.0,0.0,0.0,31.79051543440721,0.0,0.0,0.0,0.0,0.0,0.0,0.0,13,1.0073525783370343,44.824275716145834,-73.16529134114583,0.2225325018,9.683753062200001,0.4163511324,0.071784678,9.6693961266,0.1722832272,-0.047647336912500005,0.11850747898750001,0.09285122065000001,0.0452038837375,0.0158824456375,-0.0867425877125,-0.2639,-1.77306,-0.97614,-0.28652,-0.95932,0.45994,0.1471585899,9.676574594400002,0.2943171798,-0.0012217265875000029,0.06719496231250001,0.0030543164687500055,-0.27521,-1.36619,-0.2581,-8.47296,-2.3536,-112.03136,31.770000000000003,-130.63912541766481
72679,7686231,0,27,1345,46,-47,100,67,-455,-3057,-1683,11,1345,26,31,15,-63,-489,-1661,800,-272,-96,-3904,32.84,1.0032864544781643,30.69,1.0116062176165803,4449.45654296875,-7309.91748046875,33.0,12.761913299560549,0,0.0,0.0,0.0,0.0,31.045844950912876,0.0,0.0,0.0,0.0,0.0,0.0,0.0,13,1.0074463360473724,44.824275716145834,-73.16529134114583,0.1938186306,9.655039191,0.3302095188,0.07896314580000001,9.655039191,0.1866401628,-0.0574211496125,0.12217265875000001,0.0818556813625,0.0378735242125,0.0183258988125,-0.0769687750125,-0.2639,-1.77306,-0.97614,-0.28362,-0.96338,0.464,0.1363908882,9.655039191,0.2584248408,-0.009773812699999999,0.07024927878125001,0.002443453174999999,-0.27376,-1.36822,-0.25607,-8.00224,-2.82432,-114.85568,31.765,-131.46510464446342
72680,7686336,0,24,1345,58,-29,110,67,-462,-3057,-1681,8,1350,29,38,22,-66,-489,-1661,800,-320,-48,-3808,32.84,1.0032765852454972,30.7,1.0117937330372564,4449.45654296875,-7309.91748046875,33.0,12.761913299560549,0,0.0,0.0,0.0,0.0,30.34044373686963,0.0,0.0,0.0,0.0,0.0,0.0,0.0,13,1.0075351591413768,44.824275716145834,-73.16529134114583,0.1722832272,9.655039191,0.4163511324,0.0574277424,9.69093153,0.2081755662,-0.035430071037500004,0.13438992462500002,0.0818556813625,0.046425610325000005,0.026877984925,-0.080633954775,-0.26796,-1.77306,-0.97498,-0.28362,-0.96338,0.464,0.1148554848,9.6729853605,0.3122633493,0.005497769643750001,0.08063395477500002,0.0006108632937499997,-0.27579,-1.36822,-0.25549,-9.4144,-1.41216,-112.03136,31.770000000000003,-132.25219013362982
72681,7686442,0,32,1343,54,-47,118,60,-462,-3057,-1681,7,1347,27,36,30,-67,-490,-1647,786,-240,-160,-3856,32.85,1.0030989390574885,30.69,1.0117641253392549,4449.45654296875,-7309.91748046875,33.0,12.761913299560549,0,0.0,0.0,0.0,0.0,31.16341901683604,0.0,0.0,0.0,0.0,0.0,0.0,0.0,13,1.0074315321983716,44.824275716145834,-73.16529134114583,0.2297109696,9.6406822554,0.3876372612,0.050249274600000005,9.6693961266,0.1938186306,-0.0574211496125,0.144163737325,0.07330359525,0.04398215715,0.036651797625,-0.0818556813625,-0.26796,-1.77306,-0.97498,-0.2842,-0.95526,0.45588,0.1399801221,9.655039191,0.2907279459,-0.00671949623125,0.09040776747500001,-0.004276043056249998,-0.27608,-1.36416,-0.25954999999999995,-7.0608,-4.7072,-113.44352,31.770000000000003,-131.33886141371192
72682,7686547,0,33,1345,50,-36,113,69,-443,-3067,-1682,9,1355,23,33,22,-69,-490,-1647,786,-224,-96,-3920,32.83,1.00319763138416,30.68,1.0116851714779176,4449.45654296875,-7309.91748046875,33.0,12.761913299560549,0,0.0,0.0,0.0,0.0,31.08503607772935,0.0,0.0,0.0,0.0,0.0,0.0,0.0,13,1.0074414014310387,44.824275716145834,-73.16529134114583,0.2368894374,9.655039191,0.35892339,0.0646062102,9.726823869,0.1651047594,-0.04398215715,0.13805510438750002,0.0842991345375,0.0403169773875,0.026877984925,-0.0842991345375,-0.25694,-1.77886,-0.97556,-0.2842,-0.95526,0.45588,0.1507478238,9.69093153,0.2620140747,-0.0018325898812499991,0.08246654465625,0.0,-0.27057,-1.36706,-0.25983999999999996,-6.59008,-2.82432,-115.3264,31.755,-131.41642667834182
72683,7686652,0,31,1348,47,-35,98,71,-443,-3067,-1682,11,1348,23,37,9,-66,-477,-1648,791,-240,-32,-3856,32.85,1.003207500616827,30.69,1.01139896373057,4449.45654296875,-7309.91748046875,33.0,12.761913299560549,0,0.0,0.0,0.0,0.0,32.18248040398361,0.0,0.0,0.0,0.0,0.0,0.0,0.0,13,1.0073032321736985,44.824275716145834,-73.16529134114583,0.2225325018,9.6765745944,0.3373879866,0.07896314580000001,9.6765745944,0.1651047594,-0.0427604305625,0.11972920557500001,0.0867425877125,0.0452038837375,0.0109955392875,-0.080633954775,-0.25694,-1.77886,-0.97556,-0.27666,-0.95584,0.45878,0.1507478238,9.6765745944,0.251246373,0.0012217265874999994,0.06536237243125001,0.0030543164687499985,-0.26680000000000004,-1.36735,-0.25839,-7.0608,-0.94144,-113.44352,31.770000000000003,-130.20175727024304
72684,7686758,0,34,1347,57,-37,85,68,-438,-3047,-1671,8,1353,26,30,-10,-63,-477,-1648,791,-256,-32,-3840,32.84,1.0031778929188255,30.69,1.0115568714532446,4449.45654296875,-7309.91748046875,33.0,12.761913299560549,0,0.0,0.0,0.0,0.0,31.672930400027106,0.0,0.0,0.0,0.0,0.0,0.0,0.0,13,1.0073673821860352,44.824275716145834,-73.16529134114583,0.24406790520000002,9.6693961266,0.4091726646,0.0574277424,9.7124669334,0.1866401628,-0.0452038837375,0.1038467599375,0.08307740795,0.036651797625,-0.012217265875000001,-0.0769687750125,-0.25404,-1.76726,-0.96918,-0.27666,-0.95584,0.45878,0.1507478238,9.69093153,0.29790641370000004,-0.004276043056249998,0.045814747031250005,0.0030543164687499985,-0.26535,-1.36155,-0.2552,-7.53152,-0.94144,-112.9728,31.765,-130.76540375417713
72685,7686863,0,29,1348,59,-30,93,60,-444,-3060,-1696,6,1343,32,38,-2,-72,-480,-1682,816,-272,-32,-3840,32.84,1.0031778929188255,30.69,1.011645694547249,4449.45654296875,-7309.91748046875,33.0,12.761913299560549,0,0.0,0.0,0.0,0.0,31.32018763700036,0.0,0.0,0.0,0.0,0.0,0.0,0.0,13,1.0074117937330374,44.824275716145834,-73.16529134114583,0.2081755662,9.6765745944,0.4235296002,0.0430708068,9.6406822554,0.2297109696,-0.036651797625,0.1136205726375,0.07330359525,0.046425610325000005,-0.002443453175,-0.0879643143,-0.25752,-1.7748,-0.98368,-0.2784,-0.97556,0.47328,0.12562318649999998,9.6586284249,0.3266202849,0.004886906350000001,0.05558855973125,-0.0073303595249999964,-0.26796,-1.3751799999999998,-0.2552,-8.00224,-0.94144,-112.9728,31.765,-131.1589935363723
72686,7686968,0,26,1343,60,-44,101,70,-444,-3060,-1696,14,1350,21,39,6,-67,-480,-1682,816,-304,-32,-3808,32.85,1.003138415988157,30.68,1.0116851714779176,4449.45654296875,-7309.91748046875,33.0,12.761913299560549,0,0.0,0.0,0.0,0.0,31.32018763700036,0.0,0.0,0.0,0.0,0.0,0.0,0.0,13,1.0074117937330374,44.824275716145834,-73.16529134114583,0.1866401628,9.6406822554,0.430708068,0.10049854920000001,9.69093153,0.1507478238,-0.05375596985,0.12339438533750001,0.085520861125,0.047647336912500005,0.007330359525,-0.0818556813625,-0.25752,-1.7748,-0.98368,-0.2784,-0.97556,0.47328,0.143569356,9.665806892700001,0.2907279459,-0.0030543164687499985,0.06536237243125001,0.0018325898812499991,-0.26796,-1.3751799999999998,-0.2552,-8.94368,-0.94144,-112.03136,31.765,-131.1639335342002
72687,7687074,0,33,1346,52,-41,117,59,-441,-3037,-1695,6,1342,18,28,19,-71,-497,-1671,805,-208,48,-3856,32.84,1.0032173698494942,30.68,1.0116851714779176,4449.45654296875,-7309.91748046875,33.0,12.761913299560549,0,0.0,0.0,0.0,0.0,31.006654052575204,0.0,0.0,0.0,0.0,0.0,0.0,0.0,13,1.0074512706637058,44.824275716145834,-73.16529134114583,0.2368894374,9.6622176588,0.3732803256,0.0430708068,9.6335037876,0.1292124204,-0.0500907900875,0.1429420107375,0.0720818686625,0.034208344450000004,0.023212805162500003,-0.0867425877125,-0.25578,-1.76146,-0.9831,-0.28826,-0.96918,0.4669,0.1399801221,9.6478607232,0.251246373,-0.00794122281875,0.08307740795000002,-0.0073303595249999964,-0.27202000000000004,-1.36532,-0.2581,-6.11936,1.41216,-113.44352,31.76,-131.50883378296115
72688,7687179,0,29,1343,51,-60,111,66,-441,-3037,-1695,9,1348,27,38,17,-66,-497,-1671,805,-160,-48,-3952,32.87,1.003079200592154,30.7,1.0115766099185788,4449.45654296875,-7309.91748046875,33.0,12.761913299560549,0,0.0,0.0,0.0,0.0,31.98649506238456,0.0,0.0,0.0,0.0,0.0,0.0,0.0,13,1.0073279052553663,44.824275716145834,-73.16529134114583,0.2081755662,9.6406822554,0.36610185780000004,0.0646062102,9.6765745944,0.1938186306,-0.07330359525,0.13561165121250002,0.080633954775,0.046425610325000005,0.0207693519875,-0.080633954775,-0.25578,-1.76146,-0.9831,-0.28826,-0.96918,0.4669,0.1363908882,9.6586284249,0.27996024420000004,-0.0134389924625,0.0781905016,0.0,-0.27202000000000004,-1.36532,-0.2581,-4.7072,-1.41216,-116.26784,31.784999999999997,-130.4302759332823
72689,7687285,0,31,1343,54,-30,100,70,-445,-3076,-1742,12,1346,28,29,20,-65,-503,-1648,756,-240,-64,-3888,32.84,1.0029509005674808,30.68,1.0117838638045893,4449.45654296875,-7309.91748046875,33.0,12.761913299560549,0,0.0,0.0,0.0,0.0,31.672930400027106,0.0,0.0,0.0,0.0,0.0,0.0,0.0,13,1.0073673821860352,44.824275716145834,-73.16529134114583,0.2225325018,9.6406822554,0.3876372612,0.0861416136,9.6622176588,0.20099709840000002,-0.036651797625,0.12217265875000001,0.085520861125,0.035430071037500004,0.024434531750000002,-0.0794122281875,-0.2581,-1.78408,-1.01036,-0.29174,-0.95584,0.43848,0.1543370577,9.651449957099999,0.29431717980000005,-0.0006108632937499997,0.07330359525,0.0030543164687499985,-0.27492,-1.36996,-0.28593999999999997,-7.0608,-1.88288,-114.38496,31.76,-130.76540375417713
72690,7687390,0,26,1344,54,-49,110,72,-445,-3076,-1742,10,1348,26,44,11,-66,-491,-1668,817,-320,-32,-3824,32.85,1.0030693313594867,30.68,1.0117542561065878,4449.45654296875,-7309.91748046875,33.0,12.761913299560549,0,0.0,0.0,0.0,0.0,31.32018763700036,0.0,0.0,0.0,0.0,0.0,0.0,0.0,13,1.0074117937330374,44.824275716145834,-73.16529134114583,0.1866401628,9.6478607232,0.3876372612,0.071784678,9.6765745944,0.1866401628,-0.059864602787500006,0.13438992462500002,0.0879643143,0.05375596985,0.0134389924625,-0.080633954775,-0.2581,-1.78408,-1.01036,-0.28478,-0.96744,0.47386,0.1292124204,9.6622176588,0.287138712,-0.003054316468750002,0.07391445854375,0.0036651797624999982,-0.27144,-1.37576,-0.26825,-9.4144,-0.94144,-112.50208,31.765,-131.1639335342002
72691,7687495,0,35,1344,54,-36,81,64,-457,-3043,-1686,9,1351,26,32,1,-67,-491,-1668,817,-192,-96,-3888,32.85,1.003207500616827,30.68,1.0117937330372564,4449.45654296875,-7309.91748046875,33.0,12.761913299560549,0,0.0,0.0,0.0,0.0,30.61475763542081,0.0,0.0,0.0,0.0,0.0,0.0,0.0,13,1.0075006168270417,44.824275716145834,-73.16529134114583,0.251246373,9.6478607232,0.3876372612,0.0646062102,9.6981099978,0.1866401628,-0.04398215715,0.09895985358750001,0.0781905016,0.0390952508,0.0012217265875,-0.0818556813625,-0.26506,-1.76494,-0.97788,-0.28478,-0.96744,0.47386,0.15792629160000002,9.6729853605,0.287138712,-0.002443453174999999,0.0500907900875,-0.0018325898812499991,-0.27492,-1.36619,-0.25200999999999996,-5.64864,-2.82432,-114.38496,31.765,-131.9510768680919
72692,7687601,0,27,1343,56,-30,99,67,-457,-3043,-1686,8,1346,28,40,5,-64,-484,-1693,800,-240,-48,-3856,32.84,1.0031778929188255,30.68,1.0116753022452505,4449.45654296875,-7309.91748046875,33.0,12.761913299560549,0,0.0,0.0,0.0,0.0,31.202610829135583,0.0,0.0,0.0,0.0,0.0,0.0,0.0,13,1.007426597582038,44.824275716145834,-73.16529134114583,0.1938186306,9.6406822554,0.40199419680000004,0.0574277424,9.6622176588,0.20099709840000002,-0.036651797625,0.12095093216250001,0.0818556813625,0.048869063500000004,0.0061086329375000005,-0.0781905016,-0.26506,-1.76494,-0.97788,-0.28072,-0.98194,0.464,0.1256231865,9.651449957099999,0.3014956476,0.0061086329375000005,0.06352978255000001,0.0018325898812499991,-0.27289,-1.37344,-0.25693999999999995,-7.0608,-1.41216,-113.44352,31.76,-131.29018554099463
72693,7687706,0,25,1345,54,-46,134,61,-429,-3051,-1671,10,1348,27,38,40,-72,-484,-1693,800,-272,-96,-3872,32.85,1.003118677522823,30.71,1.011517394522576,4449.45654296875,-7309.91748046875,33.0,12.761913299560549,0,0.0,0.0,0.0,0.0,32.06488851337315,0.0,0.0,0.0,0.0,0.0,0.0,0.0,13,1.0073180360226994,44.824275716145834,-73.16529134114583,0.179461695,9.655039191,0.3876372612,0.071784678,9.6765745944,0.1938186306,-0.056199423025,0.163711362725,0.0745253218375,0.046425610325000005,0.048869063500000004,-0.0879643143,-0.24882,-1.76958,-0.96918,-0.28072,-0.98194,0.464,0.1256231865,9.665806892700001,0.2907279459,-0.004886906349999998,0.1062902131125,-0.006719496231249997,-0.26477,-1.37576,-0.25259,-8.00224,-2.82432,-113.91424,31.78,-130.33297039218093
72694,7687812,0,29,1344,52,-49,72,72,-429,-3051,-1671,11,1344,25,40,-8,-68,-512,-1680,794,-256,-112,-3904,32.83,1.00319763138416,30.68,1.0116259560819143,4449.45654296875,-7309.91748046875,33.0,12.761913299560549,0,0.0,0.0,0.0,0.0,31.32018763700036,0.0,0.0,0.0,0.0,0.0,0.0,0.0,13,1.0074117937330371,44.824275716145834,-73.16529134114583,0.2081755662,9.6478607232,0.3732803256,0.07896314580000001,9.6478607232,0.179461695,-0.059864602787500006,0.0879643143,0.0879643143,0.048869063500000004,-0.0097738127,-0.08307740795,-0.24882,-1.76958,-0.96918,-0.29696,-0.9744,0.46052,0.143569356,9.6478607232,0.2763710103,-0.005497769643750001,0.0390952508,0.002443453174999999,-0.27289,-1.37199,-0.25433000000000006,-7.53152,-3.29504,-114.85568,31.755,-131.15405353853913
72695,7687917,0,33,1352,53,-50,106,67,-446,-3024,-1686,12,1349,30,33,7,-70,-512,-1680,794,-272,-32,-3872,32.83,1.00319763138416,30.69,1.0116062176165803,4449.45654296875,-7309.91748046875,33.0,12.761913299560549,0,0.0,0.0,0.0,0.0,31.398573318085987,0.0,0.0,0.0,0.0,0.0,0.0,0.0,13,1.0074019245003702,44.824275716145834,-73.16529134114583,0.2368894374,9.7052884656,0.3804587934,0.0861416136,9.683753062200001,0.215354034,-0.061086329375000005,0.129503018275,0.0818556813625,0.0403169773875,0.008552086112500001,-0.085520861125,-0.25868,-1.75392,-0.97788,-0.29696,-0.9744,0.46052,0.1615155255,9.694520763900002,0.2979064137,-0.010384675993750002,0.06902755219375,-0.0018325898812499991,-0.27782,-1.36416,-0.25868,-8.00224,-0.94144,-113.91424,31.759999999999998,-131.06659378566604
72696,7688022,0,29,1348,53,-40,100,66,-446,-3024,-1686,7,1347,22,51,4,-69,-488,-1652,791,-192,-80,-3840,32.83,1.0033061929434983,30.69,1.0115963483839132,4449.45654296875,-7309.91748046875,33.0,12.761913299560549,0,0.0,0.0,0.0,0.0,31.006654052575204,0.0,0.0,0.0,0.0,0.0,0.0,0.0,13,1.0074512706637058,44.824275716145834,-73.16529134114583,0.2081755662,9.6765745944,0.3804587934,0.050249274600000005,9.6693961266,0.15792629160000002,-0.048869063500000004,0.12217265875000001,0.080633954775,0.062308055962500004,0.00488690635,-0.0842991345375,-0.25868,-1.75392,-0.97788,-0.28304,-0.95816,0.45878,0.1292124204,9.6729853605,0.2691925425,0.00671949623125,0.06352978255000001,-0.0018325898812499991,-0.27086,-1.35604,-0.25954999999999995,-5.64864,-2.3536,-112.9728,31.759999999999998,-131.5038823520718
72697,7688128,0,56,1347,72,27,711,103,-451,-3055,-1720,93,1379,16,105,549,-30,-488,-1652,791,-320,-112,-3888,32.84,1.0031088082901554,30.68,1.0117443868739209,4449.45654296875,-7309.91748046875,33.0,12.761913299560549,0,0.0,0.0,0.0,0.0,31.202610829135583,0.0,0.0,0.0,0.0,0.0,0.0,0.0,13,1.0074265975820382,44.824275716145834,-73.16529134114583,0.40199419680000004,9.6693961266,0.5168496816,0.6675975054000001,9.8991070962,0.1148554848,0.032986617862500005,0.8686476037125,0.1258378385125,0.1282812916875,0.6707278965375,-0.036651797625,-0.26158,-1.7719,-0.9976,-0.28304,-0.95816,0.45878,0.5347958511,9.7842516114,0.3158525832,0.080633954775,0.769687750125,0.04459302044374999,-0.27231,-1.36503,-0.26941000000000004,-9.4144,-3.29504,-114.38496,31.76,-131.29018554099463
72698,7688233,0,-15,1345,50,-76,-196,90,-451,-3055,-1720,-17,1354,30,1,-317,-58,-485,-1660,806,-256,-16,-3840,32.83,1.0029805082654824,30.69,1.0116062176165803,4449.45654296875,-7309.91748046875,33.0,12.761913299560549,0,0.0,0.0,0.0,0.0,32.26087614050673,0.0,0.0,0.0,0.0,0.0,0.0,0.0,13,1.0072933629410312,44.824275716145834,-73.16529134114583,-0.107677017,9.655039191,0.35892339,-0.12203395260000001,9.719645401200001,0.215354034,-0.09285122065000001,-0.23945841115000002,0.109955392875,0.0012217265875,-0.3872873282375,-0.07086014207500001,-0.26158,-1.7719,-0.9976,-0.2813,-0.9628,0.46748,-0.1148554848,9.6873422961,0.287138712,-0.045814747031250005,-0.31337286969375,0.019547625399999997,-0.27144,-1.36735,-0.26506,-7.53152,-0.47072,-112.9728,31.759999999999998,-130.10446918957496
72699,7688339,0,8,1349,49,-52,-86,75,-444,-3053,-1700,8,1348,22,19,-183,-61,-485,-1660,806,-144,-80,-3952,32.85,1.003148285220824,30.69,1.0114976560572415,4449.45654296875,-7309.91748046875,33.0,12.761913299560549,0,0.0,0.0,0.0,0.0,32.02569167360679,0.0,0.0,0.0,0.0,0.0,0.0,0.0,13,1.0073229706390328,44.824275716145834,-73.16529134114583,0.0574277424,9.683753062200001,0.35174492220000003,0.0574277424,9.6765745944,0.15792629160000002,-0.06352978255,-0.105068486525,0.09162949406250001,0.023212805162500003,-0.2235759655125,-0.0745253218375,-0.25752,-1.77074,-0.986,-0.2813,-0.9628,0.46748,0.0574277424,9.6801638283,0.2548356069,-0.020158488693749997,-0.16432222601875002,0.008552086112500003,-0.26941000000000004,-1.36677,-0.25926,-4.23648,-2.3536,-116.26784,31.770000000000003,-130.37670758944301
72700,7688444,0,40,1351,53,-55,124,61,-444,-3053,-1700,25,1348,10,33,26,-65,-457,-1649,806,-48,-96,-3808,32.83,1.0032469775474957,30.7,1.01146804835924,4449.45654296875,-7309.91748046875,33.0,12.761913299560549,0,0.0,0.0,0.0,0.0,31.75132019442172,0.0,0.0,0.0,0.0,0.0,0.0,0.0,13,1.0073575129533678,44.824275716145834,-73.16529134114583,0.287138712,9.6981099978,0.3804587934,0.179461695,9.6765745944,0.071784678,-0.06719496231250001,0.15149409685,0.0745253218375,0.0403169773875,0.031764891275,-0.0794122281875,-0.25752,-1.77074,-0.986,-0.26506,-0.95642,0.46748,0.23330020350000003,9.687342296099999,0.2261217357,-0.013438992462500004,0.09162949406250001,-0.002443453174999999,-0.26129,-1.36358,-0.25926,-1.41216,-2.82432,-112.03136,31.765,-130.67301227683723
72701,7688549,0,40,1344,39,-48,152,70,-428,-3068,-1740,13,1342,28,21,43,-73,-457,-1649,806,-208,-16,-3872,32.85,1.003207500616827,30.68,1.0118529484332592,4449.45654296875,-7309.91748046875,33.0,12.761913299560549,0,0.0,0.0,0.0,0.0,30.379630751319556,0.0,0.0,0.0,0.0,0.0,0.0,0.0,13,1.007530224525043,44.824275716145834,-73.16529134114583,0.287138712,9.6478607232,0.2799602442,0.0933200814,9.6335037876,0.20099709840000002,-0.0586428762,0.18570244130000002,0.085520861125,0.0256562583375,0.0525342432625,-0.0891860408875,-0.24824,-1.77944,-1.0092,-0.26506,-0.95642,0.46748,0.1902293967,9.640682255400002,0.2404786713,-0.01649330893125,0.11911834228125001,-0.0018325898812499991,-0.25665,-1.3679299999999999,-0.27086000000000005,-6.11936,-0.47072,-113.91424,31.765,-132.21343962417512
72702,7688655,0,24,1343,43,-29,129,69,-419,-3050,-1661,3,1349,8,39,18,-65,-487,-1666,785,-272,-80,-3808,32.85,1.003029854428818,30.69,1.0117147791759191,4449.45654296875,-7309.91748046875,33.0,12.761913299560549,0,0.0,0.0,0.0,0.0,31.63373584562732,0.0,0.0,0.0,0.0,0.0,0.0,0.0,13,1.0073723168023685,44.824275716145834,-73.16529134114583,0.1722832272,9.6406822554,0.3086741154,0.0215354034,9.683753062200001,0.0574277424,-0.035430071037500004,0.1576027297875,0.0842991345375,0.047647336912500005,0.021991078575,-0.0794122281875,-0.24302,-1.769,-0.96338,-0.28246,-0.96628,0.4553,0.09690931529999999,9.6622176588,0.1830509289,0.0061086329375000005,0.08979690418125,0.002443453174999999,-0.26274,-1.36764,-0.25404000000000004,-8.00224,-2.3536,-112.03136,31.770000000000003,-130.8140655363465
72703,7688760,0,32,1348,39,-41,98,62,-419,-3050,-1661,4,1349,8,40,5,-59,-487,-1666,785,-208,-16,-3824,32.85,1.003148285220824,30.69,1.0117641253392549,4449.45654296875,-7309.91748046875,33.0,12.761913299560549,0,0.0,0.0,0.0,0.0,30.96746338272567,0.0,0.0,0.0,0.0,0.0,0.0,0.0,13,1.0074562052800395,44.824275716145834,-73.16529134114583,0.2297109696,9.6765745944,0.2799602442,0.0287138712,9.683753062200001,0.0574277424,-0.0500907900875,0.11972920557500001,0.075747048425,0.048869063500000004,0.0061086329375000005,-0.0720818686625,-0.24302,-1.769,-0.96338,-0.28246,-0.96628,0.4553,0.1292124204,9.6801638283,0.16869399329999998,-0.0006108632937499997,0.06291891925625001,0.0018325898812499991,-0.26274,-1.36764,-0.25404000000000004,-6.11936,-0.47072,-112.50208,31.770000000000003,-131.557515526504
72704,7688865,0,39,1352,53,-32,135,66,-446,-3068,-1693,18,1350,32,47,32,-68,-492,-1663,794,-208,-48,-3872,32.83,1.0030397236614854,30.69,1.0115568714532446,4449.45654296875,-7309.91748046875,33.0,12.761913299560549,0,0.0,0.0,0.0,0.0,32.22167815796378,0.0,0.0,0.0,0.0,0.0,0.0,0.0,13,1.007298297557365,44.824275716145834,-73.16529134114583,0.2799602442,9.7052884656,0.3804587934,0.1292124204,9.69093153,0.2297109696,-0.0390952508,0.1649330893125,0.080633954775,0.0574211496125,0.0390952508,-0.08307740795,-0.25868,-1.77944,-0.98194,-0.28536,-0.96454,0.46052,0.2045863323,9.6981099978,0.3050848815,0.009162949406249999,0.10201417005625,-0.0012217265874999994,-0.27202000000000004,-1.3719899999999998,-0.26071,-6.11936,-1.41216,-113.91424,31.759999999999998,-130.1482048032598
72705,7688970,0,24,1350,61,-35,70,75,-446,-3068,-1693,9,1350,36,46,-15,-57,-492,-1663,794,-208,-112,-3840,32.84,1.003019985196151,30.69,1.0117147791759191,4449.45654296875,-7309.91748046875,33.0,12.761913299560549,0,0.0,0.0,0.0,0.0,31.672930400027106,0.0,0.0,0.0,0.0,0.0,0.0,0.0,13,1.0073673821860352,44.824275716145834,-73.16529134114583,0.1722832272,9.69093153,0.43788653580000003,0.0646062102,9.69093153,0.2584248408,-0.0427604305625,0.085520861125,0.09162949406250001,0.056199423025,-0.0183258988125,-0.06963841548750001,-0.25868,-1.77944,-0.98194,-0.28536,-0.96454,0.46052,0.1184447187,9.69093153,0.3481556883,0.00671949623125,0.03359748115625,0.010995539287500002,-0.27202000000000004,-1.3719899999999998,-0.26071,-6.11936,-3.29504,-112.9728,31.765,-130.76540375417713
72706,7689075,0,24,1341,60,-37,133,74,-435,-3057,-1714,6,1350,31,40,37,-68,-489,-1683,807,-192,-64,-3808,32.86,1.0032173698494942,30.69,1.0115568714532446,4449.45654296875,-7309.91748046875,33.0,12.761913299560549,0,0.0,0.0,0.0,0.0,31.516153553534075,0.0,0.0,0.0,0.0,0.0,0.0,0.0,13,1.0073871206513694,44.824275716145834,-73.16529134114583,0.1722832272,9.626325319800001,0.430708068,0.0430708068,9.69093153,0.2225325018,-0.0452038837375,0.1624896361375,0.090407767475,0.048869063500000004,0.0452038837375,-0.08307740795,-0.2523,-1.77306,-0.99412,-0.28362,-0.97614,0.46806,0.107677017,9.658628424900002,0.3266202849,0.0018325898812500026,0.1038467599375,0.0036651797624999982,-0.26796,-1.3746,-0.26303,-5.64864,-1.88288,-112.03136,31.775,-130.9502007998114
72707,7689181,0,24,1342,60,-29,75,66,-435,-3057,-1714,11,1346,22,30,-17,-71,-489,-1683,807,-224,-48,-3904,32.85,1.0031877621514926,30.7,1.0116259560819143,4449.45654296875,-7309.91748046875,33.0,12.761913299560549,0,0.0,0.0,0.0,0.0,31.359380363289777,0.0,0.0,0.0,0.0,0.0,0.0,0.0,13,1.0074068591167036,44.824275716145834,-73.16529134114583,0.1722832272,9.6335037876,0.430708068,0.07896314580000001,9.6622176588,0.15792629160000002,-0.035430071037500004,0.09162949406250001,0.080633954775,0.036651797625,-0.0207693519875,-0.0867425877125,-0.2523,-1.77306,-0.99412,-0.28362,-0.97614,0.46806,0.1256231865,9.6478607232,0.2943171798,0.0006108632937499997,0.035430071037500004,-0.0030543164687499985,-0.26796,-1.3746,-0.26303,-6.59008,-1.41216,-114.85568,31.775,-131.1202009268967
72708,7689286,0,39,1338,52,-48,136,74,-430,-3037,-1686,13,1344,19,16,50,-64,-509,-1655,793,-288,-144,-3872,32.85,1.003019985196151,30.66,1.011645694547249,4449.45654296875,-7309.91748046875,33.0,12.761913299560549,0,0.0,0.0,0.0,0.0,31.94729867970644,0.0,0.0,0.0,0.0,0.0,0.0,0.0,13,1.0073328398717,44.824275716145834,-73.16529134114583,0.2799602442,9.6047899164,0.3732803256,0.0933200814,9.6478607232,0.1363908882,-0.0586428762,0.1661548159,0.090407767475,0.0195476254,0.061086329375000005,-0.0781905016,-0.2494,-1.76146,-0.97788,-0.29522,-0.9599,0.45994,0.1866401628,9.6263253198,0.2548356069,-0.019547625399999997,0.1136205726375,0.006108632937499997,-0.27231,-1.36068,-0.25897,-8.47296,-4.23648,-113.91424,31.755000000000003,-130.46418121890437
72709,7689391,0,26,1342,48,-55,71,71,-430,-3037,-1686,6,1344,31,32,-21,-65,-509,-1655,793,-144,-32,-3856,32.85,1.0030495928941523,30.69,1.0114877868245744,4449.45654296875,-7309.91748046875,33.0,12.761913299560549,0,0.0,0.0,0.0,0.0,32.45686948169126,0.0,0.0,0.0,0.0,0.0,0.0,0.0,13,1.0072686898593632,44.824275716145834,-73.16529134114583,0.1866401628,9.6335037876,0.3445664544,0.0430708068,9.6478607232,0.2225325018,-0.06719496231250001,0.0867425877125,0.0867425877125,0.0390952508,-0.0256562583375,-0.0794122281875,-0.2494,-1.76146,-0.97788,-0.29522,-0.9599,0.45994,0.1148554848,9.640682255400002,0.2835494781,-0.014049855756250004,0.0305431646875,0.0036651797624999982,-0.27231,-1.36068,-0.25897,-4.23648,-0.94144,-113.44352,31.770000000000003,-129.89558439280816
72710,7689497,0,38,1346,46,-40,84,64,-417,-3066,-1690,18,1350,28,45,-5,-71,-488,-1660,791,-208,-48,-3840,32.85,1.0030495928941523,30.68,1.011704909943252,4449.45654296875,-7309.91748046875,33.0,12.761913299560549,0,0.0,0.0,0.0,0.0,31.594541519743668,0.0,0.0,0.0,0.0,0.0,0.0,0.0,13,1.0073772514187023,44.824275716145834,-73.16529134114583,0.2727817764,9.6622176588,0.3302095188,0.1292124204,9.69093153,0.20099709840000002,-0.048869063500000004,0.10262503335,0.0781905016,0.0549776964375,-0.0061086329375000005,-0.0867425877125,-0.24186,-1.77828,-0.9802,-0.28304,-0.9628,0.45878,0.20099709840000002,9.6765745944,0.26560330860000003,0.0030543164687499985,0.048258200206250004,-0.004276043056249998,-0.26245,-1.37054,-0.26071,-6.11936,-1.41216,-112.9728,31.765,-130.85779992852994
72711,7689602,0,32,1352,53,-28,90,67,-417,-3066,-1690,6,1348,29,34,-10,-67,-488,-1660,791,-224,-96,-3872,32.85,1.0034048852701702,30.69,1.0112706637058968,4449.45654296875,-7309.91748046875,33.0,12.761913299560549,0,0.0,0.0,0.0,0.0,31.908102525581786,0.0,0.0,0.0,0.0,0.0,0.0,0.0,13,1.0073377744880334,44.824275716145834,-73.16529134114583,0.2297109696,9.7052884656,0.3804587934,0.0430708068,9.6765745944,0.2081755662,-0.034208344450000004,0.109955392875,0.0818556813625,0.041538703975,-0.012217265875000001,-0.0818556813625,-0.24186,-1.77828,-0.9802,-0.28304,-0.9628,0.45878,0.1363908882,9.69093153,0.2943171798,0.0036651797624999982,0.048869063500000004,0.0,-0.26245,-1.37054,-0.26071,-6.59008,-2.82432,-113.91424,31.770000000000003,-130.50791765110887
72712,7689708,0,32,1346,52,-43,123,66,-441,-3063,-1682,8,1350,24,42,25,-73,-480,-1656,805,-224,-80,-3840,32.83,1.0032469775474957,30.69,1.011823340735258,4449.45654296875,-7309.91748046875,33.0,12.761913299560549,0,0.0,0.0,0.0,0.0,30.34044373686963,0.0,0.0,0.0,0.0,0.0,0.0,0.0,13,1.0075351591413768,44.824275716145834,-73.16529134114583,0.2297109696,9.6622176588,0.3732803256,0.0574277424,9.69093153,0.1722832272,-0.0525342432625,0.1502723702625,0.080633954775,0.051312516675,0.030543164687500002,-0.0891860408875,-0.25578,-1.77654,-0.97556,-0.2784,-0.96048,0.4669,0.143569356,9.6765745944,0.2727817764,-0.0006108632937499997,0.09040776747500001,-0.004276043056249998,-0.26709,-1.3685100000000001,-0.25433,-6.59008,-2.3536,-112.9728,31.759999999999998,-132.24721440925538
72713,7689813,0,28,1349,54,-38,116,69,-441,-3063,-1682,12,1346,27,36,17,-72,-480,-1656,805,-144,-48,-3840,32.85,1.003207500616827,30.68,1.0116851714779176,4449.45654296875,-7309.91748046875,33.0,12.761913299560549,0,0.0,0.0,0.0,0.0,31.045844950912876,0.0,0.0,0.0,0.0,0.0,0.0,0.0,13,1.0074463360473724,44.824275716145834,-73.16529134114583,0.20099709840000002,9.683753062200001,0.3876372612,0.0861416136,9.6622176588,0.1938186306,-0.046425610325000005,0.14172028415000001,0.0842991345375,0.04398215715,0.0207693519875,-0.0879643143,-0.25578,-1.77654,-0.97556,-0.2784,-0.96048,0.4669,0.143569356,9.6729853605,0.2907279459,-0.0012217265875000029,0.08124481806875,-0.0018325898812499991,-0.26709,-1.3685100000000001,-0.25433,-4.23648,-1.41216,-112.9728,31.765,-131.47005464624925
72714,7689918,0,38,1344,58,-42,135,71,-427,-3061,-1693,11,1339,33,35,36,-65,-501,-1658,765,-192,-48,-3808,32.85,1.0030495928941523,30.68,1.0115667406859117,4449.45654296875,-7309.91748046875,33.0,12.761913299560549,0,0.0,0.0,0.0,0.0,32.14328287855689,0.0,0.0,0.0,0.0,0.0,0.0,0.0,13,1.007308166790032,44.824275716145834,-73.16529134114583,0.2727817764,9.6478607232,0.4163511324,0.07896314580000001,9.6119683842,0.2368894374,-0.051312516675,0.1649330893125,0.0867425877125,0.0427604305625,0.04398215715,-0.0794122281875,-0.24766,-1.77538,-0.98194,-0.29058,-0.96164,0.4437,0.17587246110000002,9.6299145537,0.3266202849,-0.004276043056250001,0.10445762323125,0.0036651797624999982,-0.26912,-1.3685100000000001,-0.26912,-5.64864,-1.41216,-112.03136,31.765,-130.24549523258355
72715,7690024,0,30,1341,52,-49,96,71,-427,-3061,-1693,9,1339,19,42,-19,-65,-501,-1658,765,-192,-16,-3856,32.84,1.0031778929188255,30.69,1.0117147791759191,4449.45654296875,-7309.91748046875,33.0,12.761913299560549,0,0.0,0.0,0.0,0.0,31.045844950912876,0.0,0.0,0.0,0.0,0.0,0.0,0.0,13,1.0074463360473724,44.824275716145834,-73.16529134114583,0.215354034,9.626325319800001,0.3732803256,0.0646062102,9.6119683842,0.1363908882,-0.059864602787500006,0.1172857524,0.0867425877125,0.051312516675,-0.023212805162500003,-0.0794122281875,-0.24766,-1.77538,-0.98194,-0.29058,-0.96164,0.4437,0.1399801221,9.619146852,0.2548356069,-0.004276043056250001,0.04703647361875,0.0036651797624999982,-0.26912,-1.3685100000000001,-0.26912,-5.64864,-0.47072,-113.44352,31.765,-131.46510464446342
72716,7690129,0,32,1346,46,-48,103,70,-458,-3055,-1669,9,1342,22,38,5,-64,-526,-1660,789,-192,-80,-3952,32.85,1.003079200592154,30.68,1.0117246484085862,4449.45654296875,-7309.91748046875,33.0,12.761913299560549,0,0.0,0.0,0.0,0.0,31.398573318085987,0.0,0.0,0.0,0.0,0.0,0.0,0.0,13,1.0074019245003702,44.824275716145834,-73.16529134114583,0.2297109696,9.6622176588,0.3302095188,0.0646062102,9.6335037876,0.15792629160000002,-0.0586428762,0.1258378385125,0.085520861125,0.046425610325000005,0.0061086329375000005,-0.0781905016,-0.26564,-1.7719,-0.96802,-0.30508,-0.9628,0.45762,0.1471585899,9.6478607232,0.2440679052,-0.006108632937499997,0.065973235725,0.0036651797624999982,-0.28536,-1.36735,-0.2552,-5.64864,-2.3536,-116.26784,31.765,-131.07646806462455
72717,7690235,0,35,1344,56,-34,61,66,-458,-3055,-1669,13,1349,30,46,-33,-69,-526,-1660,789,-192,-64,-3888,32.84,1.003079200592154,30.7,1.0116654330125834,4449.45654296875,-7309.91748046875,33.0,12.761913299560549,0,0.0,0.0,0.0,0.0,31.63373584562732,0.0,0.0,0.0,0.0,0.0,0.0,0.0,13,1.0073723168023687,44.824275716145834,-73.16529134114583,0.251246373,9.6478607232,0.40199419680000004,0.0933200814,9.683753062200001,0.215354034,-0.041538703975,0.0745253218375,0.080633954775,0.056199423025,-0.0403169773875,-0.0842991345375,-0.26564,-1.7719,-0.96802,-0.30508,-0.9628,0.45762,0.1722832272,9.665806892700001,0.3086741154,0.007330359525,0.017104172225000002,-0.0018325898812499991,-0.28536,-1.36735,-0.2552,-5.64864,-1.88288,-114.38496,31.770000000000003,-130.8091369721133
72718,7690340,0,27,1350,49,-38,126,55,-450,-3057,-1679,11,1348,15,38,36,-75,-469,-1662,784,-304,-48,-3856,32.85,1.0029805082654824,30.7,1.01146804835924,4449.45654296875,-7309.91748046875,33.0,12.761913299560549,0,0.0,0.0,0.0,0.0,32.809671896217495,0.0,0.0,0.0,0.0,0.0,0.0,0.0,13,1.007224278312361,44.824275716145834,-73.16529134114583,0.1938186306,9.69093153,0.35174492220000003,0.07896314580000001,9.6765745944,0.107677017,-0.046425610325000005,0.153937550025,0.06719496231250001,0.046425610325000005,0.04398215715,-0.09162949406250001,-0.261,-1.77306,-0.97382,-0.27202,-0.96396,0.45472,0.1363908882,9.683753062200001,0.2297109696,0.0,0.09895985358750001,-0.012217265875000001,-0.26651,-1.3685100000000001,-0.25955,-8.94368,-1.41216,-113.44352,31.775,-129.50191518658244
72719,7690445,0,28,1345,60,-37,77,80,-446,-3078,-1689,5,1346,23,45,-24,-65,-469,-1662,784,-272,-80,-3776,32.84,1.0031778929188255,30.68,1.0118529484332592,4449.45654296875,-7309.91748046875,33.0,12.761913299560549,0,0.0,0.0,0.0,0.0,30.49719316533686,0.0,0.0,0.0,0.0,0.0,0.0,0.0,13,1.0075154206760424,44.824275716145834,-73.16529134114583,0.20099709840000002,9.655039191,0.430708068,0.035892339,9.6622176588,0.1651047594,-0.0452038837375,0.09407294723750001,0.09773812700000001,0.0549776964375,-0.0293214381,-0.0794122281875,-0.25868,-1.78524,-0.97962,-0.27202,-0.96396,0.45472,0.1184447187,9.6586284249,0.2979064137,0.004886906350000001,0.032375754568750005,0.009162949406250002,-0.26535,-1.3746,-0.26245,-8.00224,-2.3536,-111.08992,31.76,-132.07728938476993
72720,7690551,0,31,1348,53,-45,134,67,-446,-3078,-1689,11,1342,29,38,39,-65,-483,-1648,764,-256,-32,-3808,32.84,1.0030594621268196,30.69,1.0117147791759191,4449.45654296875,-7309.91748046875,33.0,12.761913299560549,0,0.0,0.0,0.0,0.0,31.516153553534075,0.0,0.0,0.0,0.0,0.0,0.0,0.0,13,1.0073871206513694,44.824275716145834,-73.16529134114583,0.2225325018,9.6765745944,0.3804587934,0.07896314580000001,9.6335037876,0.2081755662,-0.0549776964375,0.163711362725,0.0818556813625,0.046425610325000005,0.047647336912500005,-0.0794122281875,-0.25868,-1.78524,-0.97962,-0.28014,-0.95584,0.44312,0.1507478238,9.655039191,0.2943171798,-0.004276043056249998,0.10567934981875,0.0012217265874999994,-0.26941000000000004,-1.37054,-0.26825,-7.53152,-0.94144,-112.03136,31.765,-130.94033509602394
72721,7690656,0,28,1345,51,-42,111,76,-449,-3062,-1682,7,1346,26,29,11,-64,-483,-1648,764,-240,-96,-3888,32.85,1.003079200592154,30.68,1.0117443868739209,4449.45654296875,-7309.91748046875,33.0,12.761913299560549,0,0.0,0.0,0.0,0.0,31.32018763700036,0.0,0.0,0.0,0.0,0.0,0.0,0.0,13,1.0074117937330374,44.824275716145834,-73.16529134114583,0.20099709840000002,9.655039191,0.36610185780000004,0.050249274600000005,9.6622176588,0.1866401628,-0.051312516675,0.13561165121250002,0.09285122065000001,0.035430071037500004,0.0134389924625,-0.0781905016,-0.26042,-1.77596,-0.97556,-0.28014,-0.95584,0.44312,0.1256231865,9.6586284249,0.2763710103,-0.00794122281875,0.0745253218375,0.007330359525000003,-0.27027999999999996,-1.3659,-0.26622,-7.0608,-2.82432,-114.38496,31.765,-131.1639335342002
72722,7690762,0,29,1344,49,-58,127,71,-449,-3062,-1682,7,1346,25,24,26,-71,-471,-1637,822,-240,-80,-3808,32.84,1.0031778929188255,30.68,1.0115667406859117,4449.45654296875,-7309.91748046875,33.0,12.761913299560549,0,0.0,0.0,0.0,0.0,31.63373584562732,0.0,0.0,0.0,0.0,0.0,0.0,0.0,13,1.0073723168023685,44.824275716145834,-73.16529134114583,0.2081755662,9.6478607232,0.35174492220000003,0.050249274600000005,9.6622176588,0.179461695,-0.07086014207500001,0.1551592766125,0.0867425877125,0.0293214381,0.031764891275,-0.0867425877125,-0.26042,-1.77596,-0.97556,-0.27318,-0.94946,0.47676,0.1292124204,9.655039191,0.26560330860000003,-0.020769351987500004,0.09346208394375,0.0,-0.2668,-1.3627099999999999,-0.24939999999999998,-7.0608,-2.3536,-112.03136,31.76,-130.8091369721133
72723,7690867,0,31,1347,53,-43,69,77,-471,-3073,-1664,11,1348,26,28,-24,-60,-471,-1637,822,-224,-32,-3744,32.85,1.003118677522823,30.71,1.0114976560572415,4449.45654296875,-7309.91748046875,33.0,12.761913299560549,0,0.0,0.0,0.0,0.0,32.14328287855689,0.0,0.0,0.0,0.0,0.0,0.0,0.0,13,1.007308166790032,44.824275716145834,-73.16529134114583,0.2225325018,9.6693961266,0.3804587934,0.07896314580000001,9.6765745944,0.1866401628,-0.0525342432625,0.0842991345375,0.09407294723750001,0.034208344450000004,-0.0293214381,-0.07330359525,-0.27318,-1.78234,-0.96512,-0.27318,-0.94946,0.47676,0.1507478238,9.6729853605,0.2835494781,-0.009162949406249999,0.02748884821875,0.010384675993750002,-0.27318,-1.3659,-0.24417999999999998,-6.59008,-0.94144,-110.14848,31.78,-130.24549523258355
72724,7690972,0,38,1347,53,-43,121,56,-471,-3073,-1664,21,1347,29,42,25,-76,-497,-1643,780,-208,-16,-3824,32.84,1.0031680236861584,30.69,1.0115963483839132,4449.45654296875,-7309.91748046875,33.0,12.761913299560549,0,0.0,0.0,0.0,0.0,31.55534742237614,0.0,0.0,0.0,0.0,0.0,0.0,0.0,13,1.0073821860350358,44.824275716145834,-73.16529134114583,0.2727817764,9.6693961266,0.3804587934,0.1507478238,9.6693961266,0.2081755662,-0.0525342432625,0.1478289170875,0.06841668890000001,0.051312516675,0.030543164687500002,-0.09285122065000001,-0.27318,-1.78234,-0.96512,-0.28826,-0.95294,0.4524,0.2117648001,9.6693961266,0.2943171798,-0.0006108632937499997,0.08918604088750001,-0.012217265875000001,-0.28071999999999997,-1.36764,-0.25636,-6.11936,-0.47072,-112.50208,31.765,-130.89660264303672
72725,7691078,0,41,1345,48,-34,103,65,-445,-3061,-1749,20,1353,26,44,10,-62,-497,-1643,780,-272,-16,-3872,32.85,1.0030989390574885,30.68,1.0116851714779176,4449.45654296875,-7309.91748046875,33.0,12.761913299560549,0,0.0,0.0,0.0,0.0,31.476959913208137,0.0,0.0,0.0,0.0,0.0,0.0,0.0,13,1.0073920552677031,44.824275716145834,-73.16529134114583,0.2943171798,9.655039191,0.3445664544,0.143569356,9.7124669334,0.1866401628,-0.041538703975,0.1258378385125,0.0794122281875,0.05375596985,0.012217265875000001,-0.075747048425,-0.2581,-1.77538,-1.01442,-0.28826,-0.95294,0.4524,0.21894326790000002,9.683753062200001,0.26560330860000003,0.0061086329375000005,0.06902755219375,0.0018325898812499991,-0.27318,-1.36416,-0.28101000000000004,-8.00224,-0.47072,-113.91424,31.765,-130.98900157513765
72726,7691183,0,19,1348,59,-39,128,71,-445,-3061,-1749,4,1343,32,35,24,-62,-511,-1653,808,-304,-96,-3872,32.86,1.0030594621268196,30.69,1.0117147791759191,4449.45654296875,-7309.91748046875,33.0,12.761913299560549,0,0.0,0.0,0.0,0.0,31.516153553534075,0.0,0.0,0.0,0.0,0.0,0.0,0.0,13,1.0073871206513694,44.824275716145834,-73.16529134114583,0.1363908882,9.6765745944,0.4235296002,0.0287138712,9.6406822554,0.2297109696,-0.047647336912500005,0.1563810032,0.0867425877125,0.0427604305625,0.0293214381,-0.075747048425,-0.2581,-1.77538,-1.01442,-0.29638,-0.95874,0.46864,0.0825523797,9.6586284249,0.3266202849,-0.0024434531750000023,0.09285122065000001,0.005497769643749997,-0.27724,-1.36706,-0.2728900000000001,-8.94368,-2.82432,-113.91424,31.775,-130.9502007998114
72727,7691288,0,33,1339,46,-44,141,56,-452,-3100,-1722,10,1346,30,38,42,-79,-511,-1653,808,-224,-80,-3856,32.85,1.003029854428818,30.69,1.0117147791759191,4449.45654296875,-7309.91748046875,33.0,12.761913299560549,0,0.0,0.0,0.0,0.0,31.63373584562732,0.0,0.0,0.0,0.0,0.0,0.0,0.0,13,1.0073723168023685,44.824275716145834,-73.16529134114583,0.2368894374,9.6119683842,0.3302095188,0.071784678,9.6622176588,0.215354034,-0.05375596985,0.1722634488375,0.06841668890000001,0.046425610325000005,0.051312516675,-0.09651640041250001,-0.26216,-1.798,-0.99876,-0.29638,-0.95874,0.46864,0.1543370577,9.6370930215,0.2727817764,-0.0036651797624999982,0.11178798275625,-0.01404985575625,-0.27927,-1.37837,-0.26505999999999996,-6.59008,-2.3536,-113.44352,31.770000000000003,-130.8140655363465
72728,7691394,0,25,1342,59,-35,22,88,-452,-3100,-1722,5,1346,27,37,-81,-42,-474,-1658,787,-288,-64,-3776,32.85,1.0032568467801628,30.69,1.0115963483839132,4449.45654296875,-7309.91748046875,33.0,12.761913299560549,0,0.0,0.0,0.0,0.0,31.202610829135583,0.0,0.0,0.0,0.0,0.0,0.0,0.0,13,1.007426597582038,44.824275716145834,-73.16529134114583,0.179461695,9.6335037876,0.4235296002,0.035892339,9.6622176588,0.1938186306,-0.0427604305625,0.026877984925,0.1075119397,0.0452038837375,-0.09895985358750001,-0.051312516675,-0.26216,-1.798,-0.99876,-0.27492,-0.96164,0.45646,0.107677017,9.6478607232,0.3086741154,0.0012217265874999994,-0.03604093433125,0.0280997115125,-0.26854,-1.37982,-0.27115,-8.47296,-1.88288,-111.08992,31.770000000000003,-131.29512982628307
72729,7691499,0,24,1342,50,-48,153,52,-442,-3087,-1704,7,1344,26,20,57,-83,-509,-1663,766,-144,-112,-3920,32.85,1.003029854428818,30.7,1.01146804835924,4449.45654296875,-7309.91748046875,33.0,12.761913299560549,0,0.0,0.0,0.0,0.0,32.61366826897054,0.0,0.0,0.0,0.0,0.0,0.0,0.0,13,1.007248951394029,44.824275716145834,-73.16529134114583,0.1722832272,9.6335037876,0.35892339,0.050249274600000005,9.6478607232,0.1866401628,-0.0586428762,0.18692416788750002,0.06352978255,0.024434531750000002,0.06963841548750001,-0.1014033067625,-0.25636,-1.79046,-0.98832,-0.29522,-0.96454,0.44428,0.1112662509,9.640682255400002,0.2727817764,-0.017104172225,0.12828129168750002,-0.018936762106250005,-0.27579,-1.3775,-0.27202,-4.23648,-3.29504,-115.3264,31.775,-129.72062285178316
72730,7691605,0,32,1344,38,-38,96,62,-442,-3087,-1704,11,1340,13,26,-5,-70,-509,-1663,766,-272,-64,-3856,32.85,1.0030495928941523,30.69,1.0114483098939058,4449.45654296875,-7309.91748046875,33.0,12.761913299560549,0,0.0,0.0,0.0,0.0,32.61366826897054,0.0,0.0,0.0,0.0,0.0,0.0,0.0,13,1.007248951394029,44.824275716145834,-73.16529134114583,0.2297109696,9.6478607232,0.2727817764,0.07896314580000001,9.619146852,0.0933200814,-0.046425610325000005,0.1172857524,0.075747048425,0.031764891275,-0.0061086329375000005,-0.085520861125,-0.25636,-1.79046,-0.98832,-0.29522,-0.96454,0.44428,0.1543370577,9.6335037876,0.18305092890000002,-0.007330359525000003,0.05558855973125,-0.004886906349999998,-0.27579,-1.3775,-0.27202,-8.00224,-1.88288,-113.44352,31.770000000000003,-129.72062285178316
72731,7691710,0,32,1343,51,-41,14,75,-451,-3063,-1675,27,1347,39,39,-64,-64,-474,-1647,814,-240,-80,-3824,32.85,1.003029854428818,30.68,1.0118628176659266,4449.45654296875,-7309.91748046875,33.0,12.761913299560549,0,0.0,0.0,0.0,0.0,31.045844950912876,0.0,0.0,0.0,0.0,0.0,0.0,0.0,13,1.0074463360473724,44.824275716145834,-73.16529134114583,0.2297109696,9.6406822554,0.36610185780000004,0.1938186306,9.6693961266,0.2799602442,-0.0500907900875,0.017104172225000002,0.09162949406250001,0.047647336912500005,-0.0781905016,-0.0781905016,-0.26158,-1.77654,-0.9715,-0.27492,-0.95526,0.47212,0.2117648001,9.655039191,0.323031051,-0.0012217265874999994,-0.0305431646875,0.006719496231250004,-0.26825,-1.3659,-0.24969000000000002,-7.0608,-2.3536,-112.50208,31.765,-131.47005464624925
72732,7691815,0,34,1343,51,-41,161,38,-451,-3063,-1675,17,1351,23,34,79,-86,-474,-1647,814,-176,-64,-3792,32.84,1.003019985196151,30.69,1.011823340735258,4449.45654296875,-7309.91748046875,33.0,12.761913299560549,0,0.0,0.0,0.0,0.0,31.241802869923266,0.0,0.0,0.0,0.0,0.0,0.0,0.0,13,1.0074216629657045,44.824275716145834,-73.16529134114583,0.24406790520000002,9.6406822554,0.36610185780000004,0.12203395260000001,9.6981099978,0.1651047594,-0.0500907900875,0.19669798058750002,0.046425610325000005,0.041538703975,0.09651640041250001,-0.105068486525,-0.26158,-1.77654,-0.9715,-0.27492,-0.95526,0.47212,0.18305092890000002,9.669396126599999,0.26560330860000003,-0.004276043056250001,0.1466071905,-0.0293214381,-0.26825,-1.3659,-0.24969000000000002,-5.17792,-1.88288,-111.56064,31.765,-131.24645512774228
72733,7691921,0,33,1319,80,-34,88,71,-472,-3029,-1733,19,1327,63,52,-9,-66,-482,-1663,800,-320,-48,-3888,32.85,1.003079200592154,30.68,1.0118134715025906,4449.45654296875,-7309.91748046875,33.0,12.761913299560549,0,0.0,0.0,0.0,0.0,31.045844950912876,0.0,0.0,0.0,0.0,0.0,0.0,0.0,13,1.0074463360473724,44.824275716145834,-73.16529134114583,0.2368894374,9.4683990282,0.574277424,0.1363908882,9.5258267706,0.45224347140000004,-0.041538703975,0.1075119397,0.0867425877125,0.06352978255,-0.0109955392875,-0.080633954775,-0.27376,-1.75682,-1.00514,-0.27956,-0.96454,0.464,0.1866401628,9.497112899400001,0.5132604477,0.010995539287499998,0.048258200206250004,0.0030543164687499985,-0.27666,-1.36068,-0.27057,-9.4144,-1.41216,-114.38496,31.765,-131.47005464624925
72734,7692026,0,30,1354,52,-36,120,69,-472,-3029,-1733,10,1358,38,28,28,-62,-482,-1663,800,-192,-16,-3888,32.84,1.003325931408833,30.68,1.011655563779916,4449.45654296875,-7309.91748046875,33.0,12.761913299560549,0,0.0,0.0,0.0,0.0,30.693135091101496,0.0,0.0,0.0,0.0,0.0,0.0,0.0,13,1.0074907475943746,44.824275716145834,-73.16529134114583,0.215354034,9.719645401200001,0.3732803256,0.071784678,9.7483592724,0.2727817764,-0.04398215715,0.1466071905,0.0842991345375,0.034208344450000004,0.034208344450000004,-0.075747048425,-0.27376,-1.75682,-1.00514,-0.27956,-0.96454,0.464,0.143569356,9.7340023368,0.323031051,-0.004886906349999998,0.09040776747500001,0.004276043056249998,-0.27666,-1.36068,-0.27057,-5.64864,-0.47072,-114.38496,31.76,-131.85865771329625
72735,7692132,0,-17,1368,13,-37,150,77,-444,-3052,-1729,-3,1356,64,41,59,-62,-500,-1647,834,-304,-32,-3888,32.84,1.0033456698741672,30.7,1.011734517641253,4449.45654296875,-7309.91748046875,33.0,12.194717407226562,0,0.0,0.0,0.0,0.0,30.301256950870524,0.0,0.0,0.0,0.0,0.0,0.0,0.0,13,1.0075400937577101,44.824275716145834,-73.16529134114583,-0.12203395260000001,9.8201439504,0.0933200814,-0.0215354034,9.7340023368,0.4594219392,-0.0452038837375,0.18325898812500002,0.09407294723750001,0.0500907900875,0.0720818686625,-0.075747048425,-0.25752,-1.77016,-1.00282,-0.29,-0.95526,0.48372,-0.071784678,9.7770731436,0.2763710103,0.0024434531750000023,0.12767042839375,0.009162949406250002,-0.27376,-1.3627099999999999,-0.25955000000000006,-8.94368,-0.94144,-114.38496,31.770000000000003,-132.29591468359948
72736,7692237,0,-16,1361,17,-24,355,71,-446,-3050,-1682,14,1351,86,61,240,-72,-500,-1647,834,-288,-32,-3840,32.86,1.003158154453491,30.69,1.011823340735258,4449.45654296875,-7309.91748046875,33.0,12.761913299560549,0,0.0,0.0,0.0,0.0,30.693135091101496,0.0,0.0,0.0,0.0,0.0,0.0,0.0,13,1.0074907475943746,44.824275716145834,-73.16529134114583,-0.1148554848,9.7698946758,0.12203395260000001,0.10049854920000001,9.6981099978,0.6173482308,-0.0293214381,0.43371293856250004,0.0867425877125,0.0745253218375,0.293214381,-0.0879643143,-0.25868,-1.769,-0.97556,-0.29,-0.95526,0.48372,-0.007178467799999998,9.7340023368,0.36969109170000003,0.022601941868750003,0.36346365978125006,-0.0006108632937499997,-0.27434000000000003,-1.36213,-0.24592,-8.47296,-0.94144,-112.9728,31.775,-131.86858344013135
72737,7692342,0,28,1350,31,-30,199,61,-446,-3050,-1682,1,1334,27,53,91,-71,-493,-1654,789,-224,-80,-3888,32.85,1.003148285220824,30.69,1.0115568714532446,4449.45654296875,-7309.91748046875,33.0,12.761913299560549,0,0.0,0.0,0.0,0.0,31.79051543440721,0.0,0.0,0.0,0.0,0.0,0.0,0.0,13,1.0073525783370343,44.824275716145834,-73.16529134114583,0.20099709840000002,9.69093153,0.2225325018,0.0071784678,9.5760760452,0.1938186306,-0.036651797625,0.24312359091250002,0.0745253218375,0.0647515091375,0.1111771194625,-0.0867425877125,-0.25868,-1.769,-0.97556,-0.28594,-0.95932,0.45762,0.10408778310000001,9.6335037876,0.2081755662,0.014049855756249997,0.1771503551875,-0.006108632937499997,-0.27231000000000005,-1.36416,-0.25897,-6.59008,-2.3536,-114.38496,31.770000000000003,-130.63912541766481
72738,7692448,0,49,1344,75,-34,147,75,-455,-3034,-1702,34,1353,44,47,43,-62,-493,-1654,789,-176,0,-3888,32.85,1.0032864544781643,30.68,1.0117246484085862,4449.45654296875,-7309.91748046875,33.0,12.761913299560549,0,0.0,0.0,0.0,0.0,30.575569250266017,0.0,0.0,0.0,0.0,0.0,0.0,0.0,13,1.0075055514433753,44.824275716145834,-73.16529134114583,0.35174492220000003,9.6478607232,0.538385085,0.24406790520000002,9.7124669334,0.31585258320000004,-0.041538703975,0.1795938083625,0.09162949406250001,0.0574211496125,0.0525342432625,-0.075747048425,-0.2639,-1.75972,-0.98716,-0.28594,-0.95932,0.45762,0.29790641370000004,9.6801638283,0.42711883410000007,0.00794122281875,0.1160640258125,0.007941222818750003,-0.27492000000000005,-1.3595199999999998,-0.26477,-5.17792,0.0,-114.38496,31.765,-131.99480463139327
72739,7692553,0,27,1358,-9,6,124,65,-455,-3034,-1702,3,1370,42,38,20,-70,-476,-1669,783,-240,-16,-3904,32.85,1.0029805082654824,30.69,1.0115568714532446,4449.45654296875,-7309.91748046875,33.0,12.761913299560549,0,0.0,0.0,0.0,0.0,32.45686948169126,0.0,0.0,0.0,0.0,0.0,0.0,0.0,13,1.0072686898593635,44.824275716145834,-73.16529134114583,0.1938186306,9.7483592724,-0.0646062102,0.0215354034,9.834500886,0.3014956476,0.007330359525,0.15149409685,0.0794122281875,0.046425610325000005,0.024434531750000002,-0.085520861125,-0.2639,-1.75972,-0.98716,-0.27608,-0.96802,0.45414,0.10767701700000001,9.791430079200001,0.1184447187,0.026877984925,0.08796431430000001,-0.0030543164687499985,-0.26999,-1.36387,-0.26651,-7.0608,-0.47072,-114.85568,31.770000000000003,-129.8955843928134
72740,7692659,0,-399,13331,-594,-251,1304,235,-441,-3050,-1697,-673,13127,-433,-76,1203,59,-476,-1669,783,-3040,-128,-3664,32.84,1.0027436466814703,30.7,1.0113002714038983,4449.45654296875,-7309.91748046875,33.0,12.761913299560549,0,0.0,0.0,0.0,0.0,34.41711723379199,0.0,0.0,0.0,0.0,0.0,0.0,0.0,13,1.0070219590426843,44.824275716145834,-73.16529134114583,-2.8642086522000003,95.6961542418,-4.2640098732,-4.8311088294,94.2317468106,-3.1082765574,-0.3066533734625,1.5931314701000001,0.2871057480625,-0.09285122065000001,1.4697370847625,0.0720818686625,-0.25578,-1.769,-0.98426,-0.27608,-0.96802,0.45414,-3.8476587408,94.9639505262,-3.6861432153,-0.19975229705625,1.53143427743125,0.1795938083625,-0.26593,-1.36851,-0.26506,-89.4368,-3.76576,-107.79488,31.770000000000003,-127.7034446967958
72741,7692764,0,846,12667,263,-82,1324,309,-441,-3050,-1697,1411,12559,1082,11,1108,145,-508,-1652,757,-2896,-352,-3616,32.85,1.0029212928694795,30.7,1.0113693560325685,4449.45654296875,-7309.91748046875,33.0,12.761913299560549,0,0.0,0.0,0.0,0.0,33.43692190910863,0.0,0.0,0.0,0.0,0.0,0.0,0.0,13,1.007145324451024,44.824275716145834,-73.16529134114583,6.0729837588,90.9296516226,1.8879370314000001,10.1288180658,90.15437710020001,7.7671021596,-0.100181580175,1.61756600185,0.3775135155375,0.0134389924625,1.3536730589500001,0.1771503551875,-0.25578,-1.769,-0.98426,-0.29464,-0.95816,0.43906,8.1009009123,90.5420143614,4.8275195955,-0.04337129385625001,1.4856195304000002,0.2773319353625,-0.27521,-1.36358,-0.2726,-85.20032,-10.35584,-106.38272,31.775,-128.8020078035258
72742,7692869,0,-9,13669,175,77,-2142,-19,-475,-3051,-1742,301,13591,557,78,-2080,-150,-508,-1652,757,-3040,-144,-3872,32.85,1.002408092770787,30.68,1.011033802121885,4449.45654296875,-7309.91748046875,33.0,12.761913299560549,0,0.0,0.0,0.0,0.0,36.8093937754171,0.0,0.0,0.0,0.0,0.0,0.0,0.0,13,1.0067209474463361,44.824275716145834,-73.16529134114583,-0.0646062102,98.1224763582,1.256231865,2.1607188078,97.56255586980001,3.9984065646,0.09407294723750001,-2.6169383504250003,-0.023212805162500003,0.09529467382500001,-2.541191302,-0.18325898812500002,-0.2755,-1.76958,-1.01036,-0.29464,-0.95816,0.43906,1.0480562988,97.842516114,2.6273192148,0.09468381053125001,-2.5790648262125,-0.10323589664375002,-0.28507000000000005,-1.36387,-0.28564999999999996,-89.4368,-4.23648,-113.91424,31.765,-125.03888638486407
72743,7692975,0,172,14170,209,81,-2025,15,-475,-3051,-1742,-1,13967,-33,148,-2202,-183,-507,-1648,790,-3088,-48,-3776,32.85,1.002408092770787,30.68,1.010787071305206,4449.45654296875,-7309.91748046875,33.0,12.761913299560549,0,0.0,0.0,0.0,0.0,37.79008095958839,0.0,0.0,0.0,0.0,0.0,0.0,0.0,13,1.0065975820379967,44.824275716145834,-73.16529134114583,1.2346964616,101.718888726,1.5002997702,-0.0071784678,100.2616597626,-0.2368894374,0.09895985358750001,-2.4739963396875,0.0183258988125,0.18081553495,-2.690241945675,-0.2235759655125,-0.2755,-1.76958,-1.01036,-0.29406,-0.95584,0.4582,0.6137589969,100.9902742443,0.6317051664,0.13988769426875,-2.58211914268125,-0.10262503335,-0.28478000000000003,-1.3627099999999999,-0.27608,-90.84896,-1.41216,-111.08992,31.765,-123.94460151191032
72744,7693080,0,290,14779,96,-64,-2666,-166,-427,-3033,-1677,122,14194,269,-61,-2781,-373,-507,-1648,790,-3200,-80,-3920,32.86,1.0020824080927708,30.68,1.010106094251172,4449.45654296875,-7309.91748046875,33.0,12.761913299560549,0,0.0,0.0,0.0,0.0,41.79276771817906,0.0,0.0,0.0,0.0,0.0,0.0,0.0,13,1.0060942511719713,44.824275716145834,-73.16529134114583,2.081755662,106.0905756162,0.6891329088,0.8757730716000001,101.8911719532,1.9310078382,-0.0781905016,-3.257123082275,-0.202806613525,-0.0745253218375,-3.3976216398375003,-0.45570401713750003,-0.24766,-1.75914,-0.97266,-0.29406,-0.95584,0.4582,1.4787643668000001,103.9908737847,1.3100703734999999,-0.07635791171875,-3.3273723610562502,-0.32925531533125,-0.27086,-1.3574899999999999,-0.25722999999999996,-94.144,-2.3536,-115.3264,31.77,-119.4828225078509
72745,7693080,0,290,14779,96,-64,-2666,-166,-427,-3033,-1677,122,14194,269,-61,-2781,-373,-507,-1648,790,-3200,-80,-3920,32.86,1.0020824080927708,30.68,1.010106094251172,4449.45654296875,-7309.91748046875,33.0,12.761913299560549,0,0.0,0.0,0.0,0.0,41.79276771817906,0.0,0.0,0.0,0.0,0.0,0.0,0.0,13,1.0060942511719713,44.824275716145834,-73.16529134114583,2.081755662,106.0905756162,0.6891329088,0.8757730716000001,101.8911719532,1.9310078382,-0.0781905016,-3.257123082275,-0.202806613525,-0.0745253218375,-3.3976216398375003,-0.45570401713750003,-0.24766,-1.75914,-0.97266,-0.29406,-0.95584,0.4582,1.4787643668000001,103.9908737847,1.3100703734999999,-0.07635791171875,-3.3273723610562502,-0.32925531533125,-0.27086,-1.3574899999999999,-0.25722999999999996,-94.144,-2.3536,-115.3264,31.77,-119.4828225078509
72746,7692990,0,197,14468,93,-60,-1927,-1,-475,-3051,-1742,-169,14304,-5,-30,-2119,-178,-507,-1648,790,-3200,-64,-3584,32.85,1.0020133234641009,30.69,1.0110732790525536,4449.45654296875,-7309.91748046875,33.0,12.761913299560549,0,0.0,0.0,0.0,0.0,38.221628642181166,0.0,0.0,0.0,0.0,0.0,0.0,0.0,13,1.0065433012583274,44.824275716145834,-73.16529134114583,1.4141581566,103.8580721304,0.6675975054000001,-1.2131610582,102.6808034112,-0.035892339,-0.07330359525,-2.3542671341125003,-0.0012217265875,-0.036651797625,-2.5888386389125,-0.217467332575,-0.2755,-1.76958,-1.01036,-0.29406,-0.95584,0.4582,0.10049854920000001,103.26943777080001,0.31585258320000004,-0.0549776964375,-2.4715528865125003,-0.10934452958125,-0.28478000000000003,-1.3627099999999999,-0.27608,-94.144,-1.88288,-105.44128,31.770000000000003,-123.46306559644773
72747,7693005,0,181,14703,205,-132,-2137,-30,-475,-3051,-1742,-30,14595,60,178,-2309,-200,-507,-1648,790,-3200,-80,-3616,32.85,1.0016777695534171,30.69,1.0108660251665431,4449.45654296875,-7309.91748046875,33.0,12.761913299560549,0,0.0,0.0,0.0,0.0,40.37978263802991,0.0,0.0,0.0,0.0,0.0,0.0,0.0,13,1.00627189735998,44.824275716145834,-73.16529134114583,1.2993026718,105.54501206340001,1.4715858990000001,-0.215354034,104.769737541,0.430708068,-0.16126790955,-2.6108297174875,-0.036651797625,0.217467332575,-2.8209666905375,-0.24434531750000002,-0.2755,-1.76958,-1.01036,-0.29406,-0.95584,0.4582,0.5419743189,105.1573748022,0.9511469835,0.0280997115125,-2.7158982040125,-0.14049855756250001,-0.28478000000000003,-1.3627099999999999,-0.27608,-94.144,-2.3536,-106.38272,31.770000000000003,-121.05492229725581
72748,7693020,0,126,14781,168,-225,-2240,-50,-475,-3051,-1742,-63,14690,78,-88,-2392,-214,-507,-1648,790,-3104,-112,-3440,32.84,1.0019343696027634,30.69,1.0106489020478655,4449.45654296875,-7309.91748046875,33.0,12.761913299560549,0,0.0,0.0,0.0,0.0,40.22280262352908,0.0,0.0,0.0,0.0,0.0,0.0,0.0,13,1.0062916358253144,44.824275716145834,-73.16529134114583,0.9044869428000001,106.1049325518,1.2059825904,-0.45224347140000004,105.451691982,0.5599204884,-0.2748884821875,-2.736667556,-0.061086329375000005,-0.1075119397,-2.9223699973,-0.26144948972500004,-0.2755,-1.76958,-1.01036,-0.29406,-0.95584,0.4582,0.22612173570000002,105.7783122669,0.8829515394,-0.19120021094375,-2.82951877665,-0.16126790955000003,-0.28478000000000003,-1.3627099999999999,-0.27608,-91.31968,-3.29504,-101.2048,31.765,-121.22547069563882
72749,7693035,0,109,14812,149,-152,-2667,-44,-427,-3033,-1677,-55,14352,123,28,-2725,-209,-507,-1648,790,-3040,-16,-4128,32.83,1.001914631137429,30.69,1.0106982482112017,4449.45654296875,-7309.91748046875,33.0,12.761913299560549,0,0.0,0.0,0.0,0.0,40.1050700177997,0.0,0.0,0.0,0.0,0.0,0.0,0.0,13,1.0063064396743153,44.824275716145834,-73.16529134114583,0.7824529902,106.32746505360001,1.0695917022,-0.394815729,103.0253698656,0.8829515394,-0.18570244130000002,-3.2583448088625,-0.05375596985,0.034208344450000004,-3.3292049509375,-0.2553408567875,-0.24766,-1.75914,-0.97266,-0.29406,-0.95584,0.4582,0.1938186306,104.6764174596,0.9762716208000001,-0.075747048425,-3.2937748799,-0.15454841331875002,-0.27086,-1.3574899999999999,-0.25722999999999996,-89.4368,-0.47072,-121.44576,31.759999999999998,-121.35221688383078
72750,7693050,0,186,14685,145,89,-2485,-74,-427,-3033,-1677,43,14197,-106,-204,-2565,-234,-507,-1648,790,-3216,-112,-3760,32.84,1.0019343696027634,30.68,1.0114779175919073,4449.45654296875,-7309.91748046875,33.0,12.761913299560549,0,0.0,0.0,0.0,0.0,36.92706868481754,0.0,0.0,0.0,0.0,0.0,0.0,0.0,13,1.0067061435973352,44.824275716145834,-73.16529134114583,1.3351950108000001,105.415799643,1.040877831,0.3086741154,101.91270735660001,-0.7609175868,0.1087336662875,-3.0359905699375003,-0.090407767475,-0.24923222385000002,-3.1337286969375002,-0.285884021475,-0.24766,-1.75914,-0.97266,-0.29406,-0.95584,0.4582,0.8219345631000001,103.6642534998,0.1399801221,-0.07024927878125001,-3.0848596334375005,-0.18814589447500002,-0.27086,-1.3574899999999999,-0.25722999999999996,-94.61472,-3.29504,-110.6192,31.76,-124.90284508582258
72751,7693065,0,78,14669,53,-104,-2494,-80,-427,-3033,-1677,79,14329,61,-20,-2609,-262,-507,-1648,790,-3296,-16,-3792,32.85,1.0018948926720948,30.69,1.0099580557611645,4449.45654296875,-7309.91748046875,33.0,12.761913299560549,0,0.0,0.0,0.0,0.0,43.127526324597696,0.0,0.0,0.0,0.0,0.0,0.0,0.0,13,1.0059264742166296,44.824275716145834,-73.16529134114583,0.5599204884,105.30094415820001,0.3804587934,0.5670989562000001,102.8602651062,0.43788653580000003,-0.1270595651,-3.046986109225,-0.09773812700000001,-0.024434531750000002,-3.1874846667875003,-0.320092365925,-0.24766,-1.75914,-0.97266,-0.29406,-0.95584,0.4582,0.5635097223000001,104.08060463220001,0.4091726646,-0.07574704842499999,-3.11723538800625,-0.2089152464625,-0.27086,-1.3574899999999999,-0.25722999999999996,-96.96832,-0.47072,-111.56064,31.770000000000003,-117.9888943124958
72752,7693114,0,261,14483,158,-102,-2881,-289,-427,-3033,-1677,14,14610,100,-104,-2966,-475,-507,-1648,790,-3296,-48,-3680,32.84,1.0017369849494202,30.68,1.0100962250185048,4449.45654296875,-7309.91748046875,33.0,12.761913299560549,0,0.0,0.0,0.0,0.0,43.20604978853626,0.0,0.0,0.0,0.0,0.0,0.0,0.0,12,1.0059166049839625,44.824275716145834,-73.16529134114583,1.8735800958000002,103.9657491474,1.1341979124000001,0.10049854920000001,104.877414558,0.71784678,-0.12461611192500001,-3.5197942985875,-0.3530789837875,-0.1270595651,-3.623641058525,-0.5803201290625001,-0.24766,-1.75914,-0.97266,-0.29406,-0.95584,0.4582,0.9870393225,104.4215818527,0.9260223462000001,-0.1258378385125,-3.57171767855625,-0.46669955642500005,-0.27086,-1.3574899999999999,-0.25722999999999996,-96.96832,-1.41216,-108.2656,31.76,-117.89676852240868
72753,7693130,0,213,15022,194,-166,-2897,-325,-427,-3033,-1677,-84,14530,214,-115,-3026,-490,-507,-1648,790,-3184,-64,-3888,32.83,1.001480384900074,30.68,1.010165309647175,4449.45654296875,-7309.91748046875,33.0,12.761913299560549,0,0.0,0.0,0.0,0.0,43.95206843365185,0.0,0.0,0.0,0.0,0.0,0.0,0.0,12,1.0058228472736244,44.824275716145834,-73.16529134114583,1.5290136414,107.8349432916,1.3926227532,-0.6029912952,104.30313713400001,1.5361921092000002,-0.202806613525,-3.5393419239875,-0.3970611409375,-0.14049855756250001,-3.696944653775,-0.598646027875,-0.24766,-1.75914,-0.97266,-0.29406,-0.95584,0.4582,0.46301117309999995,106.0690402128,1.4644074312000002,-0.17165258554375,-3.6181432888812504,-0.49785358440625,-0.27086,-1.3574899999999999,-0.25722999999999996,-93.67328,-1.88288,-114.38496,31.755,-117.05988279799357
72754,7693145,0,313,15023,309,-158,-2921,-322,-427,-3033,-1677,83,14896,-69,-116,-3011,-530,-427,-1660,876,-3376,-48,-3840,32.84,1.001292869479398,30.68,1.0099481865284974,4449.45654296875,-7309.91748046875,33.0,12.761913299560549,0,0.0,0.0,0.0,0.0,45.56218019606794,0.0,0.0,0.0,0.0,0.0,0.0,0.0,12,1.0056205280039476,44.824275716145834,-73.16529134114583,2.2468604214,107.8421217594,2.2181465502,0.5958128274000001,106.9304563488,-0.4953142782,-0.19303280082500002,-3.5686633620875003,-0.39339596117500003,-0.14172028415000001,-3.6786187549625002,-0.6475150913750001,-0.24766,-1.75914,-0.97266,-0.24766,-0.9628,0.50808,1.4213366244,107.3862890541,0.8614161360000001,-0.1673765424875,-3.623641058525,-0.520455526275,-0.24766,-1.36097,-0.23229,-99.32192,-1.41216,-112.9728,31.76,-115.2678021732581
72755,7693160,0,213,15020,171,-167,-2959,-348,-427,-3033,-1677,-59,14697,-85,-157,-3107,-543,-427,-1660,876,-3504,-64,-3792,32.85,1.001223784850728,30.67,1.0099284480631632,4449.45654296875,-7309.91748046875,33.0,12.761913299560549,0,0.0,0.0,0.0,0.0,45.91567097153074,0.0,0.0,0.0,0.0,0.0,0.0,0.0,12,1.0055761164569454,44.824275716145834,-73.16529134114583,1.5290136414,107.820586356,1.2275179938,-0.4235296002,105.5019412566,-0.610169763,-0.2040283401125,-3.6150889724125004,-0.42516085245,-0.19181107423750002,-3.7959045073625,-0.6633975370125,-0.24766,-1.75914,-0.97266,-0.24766,-0.9628,0.50808,0.5527420206,106.66126380630001,0.3086741154,-0.19791970717500001,-3.7054967398875003,-0.54427919473125,-0.24766,-1.36097,-0.23229,-103.08768,-1.88288,-111.56064,31.76,-114.87778553083106
72756,7693176,0,253,14945,195,-199,-3047,-385,-427,-3033,-1677,87,14882,182,-103,-3181,-585,-427,-1660,876,-3328,-96,-3760,32.83,1.0011152232913891,30.67,1.010283740439181,4449.45654296875,-7309.91748046875,33.0,12.761913299560549,0,0.0,0.0,0.0,0.0,44.933798028792005,0.0,0.0,0.0,0.0,0.0,0.0,0.0,12,1.005699481865285,44.824275716145834,-73.16529134114583,1.8161523534000001,107.282201271,1.3998012210000002,0.6245266986,106.82995779960001,1.3064811396,-0.24312359091250002,-3.7226009121125,-0.4703647361875,-0.1258378385125,-3.8863122748375,-0.7147100536875001,-0.24766,-1.75914,-0.97266,-0.24766,-0.9628,0.50808,1.220339526,107.0560795353,1.3531411803000002,-0.1844807147125,-3.804456593475,-0.5925373949375,-0.24766,-1.36097,-0.23229,-97.90976,-2.82432,-110.6192,31.75,-115.96450636453494
72757,7693191,0,75,15428,61,-130,-3143,-406,-427,-3033,-1677,-32,15248,138,-116,-3269,-593,-427,-1660,876,-3232,-80,-3792,32.84,1.000878361707377,30.68,1.009681717246484,4449.45654296875,-7309.91748046875,33.0,12.761913299560549,0,0.0,0.0,0.0,0.0,48.27275112285925,0.0,0.0,0.0,0.0,0.0,0.0,0.0,12,1.0052800394769306,44.824275716145834,-73.16529134114583,0.538385085,110.74940121840001,0.43788653580000003,-0.2297109696,109.4572770144,0.9906285564,-0.158824456375,-3.8398866645125,-0.49602099452500004,-0.14172028415000001,-3.9938242145375003,-0.7244838663875001,-0.24766,-1.75914,-0.97266,-0.24766,-0.9628,0.50808,0.1543370577,110.10333911640001,0.7142575461,-0.1502723702625,-3.9168554395250004,-0.61025243045625,-0.24766,-1.36097,-0.23229,-95.08544,-2.3536,-111.56064,31.76,-112.24335168838024
72758,7693207,0,269,15582,21,-140,-3249,-400,-427,-3033,-1677,16,15559,185,-38,-3339,-605,-427,-1660,876,-3216,-128,-3824,32.84,1.001243523316062,30.67,1.009859363434493,4449.45654296875,-7309.91748046875,33.0,12.761913299560549,0,0.0,0.0,0.0,0.0,46.112062765176354,0.0,0.0,0.0,0.0,0.0,0.0,0.0,12,1.0055514433752775,44.824275716145834,-73.16529134114583,1.9310078382,111.85488525960001,0.1507478238,0.1148554848,111.6897805002,1.3280165430000002,-0.17104172225,-3.9693896827875004,-0.48869063500000004,-0.046425610325000005,-4.0793450756625,-0.7391445854375001,-0.24766,-1.75914,-0.97266,-0.24766,-0.9628,0.50808,1.0229316615,111.7723328799,0.7393821834000001,-0.1087336662875,-4.0243673792250005,-0.61391761021875,-0.24766,-1.36097,-0.23229,-94.61472,-3.76576,-112.50208,31.755000000000003,-114.65424412674994
72759,7693222,0,34,15989,115,-88,-3294,-421,-427,-3033,-1677,-29,15446,127,-89,-3368,-616,-427,-1660,876,-3392,-32,-3856,32.83,1.0009671848013817,30.67,1.009553417221811,4449.45654296875,-7309.91748046875,33.0,12.761913299560549,0,0.0,0.0,0.0,0.0,48.42991917814134,0.0,0.0,0.0,0.0,0.0,0.0,0.0,12,1.0052603010115964,44.824275716145834,-73.16529134114583,0.24406790520000002,114.77652165420001,0.825523797,-0.2081755662,110.8786136388,0.9116654106000001,-0.1075119397,-4.0243673792250005,-0.5143468933375,-0.1087336662875,-4.1147751467,-0.7525835779000001,-0.24766,-1.75914,-0.97266,-0.24766,-0.9628,0.50808,0.01794616950000001,112.8275676465,0.8685946038000001,-0.10812280299375,-4.0695712629625005,-0.63346523561875,-0.24766,-1.36097,-0.23229,-99.79264,-0.94144,-113.44352,31.75,-112.06366774819097
72760,7693237,0,168,16151,208,-28,-3346,-419,-330,-3051,-1616,25,15550,403,-103,-3489,-604,-427,-1660,876,-3360,-16,-3888,32.84,1.0009770540340488,30.66,1.0092968171724648,4449.45654296875,-7309.91748046875,33.0,12.761913299560549,0,0.0,0.0,0.0,0.0,49.4123027511158,0.0,0.0,0.0,0.0,0.0,0.0,0.0,12,1.005136935603257,44.824275716145834,-73.16529134114583,1.2059825904,115.9394334378,1.4931213024,0.179461695,111.62517429,2.8929225234000002,-0.034208344450000004,-4.087897161775,-0.5119034401625,-0.1258378385125,-4.2626040637875,-0.7379228588500001,-0.19140000000000001,-1.76958,-0.93728,-0.24766,-0.9628,0.50808,0.6927221427000001,113.78230386390001,2.1930219129,-0.08002309148125,-4.17525061278125,-0.6249131495062501,-0.21953,-1.36619,-0.2146,-98.8512,-0.47072,-114.38496,31.75,-110.97184189664003
72761,7693253,0,111,15130,111,-13,-3500,-408,-330,-3051,-1616,-64,14952,-93,-24,-3551,-600,-427,-1660,876,-3408,-128,-3680,32.84,1.0005625462620282,30.67,1.0091783863804589,4449.45654296875,-7309.91748046875,33.0,12.761913299560549,0,0.0,0.0,0.0,0.0,51.53474113625992,0.0,0.0,0.0,0.0,0.0,0.0,0.0,12,1.0048704663212435,44.824275716145834,-73.16529134114583,0.7968099258,108.61021781400001,0.7968099258,-0.4594219392,107.33245054560001,-0.6675975054000001,-0.0158824456375,-4.27604305625,-0.49846444770000004,-0.0293214381,-4.3383511122125,-0.7330359525000001,-0.19140000000000001,-1.76958,-0.93728,-0.24766,-0.9628,0.50808,0.16869399329999998,107.97133417980001,0.06460621019999996,-0.02260194186875,-4.30719708423125,-0.6157502001,-0.21953,-1.36619,-0.2146,-100.26336,-3.76576,-108.2656,31.755000000000003,-108.6036287133494
72762,7693268,0,101,15601,9,150,-3588,-438,-330,-3051,-1616,-123,15500,124,50,-3614,-616,-427,-1660,876,-3424,-112,-3680,32.84,1.0003355539106835,30.66,1.0093560325684678,4449.45654296875,-7309.91748046875,33.0,12.761913299560549,0,0.0,0.0,0.0,0.0,51.73129709419443,0.0,0.0,0.0,0.0,0.0,0.0,0.0,12,1.0048457932395758,44.824275716145834,-73.16529134114583,0.7250252478,111.99127614780001,0.0646062102,-0.8829515394,111.2662509,0.8901300072,0.18325898812500002,-4.38355499595,-0.535116245325,0.061086329375000005,-4.415319887225,-0.7525835779000001,-0.19140000000000001,-1.76958,-0.93728,-0.24766,-0.9628,0.50808,-0.07896314580000002,111.6287635239,0.4773681087,0.12217265875000001,-4.3994374415875,-0.6438499116125,-0.21953,-1.36619,-0.2146,-100.73408,-3.29504,-108.2656,31.75,-108.38431190580792
72763,7693284,0,66,15647,47,36,-3460,-415,-330,-3051,-1616,-89,15274,69,37,-3647,-601,-427,-1660,876,-3344,80,-3760,32.82,1.0003355539106835,30.67,1.0091093017517887,4449.45654296875,-7309.91748046875,33.0,12.761913299560549,0,0.0,0.0,0.0,0.0,52.71416305875491,0.0,0.0,0.0,0.0,0.0,0.0,0.0,12,1.004722427831236,44.824275716145834,-73.16529134114583,0.4737788748,112.3214856666,0.3373879866,-0.6388836342,109.64391717720001,0.4953142782,0.04398215715,-4.22717399275,-0.5070165338125,0.0452038837375,-4.4556368646125,-0.7342576790875001,-0.19140000000000001,-1.76958,-0.93728,-0.24766,-0.9628,0.50808,-0.08255237970000001,110.9827014219,0.4163511324,0.04459302044375,-4.3414054286812505,-0.62063710645,-0.21953,-1.36619,-0.2146,-98.38048,2.3536,-110.6192,31.745,-107.2793119893594
72764,7693299,0,29,15935,78,31,-3585,-404,-330,-3051,-1616,-52,15823,134,96,-3750,-600,-427,-1660,876,-3456,-48,-3680,32.83,1.0001480384900074,30.67,1.0091290402171231,4449.45654296875,-7309.91748046875,33.0,12.761913299560549,0,0.0,0.0,0.0,0.0,53.38259396695623,0.0,0.0,0.0,0.0,0.0,0.0,0.0,12,1.0046385393535653,44.824275716145834,-73.16529134114583,0.2081755662,114.388884393,0.5599204884,-0.3732803256,113.5848959994,0.9619146852,0.0378735242125,-4.3798898161875,-0.49357754135000004,0.1172857524,-4.581474703125,-0.7330359525000001,-0.19140000000000001,-1.76958,-0.93728,-0.24766,-0.9628,0.50808,-0.08255237970000001,113.9868901962,0.7609175868,0.07757963830625,-4.48068225965625,-0.6133067469250001,-0.21953,-1.36619,-0.2146,-101.67552,-1.41216,-108.2656,31.75,-106.53766214224859
72765,7693314,0,141,15583,307,-109,-3616,-372,-330,-3051,-1616,-28,15487,242,57,-3737,-545,-427,-1660,876,-3408,-32,-3904,32.85,1.0002664692820131,30.66,1.0087145324451023,4449.45654296875,-7309.91748046875,33.0,12.761913299560549,0,0.0,0.0,0.0,0.0,54.5623400004928,0.0,0.0,0.0,0.0,0.0,0.0,0.0,12,1.0044905008635578,44.824275716145834,-73.16529134114583,1.0121639598,111.8620637274,2.2037896146000002,-0.20099709840000002,111.17293081860001,1.7371892076000002,-0.13316819803750002,-4.4177633404000005,-0.45448229055,0.06963841548750001,-4.5655922574875,-0.6658409901875,-0.19140000000000001,-1.76958,-0.93728,-0.24766,-0.9628,0.50808,0.4055834307,111.517497273,1.9704894111000002,-0.031764891275000005,-4.49167779894375,-0.5601616403687499,-0.21953,-1.36619,-0.2146,-100.26336,-0.94144,-114.85568,31.755000000000003,-105.22953145700129
72766,7693330,0,49,16101,98,7,-3806,-352,-330,-3051,-1616,-71,15961,227,17,-3821,-552,-427,-1660,876,-3360,-32,-3904,32.83,0.9999901307673328,30.67,1.0086454478164322,4449.45654296875,-7309.91748046875,33.0,12.761913299560549,0,0.0,0.0,0.0,0.0,55.93897195852365,0.0,0.0,0.0,0.0,0.0,0.0,0.0,12,1.0043177892918824,44.824275716145834,-73.16529134114583,0.35174492220000003,115.5805100478,0.7034898444000001,-0.5096712138,114.5755245558,1.6295121906,0.008552086112500001,-4.649891392025,-0.4300477588,0.0207693519875,-4.6682172908375,-0.6743930763,-0.19140000000000001,-1.76958,-0.93728,-0.24766,-0.9628,0.50808,-0.0789631458,115.0780173018,1.1665010175000001,0.01466071905,-4.659054341431251,-0.5522204175500001,-0.21953,-1.36619,-0.2146,-98.8512,-0.94144,-114.85568,31.75,-103.6853530941702
72767,7693345,0,-16,16502,274,-95,-3705,-301,-330,-3051,-1616,-38,15540,44,27,-3757,-500,-427,-1660,876,-3392,-80,-3872,32.83,1.0,30.65,1.0087244016777694,4449.45654296875,-7309.91748046875,33.0,12.761913299560549,0,0.0,0.0,0.0,0.0,55.58495397224906,0.0,0.0,0.0,0.0,0.0,0.0,0.0,12,1.0043622008388846,44.824275716145834,-73.16529134114583,-0.1148554848,118.4590756356,1.9669001772,-0.2727817764,111.553389612,0.31585258320000004,-0.1160640258125,-4.5264970066875,-0.3677397028375,0.032986617862500005,-4.5900267892375,-0.61086329375,-0.19140000000000001,-1.76958,-0.93728,-0.24766,-0.9628,0.50808,-0.1938186306,115.0062326238,1.1413763802,-0.041538703974999994,-4.558261897962501,-0.48930149829375,-0.21953,-1.36619,-0.2146,-99.79264,-2.3536,-113.91424,31.74,-104.08035285897562
72768,7693360,0,31,15879,230,79,-3670,-269,-330,-3051,-1616,-165,15515,246,74,-3773,-467,-294,-1694,924,-3456,-208,-3824,32.84,1.000009869232667,30.65,1.008507278559092,4449.45654296875,-7309.91748046875,33.0,12.761913299560549,0,0.0,0.0,0.0,0.0,56.41102492655943,0.0,0.0,0.0,0.0,0.0,0.0,0.0,12,1.0042585738958796,44.824275716145834,-73.16529134114583,0.2225325018,113.98689019620001,1.651047594,-1.184447187,111.373927917,1.7659030788,0.09651640041250001,-4.4837365761250005,-0.32864445203750003,0.090407767475,-4.609574414637501,-0.5705463163625,-0.19140000000000001,-1.76958,-0.93728,-0.17052,-0.9825200000000001,0.53592,-0.4809573426,112.68040905660001,1.7084753364,0.09346208394375,-4.54665549538125,-0.4495953842,-0.18096,-1.37605,-0.20068000000000003,-101.67552,-6.11936,-112.50208,31.745,-103.16267945494627
72769,7693375,0,-63,16259,234,61,-3759,-200,-330,-3051,-1616,-122,15576,189,84,-3800,-410,-294,-1694,924,-3488,-80,-3728,32.85,0.9998322230446582,30.67,1.0083098939057489,4449.45654296875,-7309.91748046875,33.0,12.761913299560549,0,0.0,0.0,0.0,0.0,57.90607791940048,0.0,0.0,0.0,0.0,0.0,0.0,0.0,12,1.0040710584752035,44.824275716145834,-73.16529134114583,-0.45224347140000004,116.7147079602,1.6797614652000001,-0.8757730716000001,111.81181445280001,1.3567304142,0.0745253218375,-4.5924702424125,-0.24434531750000002,0.10262503335,-4.642561032500001,-0.500907900875,-0.19140000000000001,-1.76958,-0.93728,-0.17052,-0.9825200000000001,0.53592,-0.6640082715000001,114.2632612065,1.5182459397,0.08857517759375,-4.6175156374562505,-0.3726266091875,-0.18096,-1.37605,-0.20068000000000003,-102.61696,-2.3536,-109.67776,31.76,-101.49847237635642
72770,7693390,0,79,16158,196,93,-3801,-191,-330,-3051,-1616,-95,15987,196,82,-3774,-373,-294,-1694,924,-3488,-96,-3808,32.83,0.9998322230446582,30.66,1.0082901554404144,4449.45654296875,-7309.91748046875,33.0,12.761913299560549,0,0.0,0.0,0.0,0.0,57.98477412469953,0.0,0.0,0.0,0.0,0.0,0.0,0.0,12,1.0040611892425364,44.824275716145834,-73.16529134114583,0.5670989562000001,115.98968271240001,1.4069796888000001,-0.681954441,114.7621647186,1.4069796888000001,0.1136205726375,-4.6437827590875,-0.2333497782125,0.100181580175,-4.610796141225,-0.45570401713750003,-0.19140000000000001,-1.76958,-0.93728,-0.17052,-0.9825200000000001,0.53592,-0.05742774239999998,115.37592371550001,1.4069796888000001,0.10690107640625,-4.62728945015625,-0.344526897675,-0.18096,-1.37605,-0.20068000000000003,-102.61696,-2.82432,-112.03136,31.744999999999997,-101.40272507577957
72771,7693406,0,26,16321,359,101,-3691,-103,-330,-3051,-1616,-203,15888,244,190,-3892,-277,-294,-1694,924,-3488,-32,-4032,32.83,0.9992894152479644,30.67,1.0082605477424131,4449.45654296875,-7309.91748046875,33.0,12.761913299560549,0,0.0,0.0,0.0,0.0,60.26736466624105,0.0,0.0,0.0,0.0,0.0,0.0,0.0,12,1.0037749814951888,44.824275716145834,-73.16529134114583,0.1866401628,117.15977296380001,2.5770699402,-1.4572289634,114.0514964064,1.7515461432000001,0.12339438533750001,-4.5093928344625,-0.1258378385125,0.232128051625,-4.75495987855,-0.33841826473750003,-0.19140000000000001,-1.76958,-0.93728,-0.17052,-0.9825200000000001,0.53592,-0.6352944003,115.6056346851,2.1643080417,0.17776121848125,-4.63217635650625,-0.232128051625,-0.18096,-1.37605,-0.20068000000000003,-102.61696,-0.94144,-118.62144,31.75,-98.85589762061495
72772,7693421,0,56,16299,256,256,-3792,-81,-330,-3051,-1616,-163,17032,195,37,-3823,-253,-294,-1694,924,-3296,-80,-3936,32.84,0.9995460152973108,30.66,1.0079743399950654,4449.45654296875,-7309.91748046875,33.0,12.194717407226562,0,0.0,0.0,0.0,0.0,60.38545076441031,0.0,0.0,0.0,0.0,0.0,0.0,0.0,12,1.0037601776461882,44.824275716145834,-73.16529134114583,0.40199419680000004,117.0018466722,1.8376877568,-1.1700902514,122.2636635696,1.3998012210000002,0.3127620064,-4.6327872198,-0.09895985358750001,0.0452038837375,-4.6706607440125,-0.3090968266375,-0.19140000000000001,-1.76958,-0.93728,-0.17052,-0.9825200000000001,0.53592,-0.3840480273,119.6327551209,1.6187444889,0.17898294506875,-4.65172398190625,-0.20402834011249998,-0.18096,-1.37605,-0.20068000000000003,-96.96832,-2.3536,-115.79712,31.75,-98.72802178427366
72773,7693436,0,5,16056,96,134,-3819,-18,-155,-3070,-1573,-147,15947,194,224,-3940,-193,-294,-1694,924,-3600,16,-3904,32.82,0.9991413767579572,30.67,1.0077966938070566,4449.45654296875,-7309.91748046875,33.0,12.761913299560549,0,0.0,0.0,0.0,0.0,62.70823204935652,0.0,0.0,0.0,0.0,0.0,0.0,0.0,12,1.0034690352825069,44.824275716145834,-73.16529134114583,0.035892339,115.2574789968,0.6891329088,-1.0552347666000002,114.4750260066,1.3926227532,0.163711362725,-4.6657738376625,-0.021991078575,0.27366675560000003,-4.813602754750001,-0.23579323138750002,-0.0899,-1.7806,-0.91234,-0.17052,-0.9825200000000001,0.53592,-0.5096712138,114.8662525017,1.040877831,0.21868905916250003,-4.73968829620625,-0.12889215498125,-0.13021,-1.38156,-0.18821000000000004,-105.912,0.47072,-114.85568,31.745,-96.12867547636247
72774,7693452,0,27,15990,146,193,-3947,35,-155,-3070,-1573,-175,15953,312,186,-3955,-125,-294,-1694,924,-3616,-48,-3824,32.82,0.99926967678263,30.67,1.0079052553663952,4449.45654296875,-7309.91748046875,33.0,12.761913299560549,0,0.0,0.0,0.0,0.0,61.76327509530486,0.0,0.0,0.0,0.0,0.0,0.0,0.0,12,1.0035874660745125,44.824275716145834,-73.16529134114583,0.1938186306,114.783700122,1.0480562988,-1.256231865,114.5180968134,2.2396819536,0.23579323138750002,-4.8221548408625,0.0427604305625,0.227241145275,-4.831928653562501,-0.1527158234375,-0.0899,-1.7806,-0.91234,-0.17052,-0.9825200000000001,0.53592,-0.5312066172,114.6508984677,1.6438691261999998,0.23151718833125,-4.8270417472125,-0.0549776964375,-0.13021,-1.38156,-0.18821000000000004,-106.38272,-1.41216,-112.50208,31.745,-97.18298794157336
72775,7693467,0,142,16364,367,60,-3930,101,-155,-3070,-1573,-138,15785,237,281,-4015,-69,-294,-1694,924,-3584,-48,-3952,32.83,0.99913150752529,30.65,1.0073624475697014,4449.45654296875,-7309.91748046875,33.0,12.761913299560549,0,0.0,0.0,0.0,0.0,64.48038417641655,0.0,0.0,0.0,0.0,0.0,0.0,0.0,12,1.0032469775474957,44.824275716145834,-73.16529134114583,1.0193424276,117.4684470792,2.6344976826,-0.9906285564,113.31211422300001,1.7012968686,0.07330359525,-4.801385488875,0.12339438533750001,0.3433051710875,-4.9052322488125,-0.0842991345375,-0.0899,-1.7806,-0.91234,-0.17052,-0.9825200000000001,0.53592,0.01435693560000001,115.3902806511,2.1678972756,0.20830438316875002,-4.85330886884375,0.019547625400000004,-0.13021,-1.38156,-0.18821000000000004,-105.44128,-1.41216,-116.26784,31.74,-94.1551711598801
72776,7693483,0,-62,16379,-46,192,-3975,130,-155,-3070,-1573,-352,15964,-110,242,-4065,-42,-294,-1694,924,-3408,-48,-4048,32.83,0.9990426844312856,30.65,1.0073131014063657,4449.45654296875,-7309.91748046875,33.0,12.761913299560549,0,0.0,0.0,0.0,0.0,65.03181561512982,0.0,0.0,0.0,0.0,0.0,0.0,0.0,12,1.0031778929188255,44.824275716145834,-73.16529134114583,-0.4450650036,117.5761240962,-0.3302095188,-2.5268206656000003,114.59705995920001,-0.789631458,0.2345715048,-4.8563631853125,0.158824456375,0.295657834175,-4.9663185781875,-0.051312516675,-0.0899,-1.7806,-0.91234,-0.17052,-0.9825200000000001,0.53592,-1.4859428346,116.08659202770001,-0.5599204884,0.2651146694875,-4.91134088175,0.05375596985,-0.13021,-1.38156,-0.18821000000000004,-100.26336,-1.41216,-119.09216,31.74,-93.53990499531838
72777,7693498,0,27,16269,229,265,-3979,160,-155,-3070,-1573,-68,16305,188,282,-4095,-22,-294,-1694,924,-3568,-32,-3936,32.83,0.9987762151492722,30.67,1.00726375524303,4449.45654296875,-7309.91748046875,33.0,12.761913299560549,0,0.0,0.0,0.0,0.0,66.29240008005057,0.0,0.0,0.0,0.0,0.0,0.0,0.0,12,1.003019985196151,44.824275716145834,-73.16529134114583,0.1938186306,116.7864926382,1.6438691262,-0.48813581040000004,117.044917479,1.3495519464,0.32375754568750004,-4.8612500916625,0.19547625400000002,0.344526897675,-5.002970375812501,-0.026877984925,-0.0899,-1.7806,-0.91234,-0.17052,-0.9825200000000001,0.53592,-0.14715858990000003,116.9157050586,1.4967105363000002,0.33414222168125,-4.9321102337375,0.08429913453750001,-0.13021,-1.38156,-0.18821000000000004,-104.97056,-0.94144,-115.79712,31.75,-92.13339293527623
72778,7693513,0,-117,16924,92,366,-4149,169,-155,-3070,-1573,-348,16531,185,312,-4248,-26,-294,-1694,924,-3616,48,-3808,32.83,0.9986084381939304,30.65,1.007283493708364,4449.45654296875,-7309.91748046875,33.0,12.761913299560549,0,0.0,0.0,0.0,0.0,66.88338036486877,0.0,0.0,0.0,0.0,0.0,0.0,0.0,12,1.002945965951147,44.824275716145834,-73.16529134114583,-0.8398807326000001,121.4883890472,0.6604190376,-2.4981067944,118.6672512018,1.3280165430000002,0.447151931025,-5.068943611537501,0.2064717932875,0.38117869530000004,-5.1898945437,-0.031764891275,-0.0899,-1.7806,-0.91234,-0.17052,-0.9825200000000001,0.53592,-1.6689937635,120.0778201245,0.9942177903,0.41416531316250005,-5.129419077618751,0.08735345100625,-0.13021,-1.38156,-0.18821000000000004,-106.38272,1.41216,-112.03136,31.74,-91.47399967685604
72779,7693529,0,203,16261,-101,366,-4246,195,-155,-3070,-1573,-61,15949,188,341,-4279,44,-294,-1694,924,-3600,-16,-3792,32.82,0.9982531458179128,30.65,1.0072341475450284,4449.45654296875,-7309.91748046875,33.0,12.761913299560549,0,0.0,0.0,0.0,0.0,68.49899138818917,0.0,0.0,0.0,0.0,0.0,0.0,0.0,12,1.0027436466814705,44.824275716145834,-73.16529134114583,1.4572289634,116.72906489580001,-0.7250252478,-0.43788653580000003,114.48938294220001,1.3495519464,0.447151931025,-5.187451090525,0.23823668456250002,0.4166087663375,-5.2277680679125,0.05375596985,-0.0899,-1.7806,-0.91234,-0.17052,-0.9825200000000001,0.53592,0.5096712137999999,115.60922391900002,0.31226334930000005,0.43188034868125,-5.20760957921875,0.14599632720625,-0.13021,-1.38156,-0.18821000000000004,-105.912,-0.47072,-111.56064,31.735,-89.66777825998005
72780,7693544,0,40,16698,-194,287,-4361,222,-155,-3070,-1573,-172,16219,-305,347,-4526,21,-294,-1694,924,-3632,-16,-3776,32.83,0.997966938070565,30.66,1.006651862817666,4449.45654296875,-7309.91748046875,33.0,12.761913299560549,0,0.0,0.0,0.0,0.0,71.96795478299343,0.0,0.0,0.0,0.0,0.0,0.0,0.0,12,1.0023094004441155,44.824275716145834,-73.16529134114583,0.287138712,119.86605532440001,-1.3926227532,-1.2346964616,116.4275692482,-2.1894326790000003,0.3506355306125,-5.3279496480875,0.27122330242500003,0.42393912586250004,-5.529534535025,0.0256562583375,-0.0899,-1.7806,-0.91234,-0.17052,-0.9825200000000001,0.53592,-0.4737788748,118.1468122863,-1.7910277161000001,0.3872873282375,-5.42874209155625,0.14843978038125002,-0.13021,-1.38156,-0.18821000000000004,-106.85344,-0.47072,-111.08992,31.744999999999997,-85.80082549593146
72781,7693560,0,49,16856,-187,271,-4549,224,-155,-3070,-1573,-99,16481,-104,290,-4624,52,-175,-1699,1006,-3904,-32,-3776,32.82,0.9981051073279052,30.65,1.0065926474216629,4449.45654296875,-7309.91748046875,33.0,12.761913299560549,0,0.0,0.0,0.0,0.0,71.65252056110648,0.0,0.0,0.0,0.0,0.0,0.0,0.0,12,1.002348877374784,44.824275716145834,-73.16529134114583,0.35174492220000003,121.0002532368,-1.3423734786000001,-0.7106683122,118.3083278118,-0.7465606512,0.33108790521250003,-5.5576342465375,0.27366675560000003,0.354300710375,-5.6492637406,0.06352978255,-0.0899,-1.7806,-0.91234,-0.1015,-0.98542,0.58348,-0.179461695,119.6542905243,-1.0444670649,0.34269430779375,-5.60344899356875,0.16859826907500003,-0.09570000000000001,-1.38301,-0.16443000000000002,-114.85568,-0.94144,-111.08992,31.735,-86.14930569655901
72782,7693575,0,93,16456,-119,219,-4662,202,-155,-3070,-1573,-153,16318,-268,286,-4717,16,-175,-1699,1006,-3456,16,-3808,32.82,0.9978287688132248,30.65,1.0064544781643228,4449.45654296875,-7309.91748046875,33.0,12.761913299560549,0,0.0,0.0,0.0,0.0,73.30871521731989,0.0,0.0,0.0,0.0,0.0,0.0,0.0,12,1.002141623488774,44.824275716145834,-73.16529134114583,0.6675975054000001,118.1288661168,-0.8542376682,-1.0983055734,117.1382375604,-1.9238293704,0.2675581226625,-5.695689350925,0.24678877067500002,0.349413804025,-5.7628843132375005,0.0195476254,-0.0899,-1.7806,-0.91234,-0.1015,-0.98542,0.58348,-0.21535403399999997,117.6335518386,-1.3890335193,0.30848596334375,-5.72928683208125,0.13316819803750002,-0.09570000000000001,-1.38301,-0.16443000000000002,-101.67552,0.47072,-112.03136,31.735,-84.30144726936646
72783,7693590,0,-34,17076,-272,188,-4763,237,-155,-3070,-1573,-265,16586,-244,186,-4847,43,-175,-1699,1006,-3616,-16,-3824,32.82,0.997838638045892,30.65,1.006523562792993,4449.45654296875,-7309.91748046875,33.0,12.761913299560549,0,0.0,0.0,0.0,0.0,72.99321813867047,0.0,0.0,0.0,0.0,0.0,0.0,0.0,12,1.0021811004194425,44.824275716145834,-73.16529134114583,-0.24406790520000002,122.57951615280001,-1.9525432416000001,-1.902293967,119.0620669308,-1.7515461432000001,0.22968459845,-5.8190837362625,0.2895492012375,0.227241145275,-5.921708769612501,0.0525342432625,-0.0899,-1.7806,-0.91234,-0.1015,-0.98542,0.58348,-1.0731809361,120.8207915418,-1.8520446924000002,0.2284628718625,-5.8703962529375,0.17104172225,-0.09570000000000001,-1.38301,-0.16443000000000002,-106.38272,-0.47072,-112.50208,31.735,-84.65345537020174
72784,7693606,0,76,17168,-261,30,-4997,270,-155,-3070,-1573,-43,16828,-313,277,-5064,48,-175,-1699,1006,-3664,-80,-4016,32.82,0.9977695534172218,30.64,1.0059708857636318,4449.45654296875,-7309.91748046875,33.0,12.761913299560549,0,0.0,0.0,0.0,0.0,75.47815815669489,0.0,0.0,0.0,0.0,0.0,0.0,0.0,12,1.0018702195904268,44.824275716145834,-73.16529134114583,0.5455635528,123.2399351904,-1.8735800958000002,-0.3086741154,120.79925613840001,-2.2468604214,0.036651797625,-6.1049677577375006,0.329866178625,0.33841826473750003,-6.1868234391,0.0586428762,-0.0899,-1.7806,-0.91234,-0.1015,-0.98542,0.58348,0.1184447187,122.01959566440001,-2.0602202586000002,0.18753503118125,-6.14589559841875,0.1942545274125,-0.09570000000000001,-1.38301,-0.16443000000000002,-107.79488,-2.3536,-118.15072,31.73,-81.88094470175376
72785,7693621,0,-13,16738,184,11,-5162,285,-155,-3070,-1573,-145,16354,107,27,-5234,86,-175,-1699,1006,-3728,-16,-3808,32.82,0.997285961016531,30.65,1.0056550703182827,4449.45654296875,-7309.91748046875,33.0,12.761913299560549,0,0.0,0.0,0.0,0.0,78.67442995270713,0.0,0.0,0.0,0.0,0.0,0.0,0.0,12,1.0014705156674069,44.824275716145834,-73.16529134114583,-0.0933200814,120.15319403640001,1.3208380752,-1.040877831,117.3966624012,0.7680960546000001,0.0134389924625,-6.306552644675,0.3481920774375,0.032986617862500005,-6.394516958975,0.105068486525,-0.0899,-1.7806,-0.91234,-0.1015,-0.98542,0.58348,-0.5670989562,118.7749282188,1.0444670649,0.023212805162500003,-6.350534801825001,0.22663028198125001,-0.09570000000000001,-1.38301,-0.16443000000000002,-109.67776,-0.47072,-112.03136,31.735,-78.31478310855644
72786,7693637,0,26,17482,-84,-85,-5336,326,-94,-3086,-1513,-126,17069,-105,-20,-5450,123,-175,-1699,1006,-3664,-16,-3872,32.81,0.9971872686898594,30.65,1.005615593387614,4449.45654296875,-7309.91748046875,33.0,12.761913299560549,0,0.0,0.0,0.0,0.0,79.22702589048573,0.0,0.0,0.0,0.0,0.0,0.0,0.0,12,1.0014014310387367,44.824275716145834,-73.16529134114583,0.1866401628,125.49397407960001,-0.6029912952,-0.9044869428000001,122.5292668782,-0.753739119,-0.1038467599375,-6.519133070900001,0.39828286752500003,-0.024434531750000002,-6.658409901875,0.1502723702625,-0.05452,-1.78988,-0.87754,-0.1015,-0.98542,0.58348,-0.35892339000000006,124.0116204789,-0.6783652071,-0.06414064584375001,-6.5887714863875,0.27427761889375,-0.07801,-1.3876499999999998,-0.14703,-107.79488,-0.47072,-113.91424,31.73,-77.6950447249537
72787,7693652,0,89,17173,452,14,-5414,349,-94,-3086,-1513,-104,16810,306,-263,-5447,150,-175,-1699,1006,-3728,-48,-3984,32.82,0.9968221070811744,30.65,1.0055563779916112,4449.45654296875,-7309.91748046875,33.0,12.761913299560549,0,0.0,0.0,0.0,0.0,80.92456859689227,0.0,0.0,0.0,0.0,0.0,0.0,0.0,12,1.0011892425363929,44.824275716145834,-73.16529134114583,0.6388836342,123.2758275294,3.2446674456,-0.7465606512,120.670043718,2.1966111468,0.017104172225000002,-6.614427744725,0.42638257903750004,-0.32131409251250004,-6.6547447221125005,0.18325898812500002,-0.05452,-1.78988,-0.87754,-0.1015,-0.98542,0.58348,-0.05383850849999999,121.97293562370001,2.7206392962,-0.15210496014375002,-6.63458623341875,0.30482078358125003,-0.07801,-1.3876499999999998,-0.14703,-109.67776,-1.41216,-117.20928,31.735,-75.80424629429088
72788,7693667,0,55,16757,-266,-131,-5553,378,-94,-3086,-1513,-88,16371,-268,-138,-5668,182,-175,-1699,1006,-3712,-96,-3792,32.82,0.9967135455218356,30.64,1.0052800394769306,4449.45654296875,-7309.91748046875,33.0,12.761913299560549,0,0.0,0.0,0.0,0.0,82.46457071732797,0.0,0.0,0.0,0.0,0.0,0.0,0.0,12,1.000996792499383,44.824275716145834,-73.16529134114583,0.394815729,120.2895849246,-1.9094724348,-0.6317051664000001,117.51869635380001,-1.9238293704,-0.1600461829625,-6.7842477403875,0.461812650075,-0.168598269075,-6.9247462979500005,0.222354238925,-0.05452,-1.78988,-0.87754,-0.1015,-0.98542,0.58348,-0.11844471870000003,118.90414063920001,-1.9166509026,-0.16432222601875002,-6.85449701916875,0.3420834445,-0.07801,-1.3876499999999998,-0.14703,-109.20704,-2.82432,-111.56064,31.73,-74.08602682929148
72789,7693683,0,12,17019,247,-242,-5791,404,-94,-3086,-1513,-151,16570,262,-174,-5780,213,-175,-1699,1006,-3776,-96,-3824,32.82,0.9967727609178386,30.64,1.0050234394275843,4449.45654296875,-7309.91748046875,33.0,12.761913299560549,0,0.0,0.0,0.0,0.0,83.25445210158352,0.0,0.0,0.0,0.0,0.0,0.0,0.0,12,1.0008981001727115,44.824275716145834,-73.16529134114583,0.0861416136,122.1703434882,1.7730815466,-1.0839486378,118.94721144600001,1.8807585636000002,-0.295657834175,-7.0750186682125005,0.49357754135000004,-0.212580426225,-7.06157967575,0.2602277631375,-0.05452,-1.78988,-0.87754,-0.1015,-0.98542,0.58348,-0.49890351210000006,120.55877746710001,1.8269200551,-0.2541191302,-7.06829917198125,0.37690265224375,-0.07801,-1.3876499999999998,-0.14703,-111.08992,-2.82432,-112.50208,31.73,-73.2047361145208
72790,7693698,0,75,17299,-50,-119,-5928,420,-94,-3086,-1513,-116,16951,17,-246,-5977,200,-175,-1699,1006,-3776,-16,-3744,32.82,0.9965161608684924,30.63,1.0049444855662473,4449.45654296875,-7309.91748046875,33.0,12.761913299560549,0,0.0,0.0,0.0,0.0,84.59746323301232,0.0,0.0,0.0,0.0,0.0,0.0,0.0,12,1.0007303232173699,44.824275716145834,-73.16529134114583,0.538385085,124.18031447220001,-0.35892339,-0.8327022648,121.68220767780001,0.12203395260000001,-0.1453854639125,-7.242395210700001,0.51312516675,-0.300544740525,-7.302259813487501,0.24434531750000002,-0.05452,-1.78988,-0.87754,-0.1015,-0.98542,0.58348,-0.14715858989999997,122.93126107500001,-0.1184447187,-0.22296510221875002,-7.272327512093751,0.378735242125,-0.07801,-1.3876499999999998,-0.14703,-111.08992,-0.47072,-110.14848,31.725,-71.70630449736633
72791,7693713,0,147,17875,17,-285,-6028,456,-94,-3086,-1513,-28,17416,191,-299,-6086,235,-175,-1699,1006,-3760,-48,-3824,32.83,0.99593387614113,30.63,1.0045102393288925,4449.45654296875,-7309.91748046875,33.0,12.761913299560549,0,0.0,0.0,0.0,0.0,88.66763323514735,0.0,0.0,0.0,0.0,0.0,0.0,0.0,12,1.0002220577350114,44.824275716145834,-73.16529134114583,1.0552347666000002,128.315111925,0.12203395260000001,-0.20099709840000002,125.0201952048,1.3710873498,-0.3481920774375,-7.36456786945,0.5571073239000001,-0.3652962496625,-7.435428011525,0.2871057480625,-0.05452,-1.78988,-0.87754,-0.1015,-0.98542,0.58348,0.42711883410000007,126.66765356490001,0.7465606512,-0.35674416355000005,-7.3999979404875,0.42210653598125003,-0.07801,-1.3876499999999998,-0.14703,-110.6192,-1.41216,-112.50208,31.729999999999997,-67.16796130050362
72792,7693729,0,294,17527,294,-250,-6122,485,-94,-3086,-1513,104,17088,152,-220,-6199,267,-175,-1699,1006,-3728,-112,-3808,32.82,0.9957660991857884,30.63,1.004697754749568,4449.45654296875,-7309.91748046875,33.0,12.761913299560549,0,0.0,0.0,0.0,0.0,88.5885773730622,0.0,0.0,0.0,0.0,0.0,0.0,0.0,12,1.000231926967678,44.824275716145834,-73.16529134114583,2.1104695332000003,125.81700513060001,2.1104695332000003,0.7465606512,122.6656577664,1.0911271056,-0.305431646875,-7.479410168675001,0.5925373949375,-0.26877984925000004,-7.5734831159125005,0.32620099886250004,-0.05452,-1.78988,-0.87754,-0.1015,-0.98542,0.58348,1.4285150922,124.2413314485,1.6007983194000002,-0.2871057480625,-7.526446642293751,0.4593691969,-0.07801,-1.3876499999999998,-0.14703,-109.67776,-3.29504,-112.03136,31.725,-67.2533171206023
72793,7693744,0,-41,17374,264,-311,-6235,522,-94,-3086,-1513,-200,16918,170,-277,-6331,301,-175,-1699,1006,-3856,-144,-4000,32.83,0.9955983222304464,30.63,1.0044016777695537,4449.45654296875,-7309.91748046875,33.0,12.194717407226562,0,0.0,0.0,0.0,0.0,90.44663563296392,0.0,0.0,0.0,0.0,0.0,0.0,0.0,12,1.0,44.824275716145834,-73.16529134114583,-0.2943171798,124.71869955720001,1.8951154992,-1.43569356,121.4453182404,1.220339526,-0.3799569687125,-7.617465273062501,0.6377412786750001,-0.33841826473750003,-7.734751025462501,0.3677397028375,-0.05452,-1.78988,-0.87754,-0.1015,-0.98542,0.58348,-0.8650053699,123.08200889880001,1.5577275126,-0.359187616725,-7.6761081492625,0.50274049075625,-0.07801,-1.3876499999999998,-0.14703,-113.44352,-4.23648,-117.68,31.729999999999997,-65.18301828637125
72794,7693760,0,354,17057,391,-335,-6365,525,-94,-3086,-1513,174,16778,468,-213,-6463,317,-31,-1700,985,-3744,-112,-3808,32.83,0.9955094991364422,30.65,1.0040365161608684,4449.45654296875,-7309.91748046875,33.0,12.761913299560549,0,0.0,0.0,0.0,0.0,92.2656574744825,0.0,0.0,0.0,0.0,0.0,0.0,0.0,12,0.9997730076486553,44.824275716145834,-73.16529134114583,2.5411776012000002,122.4431252646,2.8067809098,1.2490533972,120.44033274840001,3.3595229304000003,-0.4092784068125,-7.7762897294375,0.6414064584375,-0.2602277631375,-7.8960189350125,0.3872873282375,-0.05452,-1.78988,-0.87754,-0.01798,-0.986,0.5713,1.8951154992,121.4417290065,3.0831519201,-0.334753084975,-7.836154332225,0.5143468933374999,-0.03625,-1.38794,-0.15311999999999998,-110.14848,-3.29504,-112.03136,31.74,-63.15342310353279
72795,7693775,0,45,17058,282,-275,-6519,556,-94,-3086,-1513,-149,16744,98,-385,-6613,328,-31,-1700,985,-3712,-64,-3888,32.82,0.9952726375524305,30.62,1.0038588699728597,4449.45654296875,-7309.91748046875,33.0,12.761913299560549,0,0.0,0.0,0.0,0.0,93.92693287016962,0.0,0.0,0.0,0.0,0.0,0.0,0.0,12,0.999565753762645,44.824275716145834,-73.16529134114583,0.323031051,122.4503037324,2.0243279196,-1.0695917022,120.1962648432,0.7034898444000001,-0.33597481156250003,-7.9644356239125,0.67927998265,-0.4703647361875,-8.0792779231375,0.4007263207,-0.05452,-1.78988,-0.87754,-0.01798,-0.986,0.5713,-0.3732803256,121.32328428779999,1.363908882,-0.403169773875,-8.021856773525,0.540003151675,-0.03625,-1.38794,-0.15311999999999998,-109.20704,-1.88288,-114.38496,31.72,-61.297178356569646
72796,7693790,0,219,17820,245,-340,-6667,592,-94,-3086,-1513,6,17277,229,-249,-6768,362,-31,-1700,985,-3616,-80,-3872,32.83,0.9948679990130768,30.65,1.003079200592154,4449.45654296875,-7309.91748046875,33.0,12.761913299560549,0,0.0,0.0,0.0,0.0,98.67569405061334,0.0,0.0,0.0,0.0,0.0,0.0,0.0,12,0.9989735998026155,44.824275716145834,-73.16529134114583,1.5720844482,127.92029619600001,1.758724611,0.0430708068,124.0223881806,1.6438691262,-0.41538703975,-8.1452511588625,0.7232621398,-0.3042099202875,-8.2686455442,0.442265024675,-0.05452,-1.78988,-0.87754,-0.01798,-0.986,0.5713,0.8075776275000001,125.97134218830001,1.7012968686,-0.35979848001875003,-8.20694835153125,0.5827635822375,-0.03625,-1.38794,-0.15311999999999998,-106.38272,-2.3536,-113.91424,31.74,-56.00134880742753
72797,7693806,0,150,17451,14,-363,-6827,591,-94,-3086,-1513,-24,17032,11,-336,-6933,369,-31,-1700,985,-3664,-16,-3712,32.81,0.9947791759190724,30.64,1.0033061929434983,4449.45654296875,-7309.91748046875,33.0,12.761913299560549,0,0.0,0.0,0.0,0.0,98.12149929438154,0.0,0.0,0.0,0.0,0.0,0.0,0.0,12,0.9990426844312854,44.824275716145834,-73.16529134114583,1.07677017,125.2714415778,0.10049854920000001,-0.1722832272,122.2636635696,0.07896314580000001,-0.44348675126250003,-8.3407274128625,0.7220404132125,-0.4105001334,-8.4702304311375,0.45081711078750003,-0.05452,-1.78988,-0.87754,-0.01798,-0.986,0.5713,0.45224347140000004,123.7675525737,0.08973084750000002,-0.42699344233125003,-8.405478922,0.586428762,-0.03625,-1.38794,-0.15311999999999998,-107.79488,-0.47072,-109.20704,31.725,-56.61469002552887
72798,7693821,0,403,17660,466,-368,-7086,579,81,-3101,-1492,185,17253,473,-275,-7178,352,-31,-1700,985,-3856,-176,-3664,32.81,0.9946212681963976,30.63,1.0029114236368122,4449.45654296875,-7309.91748046875,33.0,12.761913299560549,0,0.0,0.0,0.0,0.0,100.3385520632494,0.0,0.0,0.0,0.0,0.0,0.0,0.0,12,0.998766345916605,44.824275716145834,-73.16529134114583,2.8929225234000002,126.771741348,3.3451659948000003,1.3280165430000002,123.8501049534,3.3954152694,-0.4495953842,-8.657154599025,0.7073796941625,-0.33597481156250003,-8.769553445075001,0.4300477588,0.04698,-1.79858,-0.86536,-0.01798,-0.986,0.5713,2.1104695332000003,125.3109231507,3.3702906321,-0.39278509788125004,-8.713354022050002,0.5687137264812501,0.0145,-1.39229,-0.14703,-113.44352,-5.17792,-107.79488,31.72,-54.141148807628184
72799,7693837,0,204,17338,30,-391,-7223,585,81,-3101,-1492,16,16830,227,-270,-7319,341,-31,-1700,985,-3664,-128,-3616,32.81,0.994394275845053,30.64,1.002723908216136,4449.45654296875,-7309.91748046875,33.0,12.761913299560549,0,0.0,0.0,0.0,0.0,102.00182083693068,0.0,0.0,0.0,0.0,0.0,0.0,0.0,12,0.9985590920305946,44.824275716145834,-73.16529134114583,1.4644074312000002,124.46027471640001,0.215354034,0.1148554848,120.813613074,1.6295121906,-0.4776950957125,-8.8245311415125,0.7147100536875001,-0.329866178625,-8.9418168939125,0.4166087663375,0.04698,-1.79858,-0.86536,-0.01798,-0.986,0.5713,0.7896314580000001,122.6369438952,0.9224331123,-0.40378063716875,-8.8831740177125,0.5656594100125001,0.0145,-1.39229,-0.14703,-107.79488,-3.76576,-106.38272,31.725,-52.285458259383034
72800,7693852,0,274,17380,159,-328,-7344,555,81,-3101,-1492,107,17004,112,-382,-7450,326,-31,-1700,985,-3728,-80,-3808,32.8,0.9941672834937084,30.63,1.0026054774241302,4449.45654296875,-7309.91748046875,33.0,12.761913299560549,0,0.0,0.0,0.0,0.0,103.38819205885902,0.0,0.0,0.0,0.0,0.0,0.0,0.0,12,0.9983863804589193,44.824275716145834,-73.16529134114583,1.9669001772,124.761770364,1.1413763802,0.7680960546000001,122.0626664712,0.8039883936000001,-0.4007263207,-8.9723600586,0.6780582560625,-0.466699556425,-9.101863076875,0.39828286752500003,0.04698,-1.79858,-0.86536,-0.01798,-0.986,0.5713,1.3674981159000001,123.4122184176,0.9726823869000001,-0.43371293856250004,-9.037111567737501,0.53817056179375,0.0145,-1.39229,-0.14703,-109.67776,-2.3536,-112.03136,31.714999999999996,-50.73638721824871
72801,7693867,0,242,17672,8,-333,-7466,557,81,-3101,-1492,90,17140,121,-330,-7629,329,-31,-1700,985,-3920,-160,-3728,32.81,0.9937527757216876,30.63,1.0024377004687886,4449.45654296875,-7309.91748046875,33.0,12.761913299560549,0,0.0,0.0,0.0,0.0,105.72586414183716,0.0,0.0,0.0,0.0,0.0,0.0,0.0,12,0.9980952380952381,44.824275716145834,-73.16529134114583,1.7371892076000002,126.8578829616,0.0574277424,0.646062102,123.03893809200001,0.8685946038000001,-0.4068349536375,-9.121410702275,0.6805017092375001,-0.403169773875,-9.3205521360375,0.4019480472875,0.04698,-1.79858,-0.86536,-0.01798,-0.986,0.5713,1.1916256548000002,124.9484105268,0.46301117310000006,-0.40500236375625,-9.22098141915625,0.5412248782625,0.0145,-1.39229,-0.14703,-115.3264,-4.7072,-109.67776,31.72,-48.13058439201163
72802,7693883,0,157,17421,209,-378,-7744,522,81,-3101,-1492,39,16753,142,-341,-7824,297,-31,-1700,985,-3648,-128,-3856,32.79,0.993772514187022,30.64,1.0020429311621022,4449.45654296875,-7309.91748046875,33.0,12.761913299560549,0,0.0,0.0,0.0,0.0,107.23191320603624,0.0,0.0,0.0,0.0,0.0,0.0,0.0,12,0.9979077226745621,44.824275716145834,-73.16529134114583,1.1270194446000001,125.0560875438,1.5002997702,0.2799602442,120.26087105340001,1.0193424276,-0.461812650075,-9.4610506936,0.6377412786750001,-0.4166087663375,-9.5587888206,0.3628527964875,0.04698,-1.79858,-0.86536,-0.01798,-0.986,0.5713,0.7034898444000001,122.65847929860001,1.2598210989,-0.43921070820624997,-9.5099197571,0.5002970375812501,0.0145,-1.39229,-0.14703,-107.32416,-3.76576,-113.44352,31.715,-46.44595840744276
72803,7693898,0,221,17672,421,-310,-7915,469,81,-3101,-1492,81,17136,325,-265,-7994,246,-31,-1700,985,-3920,-112,-3712,32.79,0.9934468295090056,30.63,1.0020725388601035,4449.45654296875,-7309.91748046875,33.0,12.761913299560549,0,0.0,0.0,0.0,0.0,108.4211372652125,0.0,0.0,0.0,0.0,0.0,0.0,0.0,12,0.9977596841845546,44.824275716145834,-73.16529134114583,1.5864413838,126.8578829616,3.0221349438000003,0.5814558918,123.0102242208,2.3330020350000003,-0.37873524212500004,-9.6699659400625,0.5729897695375,-0.32375754568750004,-9.766482340475001,0.300544740525,0.04698,-1.79858,-0.86536,-0.01798,-0.986,0.5713,1.0839486378,124.9340535912,2.6775684894000005,-0.35124639390625,-9.71822414026875,0.43676725503125,0.0145,-1.39229,-0.14703,-115.3264,-3.29504,-109.20704,31.71,-45.11924102716421
72804,7693914,0,258,17422,607,-318,-8043,430,81,-3101,-1492,118,17075,517,-280,-8087,192,-31,-1700,985,-3760,-32,-3728,32.8,0.993101406365655,30.63,1.0018751542067603,4449.45654296875,-7309.91748046875,33.0,12.761913299560549,0,0.0,0.0,0.0,0.0,110.60192693143556,0.0,0.0,0.0,0.0,0.0,0.0,0.0,12,0.9974882802862077,44.824275716145834,-73.16529134114583,1.8520446924,125.0632660116,4.3573299546,0.8470592004,122.57233768500001,3.7112678526000002,-0.38850905482500003,-9.8263469432625,0.525342432625,-0.3420834445,-9.8801029131125,0.2345715048,0.04698,-1.79858,-0.86536,-0.01798,-0.986,0.5713,1.3495519464,123.81780184830001,4.0342989036,-0.3652962496625,-9.853224928187501,0.3799569687125,0.0145,-1.39229,-0.14703,-110.6192,-0.94144,-109.67776,31.714999999999996,-42.688366171258394
72805,7693929,0,247,17333,334,-236,-8224,355,81,-3101,-1492,102,16747,273,-246,-8336,118,-31,-1700,985,-3744,-64,-3664,32.8,0.993042190969652,30.63,1.0015593387614112,4449.45654296875,-7309.91748046875,33.0,12.761913299560549,0,0.0,0.0,0.0,0.0,112.10906692706276,0.0,0.0,0.0,0.0,0.0,0.0,0.0,12,0.9973007648655317,44.824275716145834,-73.16529134114583,1.7730815466,124.42438237740001,2.3976082452000003,0.7322037156000001,120.2178002466,1.9597217094000001,-0.28832747465,-10.047479455600001,0.43371293856250004,-0.300544740525,-10.1843128334,0.144163737325,0.04698,-1.79858,-0.86536,-0.01798,-0.986,0.5713,1.2526426311,122.32109131200001,2.1786649773000004,-0.29443610758750005,-10.1158961445,0.28893833794375,0.0145,-1.39229,-0.14703,-110.14848,-1.88288,-107.79488,31.714999999999996,-41.00692172952908
72806,7693944,0,305,17391,561,-154,-8370,308,81,-3101,-1492,111,17125,489,-168,-8459,78,-31,-1700,985,-3920,-80,-3712,32.8,0.9926079447322972,30.63,1.0011843079200593,4449.45654296875,-7309.91748046875,33.0,12.761913299560549,0,0.0,0.0,0.0,0.0,115.36246592488727,0.0,0.0,0.0,0.0,0.0,0.0,0.0,12,0.9968961263261782,44.824275716145834,-73.16529134114583,2.1894326790000003,124.8407335098,4.027120435800001,0.7968099258,122.93126107500001,3.5102707542,-0.18814589447500002,-10.225851537375,0.37629178895000004,-0.2052500667,-10.3345852036625,0.09529467382500001,0.04698,-1.79858,-0.86536,-0.01798,-0.986,0.5713,1.4931213024,123.8859972924,3.7686955950000005,-0.19669798058750002,-10.28021837051875,0.23579323138750002,0.0145,-1.39229,-0.14703,-115.3264,-2.3536,-109.20704,31.714999999999996,-37.377259138478045
72807,7693960,0,428,17261,322,-132,-8518,226,81,-3101,-1492,190,16835,239,-99,-8738,14,-31,-1700,985,-3792,-208,-3856,32.8,0.992242783123612,30.62,1.000838884776709,4449.45654296875,-7309.91748046875,33.0,12.761913299560549,0,0.0,0.0,0.0,0.0,118.2204051744296,0.0,0.0,0.0,0.0,0.0,0.0,0.0,12,0.9965408339501605,44.824275716145834,-73.16529134114583,3.0723842184000003,123.9075326958,2.3114666316,1.363908882,120.849505413,1.7156538042,-0.16126790955,-10.406667072325,0.27611020877500003,-0.12095093216250001,-10.675446921575,0.017104172225000002,0.04698,-1.79858,-0.86536,-0.01798,-0.986,0.5713,2.2181465502,122.3785190544,2.0135602179000003,-0.14110942085625,-10.541056996950001,0.1466071905,0.0145,-1.39229,-0.14703,-111.56064,-6.11936,-113.44352,31.71,-34.18879218791018
72808,7693975,0,110,17462,306,-72,-8872,141,81,-3101,-1492,62,16900,222,-30,-8996,-57,170,-1737,984,-3792,-144,-3616,32.8,0.9921342215642732,30.61,1.000434246237355,4449.45654296875,-7309.91748046875,33.0,12.761913299560549,0,0.0,0.0,0.0,0.0,120.2852267660418,0.0,0.0,0.0,0.0,0.0,0.0,0.0,12,0.9962842339008141,44.824275716145834,-73.16529134114583,0.789631458,125.35040472360001,2.1966111468,0.4450650036,121.31610582,1.5936198516,-0.0879643143,-10.8391582843,0.1722634488375,-0.036651797625,-10.990652381150001,-0.06963841548750001,0.04698,-1.79858,-0.86536,0.09860000000000001,-1.00746,0.57072,0.6173482308,123.3332552718,1.8951154992,-0.0623080559625,-10.914905332725,0.051312516674999996,0.07279000000000001,-1.4030200000000002,-0.14732,-111.56064,-4.23648,-106.38272,31.705,-31.885168902456755
72809,7693991,0,330,17487,243,65,-8944,108,81,-3101,-1492,220,17352,196,-60,-9027,-97,170,-1737,984,-3808,-96,-3840,32.79,0.9918973599802616,30.63,1.0002566000493462,4449.45654296875,-7309.91748046875,33.0,12.194717407226562,0,0.0,0.0,0.0,0.0,121.9534294387819,0.0,0.0,0.0,0.0,0.0,0.0,0.0,12,0.9960769800148039,44.824275716145834,-73.16529134114583,2.368894374,125.52986641860001,1.7443676754000002,1.579262916,124.5607732656,1.4069796888000001,0.0794122281875,-10.9271225986,0.13194647145000002,-0.07330359525,-11.0285259053625,-0.11850747898750001,0.04698,-1.79858,-0.86536,0.09860000000000001,-1.00746,0.57072,1.974078645,125.04531984210001,1.5756736821000001,0.0030543164687499985,-10.97782425198125,0.006719496231250004,0.07279000000000001,-1.4030200000000002,-0.14732,-112.03136,-2.82432,-112.9728,31.71,-30.022399449472204
72810,7694006,0,376,17859,799,-120,-9113,90,81,-3101,-1492,62,17153,511,154,-9338,-131,170,-1737,984,-3664,-48,-3808,32.78,0.9918381445842586,30.62,1.000187515420676,4449.45654296875,-7309.91748046875,33.0,12.761913299560549,0,0.0,0.0,0.0,0.0,122.4698616160448,0.0,0.0,0.0,0.0,0.0,0.0,0.0,12,0.9960128300024673,44.824275716145834,-73.16529134114583,2.6991038928,128.2002564402,5.7355957722,0.4450650036,123.1322581734,3.6681970458,-0.1466071905,-11.1335943918875,0.109955392875,0.18814589447500002,-11.408482874075,-0.1600461829625,0.04698,-1.79858,-0.86536,0.09860000000000001,-1.00746,0.57072,1.5720844482,125.6662573068,4.701896409,0.020769351987500004,-11.27103863298125,-0.02504539504375,0.07279000000000001,-1.4030200000000002,-0.14732,-107.79488,-1.41216,-112.03136,31.700000000000003,-29.44464324522029
72811,7694021,0,349,17733,1,77,-9336,60,308,-3082,-1573,242,16978,-36,76,-9430,-183,170,-1737,984,-3664,-80,-3760,32.78,0.9913940291142364,30.62,0.9999210461386628,4449.45654296875,-7309.91748046875,33.0,12.761913299560549,0,0.0,0.0,0.0,0.0,125.33081838633252,0.0,0.0,0.0,0.0,0.0,0.0,0.0,12,0.9956575376264496,44.824275716145834,-73.16529134114583,2.5052852622,127.2957694974,0.0071784678,1.7371892076000002,121.8760263084,-0.2584248408,0.09407294723750001,-11.406039420900001,0.07330359525,0.09285122065000001,-11.520881720125,-0.2235759655125,0.17864,-1.78756,-0.91234,0.09860000000000001,-1.00746,0.57072,2.1212372349,124.5858979029,-0.1256231865,0.09346208394375001,-11.4634605705125,-0.07513618513125,0.13862,-1.39751,-0.17081000000000002,-107.79488,-2.3536,-110.6192,31.700000000000003,-26.253018440871635
72812,7694037,0,250,17921,846,12,-9547,53,308,-3082,-1573,46,17244,559,133,-9649,-185,170,-1737,984,-3888,-80,-3760,32.79,0.9910288675055514,30.61,0.9996348383913152,4449.45654296875,-7309.91748046875,33.0,12.194717407226562,0,0.0,0.0,0.0,0.0,127.95442976901894,0.0,0.0,0.0,0.0,0.0,0.0,0.0,12,0.9953318529484333,44.824275716145834,-73.16529134114583,1.79461695,128.64532144380001,6.0729837588,0.3302095188,123.78549874320001,4.0127635002,0.01466071905,-11.6638237308625,0.0647515091375,0.1624896361375,-11.7884398427875,-0.2260194186875,0.17864,-1.78756,-0.91234,0.09860000000000001,-1.00746,0.57072,1.0624132344,126.21541009350001,5.042873629500001,0.08857517759375,-11.726131786825,-0.080633954775,0.13862,-1.39751,-0.17081000000000002,-114.38496,-2.3536,-110.6192,31.7,-23.327587504002615
72813,7694052,0,412,17741,398,72,-9692,41,308,-3082,-1573,-239,17205,192,82,-9819,-215,170,-1737,984,-3888,-144,-3776,32.78,0.9909696521095483,30.61,0.999259807549963,4449.45654296875,-7309.91748046875,33.0,12.761913299560549,0,0.0,0.0,0.0,0.0,129.7040717623045,0.0,0.0,0.0,0.0,0.0,0.0,0.0,12,0.9951147298297557,44.824275716145834,-73.16529134114583,2.9575287336000002,127.35319723980001,2.8570301844,-1.7156538042,123.50553849900001,1.3782658176,0.0879643143,-11.84097408605,0.0500907900875,0.100181580175,-11.996133362662501,-0.2626712163125,0.17864,-1.78756,-0.91234,0.09860000000000001,-1.00746,0.57072,0.6209374647000001,125.42936786940001,2.117648001,0.09407294723750001,-11.91855372435625,-0.1062902131125,0.13862,-1.39751,-0.17081000000000002,-114.38496,-4.23648,-111.08992,31.695,-21.37430650247397
72814,7694067,0,139,17479,511,113,-9832,50,308,-3082,-1573,-89,17070,198,73,-9947,-190,170,-1737,984,-3792,32,-3792,32.79,0.9906044905008636,30.61,0.9991512459906242,4449.45654296875,-7309.91748046875,33.0,12.761913299560549,0,0.0,0.0,0.0,0.0,131.61329041740652,0.0,0.0,0.0,0.0,0.0,0.0,0.0,12,0.994877868245744,44.824275716145834,-73.16529134114583,0.9978070242,125.4724386762,3.6681970458,-0.6388836342,122.53644534600001,1.4213366244,0.13805510438750002,-12.012015808300001,0.061086329375000005,0.0891860408875,-12.152514365862501,-0.232128051625,0.17864,-1.78756,-0.91234,0.09860000000000001,-1.00746,0.57072,0.17946169499999998,124.0044420111,2.5447668351,0.1136205726375,-12.08226508708125,-0.085520861125,0.13862,-1.39751,-0.17081000000000002,-111.56064,0.94144,-111.56064,31.7,-19.245704046641357
72815,7694083,0,128,17648,399,85,-9977,66,308,-3082,-1573,-47,17365,221,57,-10033,-159,170,-1737,984,-3776,-32,-3728,32.79,0.9902590673575128,30.62,0.9985985689612632,4449.45654296875,-7309.91748046875,33.0,12.761913299560549,0,0.0,0.0,0.0,0.0,135.23433636114845,0.0,0.0,0.0,0.0,0.0,0.0,0.0,12,0.994428818159388,44.824275716145834,-73.16529134114583,0.9188438784,126.6855997344,2.8642086522000003,-0.3373879866,124.654093347,1.5864413838,0.1038467599375,-12.189166163487501,0.080633954775,0.06963841548750001,-12.2575828523875,-0.19425452741250002,0.17864,-1.78756,-0.91234,0.09860000000000001,-1.00746,0.57072,0.2907279459,125.66984654070001,2.2253250180000004,0.08674258771250001,-12.2233745079375,-0.05681028631875001,0.13862,-1.39751,-0.17081000000000002,-111.08992,-0.94144,-109.67776,31.705,-15.206007278558069
